"Time (s)","Linear Acceleration x (m/s^2)","Linear Acceleration y (m/s^2)","Linear Acceleration z (m/s^2)","Absolute acceleration (m/s^2)"
4.611208336E-3,-1.122064604E-1,5.212909698E-2,-2.179689968E-1,2.506356241E-1
1.457620831E-2,-3.549113721E-2,5.223873228E-2,-1.357787794E-1,1.497477309E-1
2.454020834E-2,3.918409243E-2,6.231114596E-2,2.945885718E-2,7.928364445E-2
3.450420831E-2,7.183260575E-2,7.115067422E-2,1.120221269E-1,1.509016190E-1
4.446920834E-2,3.634892374E-2,1.090710372E-1,6.498186171E-2,1.320620224E-1
5.443320831E-2,7.839654386E-4,1.118163049E-1,-2.825316131E-2,1.153331772E-1
6.439820834E-2,-7.813853547E-2,7.991681993E-2,-4.427394748E-2,1.202185978E-1
7.436220831E-2,-1.604724482E-1,6.077391297E-2,-2.188145041E-2,1.729846033E-1
8.432620834E-2,-1.654703557E-1,3.662257344E-2,1.081881076E-1,2.010629706E-1
9.429120831E-2,-1.434456486E-1,2.570552945E-2,2.061845183E-1,2.524866015E-1
1.042552083E-1,-1.377128921E-1,5.149935186E-2,1.854789430E-1,2.366843091E-1
1.142192083E-1,-1.154586817E-1,1.243080041E-1,1.341912603E-1,2.163110756E-1
1.241842083E-1,-6.954824477E-2,1.578888559E-1,7.715810359E-2,1.889952966E-1
1.341482083E-1,-7.496481299E-2,1.538838056E-1,-2.664576173E-2,1.732337883E-1
1.441132083E-1,-1.331900708E-1,1.705536327E-1,-1.062959486E-1,2.410953448E-1
1.540772083E-1,-1.141617693E-1,1.947821555E-1,-1.032314229E-1,2.482533471E-1
1.640412083E-1,-2.775614798E-2,1.677381983E-1,-1.740482211E-2,1.709076791E-1
1.740062083E-1,-2.575318426E-2,9.774644226E-2,1.455816364E-1,1.772331976E-1
1.839702083E-1,-6.211891875E-2,8.604557902E-2,3.503938133E-1,3.661125866E-1
1.939342083E-1,-6.671599969E-2,3.701053619E-2,4.182875884E-1,4.251885593E-1
2.038992083E-1,-4.104701534E-2,-1.249316096E-2,3.950016367E-1,3.973250931E-1
2.138632083E-1,-5.941428915E-2,3.288298666E-2,3.332474381E-1,3.400958741E-1
2.238282083E-1,-4.715560153E-2,1.203821835E-1,2.075328863E-1,2.445105718E-1
2.337922083E-1,-6.571978033E-3,1.763739511E-1,2.647034526E-3,1.765161985E-1
2.437562083E-1,2.533379272E-2,2.685170066E-1,-2.452942050E-1,3.645715717E-1
2.537212083E-1,9.128673077E-3,3.005059540E-1,-4.972045344E-1,5.810331403E-1
2.636852083E-1,-9.309088916E-2,3.317572752E-1,-7.106846237E-1,7.898110139E-1
2.736492083E-1,-1.712930862E-1,3.915652281E-1,-9.512197798E-1,1.042824874E0
2.836142083E-1,-3.324116517E-1,2.853534794E-1,-1.349992286E0,1.419296758E0
2.935782083E-1,-6.111113651E-1,4.183314425E-1,-1.769469198E0,1.918196950E0
3.035432083E-1,-6.520939149E-1,5.981333238E-1,-1.895688949E0,2.092038847E0
3.135080833E-1,-1.242928013E-2,8.494103998E-2,-1.832772324E0,1.834781693E0
3.234720833E-1,3.215140131E-1,-4.161834678E-1,-1.278324133E0,1.382278022E0
3.334370833E-1,2.196255495E-1,-8.760874441E-1,-4.915111005E-1,1.028274163E0
3.434010833E-1,1.784957961E-1,-1.345551618E0,-7.037071413E-1,1.528912570E0
3.533650833E-1,2.030615935E-1,-1.696140144E0,-1.668752078E0,2.388065932E0
3.633300833E-1,1.946001791E-1,-2.027407714E0,-2.704316189E0,3.385495137E0
3.732940833E-1,2.845748678E-1,-2.294067353E0,-3.842506537E0,4.484259622E0
3.832590833E-1,4.536523892E-1,-2.521371722E0,-4.936219454E0,5.561418735E0
3.932230833E-1,3.045618752E-1,-2.711999138E0,-5.718900844E0,6.336680844E0
4.031870833E-1,2.028657484E-1,-2.957191602E0,-5.332541977E0,6.100995051E0
4.131520833E-1,-2.549367752E-1,-3.248708631E0,-5.859818741E0,6.704966533E0
4.231160833E-1,-6.269945955E-1,-2.907588210E0,-7.138413600E0,7.733313659E0
4.330800833E-1,-1.001909073E0,-2.068844739E0,-7.412771391E0,7.760999938E0
4.430450833E-1,-1.117417748E0,-9.845158723E-1,-7.051553797E0,7.207101003E0
4.530090833E-1,-1.018711193E0,5.795594971E-1,-5.943173139E0,6.057637218E0
4.629740833E-1,-1.814544506E-1,2.178425361E0,-3.572052932E0,4.187842514E0
4.729380833E-1,1.263115818E0,3.440839367E0,2.105788763E0,4.227195693E0
4.829020833E-1,3.370480698E0,3.976958291E0,6.171376517E0,8.078503915E0
4.928670833E-1,5.336342667E0,2.699807986E0,1.170777465E1,1.314676780E1
5.028310833E-1,6.684310062E0,4.786012158E-1,1.658962669E1,1.789203102E1
5.127950833E-1,7.261531404E0,-1.457776205E0,2.059023317E1,2.188178813E1
5.227600833E-1,7.104181076E0,-2.725299507E0,2.361531826E1,2.481088274E1
5.327240833E-1,6.567077481E0,-3.599763180E0,2.533065744E1,2.641452267E1
5.426890833E-1,5.788096794E0,-3.901094468E0,2.511905606E1,2.607081855E1
5.526530833E-1,4.747006479E0,-3.439621392E0,2.336086146E1,2.408515962E1
5.626170833E-1,3.573149870E0,-2.481725553E0,2.027165581E1,2.073321951E1
5.725820833E-1,2.380792525E0,-1.469361586E0,1.625704408E1,1.649602009E1
5.825460833E-1,1.461591074E0,-5.943097564E-1,1.196666129E1,1.207022929E1
5.925100833E-1,9.967586993E-1,2.010913011E-1,7.901652414E0,7.966810935E0
6.024750833E-1,7.981285644E-1,6.757112575E-1,4.316049144E0,4.440931785E0
6.124390833E-1,4.913666012E-1,7.356047990E-1,1.177277815E0,1.472595875E0
6.224040833E-1,-2.738832157E-2,2.976811276E-1,-1.600679378E0,1.628354582E0
6.323680833E-1,-7.623996647E-1,-5.122851614E-1,-3.977897646E0,4.082567699E0
6.423320833E-1,-1.637426205E0,-1.390021740E0,-5.894169964E0,6.273321654E0
6.522970833E-1,-2.212042466E0,-1.996873554E0,-7.430927580E0,8.006205129E0
6.622610833E-1,-2.171610285E0,-1.990203635E0,-8.699258822E0,9.184438240E0
6.722250833E-1,-1.742975025E0,-1.738795874E0,-9.679873724E0,9.988059288E0
6.821900833E-1,-1.126079741E0,-1.819315834E0,-1.051661964E1,1.073206664E1
6.921540833E-1,-4.541254655E-1,-2.008374150E0,-1.135553136E1,1.154070575E1
7.021190833E-1,2.265064432E-1,-2.096126678E0,-1.229802417E1,1.247743767E1
7.120830833E-1,9.120788106E-1,-2.083302418E0,-1.250719662E1,1.271227769E1
7.220470833E-1,1.669102472E0,-2.529979993E0,-1.254697406E1,1.290787588E1
7.320120833E-1,2.409220518E0,-3.372146862E0,-1.304654847E1,1.368897896E1
7.419760833E-1,3.042972302E0,-4.003004420E0,-1.365442969E1,1.455084791E1
7.519400833E-1,3.073900564E0,-4.418287417E0,-1.439211441E1,1.536564628E1
7.619050833E-1,2.633975647E0,-4.663992096E0,-1.510975488E1,1.603107428E1
7.718690833E-1,2.176942653E0,-4.717594692E0,-1.598254304E1,1.680584603E1
7.818340833E-1,1.926365928E0,-4.633299184E0,-1.640722280E1,1.715736889E1
7.917980833E-1,1.637605276E0,-4.666078091E0,-1.628832201E1,1.702244018E1
8.017620833E-1,1.267461761E0,-4.715201719E0,-1.585330320E1,1.658815267E1
8.117270833E-1,1.075607452E0,-4.792286732E0,-1.499405018E1,1.577797466E1
8.216910833E-1,7.522163732E-1,-4.781790980E0,-1.360211582E1,1.443775984E1
8.316550833E-1,1.407166068E-1,-4.089608116E0,-1.213013307E1,1.280175082E1
8.416200833E-1,5.512279831E-2,-2.808645719E0,-1.075504804E1,1.111587098E1
8.515840833E-1,8.532371832E-1,-1.251739475E0,-9.380167669E0,9.501705684E0
8.615490833E-1,1.520846904E0,1.085988745E-1,-7.048869340E0,7.211887963E0
8.715130833E-1,2.427298501E0,1.251623846E0,-3.859237175E0,4.727795663E0
8.814770833E-1,3.578192216E0,9.890001020E-1,2.022055466E0,4.227326465E0
8.914420833E-1,4.580168167E0,-1.010325336E0,1.218973023E1,1.306094257E1
9.014060833E-1,4.450036044E0,-3.170208884E0,2.340754096E1,2.403676390E1
9.113700833E-1,2.964532196E0,-3.028235272E0,2.954217766E1,2.984457943E1
9.213350833E-1,6.449223780E-1,-1.122852955E0,3.094541586E1,3.097249565E1
9.312990833E-1,-1.288829826E0,8.974256882E-1,2.803941050E1,2.808335799E1
9.412640833E-1,-1.706418087E0,2.729751870E0,2.363766631E1,2.385587300E1
9.512280833E-1,-6.846732118E-1,4.142680661E0,1.940792266E1,1.985693940E1
9.611920833E-1,1.634730200E-1,5.081878273E0,1.599891992E1,1.678742532E1
9.711570833E-1,5.583661178E-1,5.364023386E0,1.336848213E1,1.441529861E1
9.811210833E-1,6.205163922E-1,4.937843810E0,1.131784372E1,1.236369397E1
9.910850833E-1,7.402660532E-1,4.303914709E0,9.948645669E0,1.086495404E1
1.001050083E0,7.472479210E-1,3.900853563E0,9.032387561E0,9.867069627E0
1.011014083E0,8.135618515E-2,3.324775644E0,7.733976488E0,8.418737686E0
1.020978083E0,-4.909570038E-1,2.816738850E0,5.663452867E0,6.344269454E0
1.030943083E0,-5.196308722E-1,2.814572457E0,3.258332856E0,4.336884522E0
1.040907083E0,-1.989283064E-1,2.714689735E0,6.852422190E-1,2.806896814E0
1.050872083E0,2.547592391E-1,2.161707002E0,-1.796242429E0,2.822120886E0
1.060836083E0,3.478277627E-1,1.281714641E0,-3.962834634E0,4.179453901E0
1.070800083E0,1.562741473E-2,3.045074961E-1,-5.852744780E0,5.860681742E0
1.080765083E0,-4.337380883E-1,-6.341244710E-1,-7.460848952E0,7.500300638E0
1.090729083E0,-8.765124636E-1,-1.573775169E0,-8.679411033E0,8.864379181E0
1.100693083E0,-1.141538536E0,-2.249082092E0,-9.392331047E0,9.725089356E0
1.110658083E0,-1.009502194E0,-2.188722893E0,-9.717519853E0,1.001198255E1
1.120622083E0,-7.921440853E-1,-2.432280767E0,-9.590086219E0,9.925383402E0
1.130587083E0,-7.307939292E-1,-2.234409381E0,-9.226503426E0,9.521292482E0
1.140551083E0,-8.050722791E-1,-2.121551833E0,-8.902597500E0,9.187239292E0
1.150515083E0,-6.659440684E-1,-2.307777320E0,-8.710967286E0,9.036053825E0
1.160480083E0,-5.554789089E-1,-2.492323924E0,-9.003584762E0,9.358673727E0
1.170444083E0,-6.939851951E-2,-2.286693283E0,-9.754626283E0,1.001930717E1
1.180408083E0,7.700689459E-1,-1.823485776E0,-1.059514307E1,1.077845829E1
1.190373083E0,1.383950283E0,-1.736864100E0,-1.113642216E1,1.135569962E1
1.200337083E0,1.511036592E0,-2.075424026E0,-1.102835860E1,1.132321994E1
1.210301083E0,1.299239185E0,-2.530918179E0,-1.013577645E1,1.052746568E1
1.220266083E0,9.383564901E-1,-2.771822294E0,-8.838789175E0,9.310623277E0
1.230230083E0,5.128895077E-1,-2.727374684E0,-7.655106320E0,8.142621266E0
1.240195083E0,1.350529937E-1,-2.477755586E0,-6.853518543E0,7.288911336E0
1.250159083E0,-1.119089833E-1,-2.064929882E0,-6.420372010E0,6.745193532E0
1.260123083E0,-2.929270855E-1,-1.299266228E0,-5.985402315E0,6.131797443E0
1.270088083E0,-4.236511662E-1,-1.815177467E-1,-5.223973215E0,5.244265931E0
1.280052083E0,-2.030694142E-1,1.086832937E0,-4.219889928E0,4.362328968E0
1.290016083E0,2.722439488E-1,2.178911703E0,-2.646928107E0,3.439186151E0
1.299981083E0,6.756782207E-1,2.309774144E0,-2.926841336E-1,2.424306428E0
1.309945083E0,7.117962525E-1,1.347875009E0,2.990896999E0,3.356916115E0
1.319909083E0,-3.547068657E-1,-2.365071554E-1,7.920742988E0,7.932207894E0
1.329873083E0,-2.074378105E0,-1.985450434E0,1.436917462E1,1.465326711E1
1.339837083E0,-3.756239056E0,-3.174839879E0,1.998671164E1,2.058294396E1
1.349802083E0,-5.158314831E0,-3.547125375E0,2.289196388E1,2.373251611E1
1.359766083E0,-5.689989871E0,-3.418777237E0,2.295792282E1,2.389833138E1
1.369730083E0,-5.093341740E0,-3.210474857E0,2.162443020E1,2.244694323E1
1.379695083E0,-3.704782681E0,-2.925091557E0,1.947679818E1,2.004063978E1
1.389659083E0,-3.008055654E0,-2.310944318E0,1.722786899E1,1.764053096E1
1.399624083E0,-3.481629251E0,-1.437215494E0,1.524556933E1,1.570397131E1
1.409588083E0,-4.090661784E0,-7.320474992E-1,1.323044808E1,1.386773823E1
1.419552083E0,-3.886845973E0,1.420838046E-1,1.163540015E1,1.226826378E1
1.429517083E0,-2.577151528E0,1.755061074E0,1.052713761E1,1.097918830E1
1.439481083E0,-5.256154244E-1,3.616609300E0,9.287125604E0,9.980322459E0
1.449445083E0,1.925978111E0,5.049298173E0,7.424948802E0,9.183390901E0
1.459410083E0,4.097483731E0,5.800412199E0,4.736254034E0,8.536173433E0
1.469374083E0,5.249417374E0,5.819638429E0,1.342913062E0,7.951602965E0
1.479338083E0,5.283468634E0,5.265180298E0,-2.108998885E0,7.751454101E0
1.489303083E0,4.649666710E0,4.477922000E0,-5.204969764E0,8.292339610E0
1.499267083E0,3.852849677E0,3.487147268E0,-7.734372345E0,9.318002053E0
1.509232083E0,3.197160455E0,2.312847733E0,-9.638304114E0,1.041479744E1
1.519196083E0,2.644507359E0,9.698848231E-1,-1.097389646E1,1.132962927E1
1.529160083E0,2.234205606E0,-5.172288360E-1,-1.196503109E1,1.218282272E1
1.539125083E0,1.932046059E0,-1.863733916E0,-1.265225902E1,1.293390755E1
1.549089083E0,1.637320224E0,-2.932358769E0,-1.289543186E1,1.332560349E1
1.559053083E0,1.324220098E0,-3.792388297E0,-1.278692508E1,1.340303028E1
1.569018083E0,1.056008901E0,-4.464063514E0,-1.245166678E1,1.326977858E1
1.578982083E0,7.388627945E-1,-4.772337787E0,-1.199982670E1,1.293510599E1
1.588946083E0,4.674837220E-1,-4.911412057E0,-1.168234628E1,1.268139283E1
1.598911083E0,4.940449914E-1,-4.984605163E0,-1.189401432E1,1.290573305E1
1.608875083E0,1.388708455E0,-4.712093339E0,-1.267752133E1,1.359602449E1
1.618840083E0,2.599918832E0,-4.122343753E0,-1.350949007E1,1.436174147E1
1.628804083E0,3.334679366E0,-3.838588902E0,-1.373027392E1,1.464155979E1
1.638768083E0,3.606674589E0,-3.956841238E0,-1.323911131E1,1.428071296E1
1.648733083E0,3.133677819E0,-4.490294416E0,-1.175894597E1,1.297133343E1
1.658697083E0,2.208349510E0,-4.899029700E0,-9.839666433E0,1.121143769E1
1.668661083E0,1.012080378E0,-4.644134075E0,-8.093599547E0,9.386087663E0
1.678626083E0,-1.831809872E-1,-3.839084162E0,-6.667832608E0,7.696240262E0
1.688590083E0,-8.357416561E-1,-2.602551248E0,-5.700273369E0,6.321776142E0
1.698554083E0,-9.564036289E-1,-8.598079187E-1,-4.766675928E0,4.937122336E0
1.708519083E0,-6.026967832E-1,8.394255482E-1,-3.414941171E0,3.567870775E0
1.718483083E0,-8.177331090E-3,1.756016363E0,-1.667356932E0,2.421515945E0
1.728448083E0,2.578874995E-1,1.817285243E0,1.101572744E0,2.140676091E0
1.738412083E0,7.211488008E-2,1.244693726E0,5.436880862E0,5.578004709E0
1.748376083E0,-5.780121776E-1,5.748533656E-1,1.129440106E1,1.132378249E1
1.758341083E0,-1.661354619E0,4.379593760E-2,1.679151468E1,1.687355868E1
1.768305083E0,-2.904896736E0,-3.945818067E-2,2.042900439E1,2.063453906E1
1.778269083E0,-3.943286222E0,3.471750672E-1,2.212367483E1,2.247503114E1
1.788234083E0,-4.206969336E0,9.096874456E-1,2.232611012E1,2.273722312E1
1.798198083E0,-3.902309227E0,1.497448686E0,2.162459626E1,2.202483901E1
1.808162083E0,-3.804481509E0,2.044081196E0,2.044594026E1,2.089710077E1
1.818127083E0,-4.326928473E0,2.517805213E0,1.911356797E1,1.975829279E1
1.828091083E0,-4.730062417E0,2.773291699E0,1.710319232E1,1.796061872E1
1.838056083E0,-4.146129642E0,3.242354169E0,1.455343909E1,1.547597625E1
1.848020083E0,-2.417092186E0,4.289647211E0,1.262146174E1,1.354786715E1
1.857984083E0,-3.802363940E-1,5.029488391E0,1.094641338E1,1.205256400E1
1.867949083E0,8.473765920E-1,5.240182282E0,8.483266184E0,1.000716556E1
1.877913083E0,1.181399956E0,5.233488974E0,5.163669711E0,7.446381509E0
1.887877083E0,8.991118790E-1,4.903407218E0,1.645310590E0,5.249652508E0
1.897842083E0,4.575481331E-1,4.168101139E0,-1.706896389E0,4.527241178E0
1.907806083E0,9.280218288E-2,3.371653064E0,-4.392408518E0,5.538042002E0
1.917770083E0,1.178164253E-1,2.740539106E0,-5.908875711E0,6.514541232E0
1.927735083E0,5.222950830E-1,1.931354918E0,-6.627873906E0,6.923267761E0
1.937699083E0,1.147976832E0,8.088794012E-1,-6.953771394E0,7.094157687E0
1.947664083E0,1.862957259E0,-7.101248990E-1,-7.187220894E0,7.458621274E0
1.957628083E0,2.225120348E0,-2.275068580E0,-7.187393387E0,7.860389386E0
1.967592083E0,2.201445118E0,-3.760573597E0,-6.972011783E0,8.221753018E0
1.977557083E0,1.837922990E0,-5.073550669E0,-6.873162264E0,8.738377241E0
1.987521083E0,1.415674498E0,-5.886952745E0,-7.282895375E0,9.471056539E0
1.997485083E0,1.443685731E0,-5.899561681E0,-8.285095859E0,1.027287058E1
2.007450083E0,1.869899074E0,-5.206437415E0,-9.604018965E0,1.108335208E1
2.017414083E0,2.282945949E0,-4.439346457E0,-1.091485011E1,1.200223279E1
2.027378083E0,2.318009947E0,-3.981004564E0,-1.182890791E1,1.269427547E1
2.037343083E0,2.035447928E0,-3.674225425E0,-1.224602255E1,1.294635273E1
2.047307083E0,1.666500315E0,-3.434505370E0,-1.211265691E1,1.269998063E1
2.057272083E0,1.471186355E0,-3.364752181E0,-1.150820684E1,1.207993258E1
2.067236083E0,1.428557814E0,-3.501353371E0,-1.055421490E1,1.121123120E1
2.077200083E0,1.524920659E0,-3.645857073E0,-9.401185486E0,1.019803635E1
2.087165083E0,1.627379373E0,-3.600994603E0,-8.273111991E0,9.168419044E0
2.097129083E0,1.688451055E0,-3.390489285E0,-7.431988850E0,8.341507227E0
2.107093083E0,1.659966344E0,-3.039552558E0,-6.848475319E0,7.674371780E0
2.117058083E0,1.416916885E0,-2.596986745E0,-6.335753444E0,6.992407691E0
2.127022083E0,9.840998429E-1,-1.871287057E0,-5.976385324E0,6.339349280E0
2.136986083E0,2.106753261E-1,-6.632423624E-1,-5.780944480E0,5.822679246E0
2.146951083E0,-8.571015349E-1,7.587072212E-1,-5.855632135E0,5.966463558E0
2.156915083E0,-1.826815912E0,1.722576575E0,-6.113819450E0,6.609335421E0
2.166880083E0,-2.415486102E0,2.177362483E0,-5.540250279E0,6.424161708E0
2.176844083E0,-2.326725076E0,2.051952864E0,-2.817378536E0,4.190677982E0
2.186808083E0,-1.385829871E0,1.425656864E0,2.495127956E0,3.190405216E0
2.196773083E0,-4.521127076E-1,1.016478069E0,9.145124218E0,9.212542023E0
2.206737083E0,1.594784215E-1,4.989608918E-1,1.541774761E1,1.542664373E1
2.216701083E0,-2.272432655E-2,1.140967190E-1,1.918101444E1,1.918136724E1
2.226666083E0,-1.392907925E0,2.565033174E-1,2.010854188E1,2.015835914E1
2.236630083E0,-2.881837656E0,8.963436610E-1,1.922848681E1,1.946389286E1
2.246594083E0,-3.627198608E0,1.533870700E0,1.827554035E1,1.869504491E1
2.256559083E0,-3.668973163E0,1.779572602E0,1.839647480E1,1.884299679E1
2.266523083E0,-3.754598912E0,1.336687678E0,1.910404520E1,1.951533474E1
2.276487083E0,-3.850173406E0,8.089792424E-1,1.930273826E1,1.969959358E1
2.286452083E0,-3.226669306E0,1.203073391E0,1.811012730E1,1.843462750E1
2.296416083E0,-1.268799604E0,2.264269065E0,1.559820555E1,1.581267793E1
2.306381083E0,1.314626864E0,3.128398368E0,1.257785554E1,1.302756962E1
2.316345708E0,2.863249943E0,3.650184013E0,9.126404942E0,1.023783721E1
2.326309708E0,2.618233480E0,4.138629710E0,5.407986261E0,7.295869917E0
2.336274708E0,1.397277550E0,4.746254819E0,2.288247619E0,5.451183039E0
2.346238708E0,5.873542741E-1,5.486704402E0,-3.001083434E-2,5.518134729E0
2.356202708E0,7.795234551E-1,5.874525658E0,-2.042744669E0,6.268214603E0
2.366167708E0,1.716057807E0,5.447124599E0,-3.903774832E0,6.917765444E0
2.376131708E0,2.492025424E0,4.368954459E0,-5.536087062E0,7.479720164E0
2.386095708E0,2.654071065E0,3.021427359E0,-6.546686486E0,7.683242834E0
2.396060708E0,2.531408175E0,1.331671205E0,-6.842107117E0,7.415915678E0
2.406024708E0,2.450068435E0,-5.644508766E-1,-6.921171412E0,7.363698381E0
2.415988708E0,2.269844677E0,-2.452909890E0,-7.027605940E0,7.781786879E0
2.425953708E0,1.787207165E0,-4.180128862E0,-7.276503199E0,8.579923401E0
2.435917708E0,1.133849959E0,-5.546949434E0,-7.688914921E0,9.548490792E0
2.445882708E0,7.904925393E-1,-6.352710954E0,-8.408414807E0,1.056802983E1
2.455846708E0,8.839678828E-1,-6.551897525E0,-9.303322392E0,1.141317519E1
2.465810708E0,1.232918603E0,-6.274553561E0,-9.854707811E0,1.174756897E1
2.475775708E0,1.691664977E0,-5.877683154E0,-1.024710042E1,1.193364809E1
2.485739708E0,2.290250144E0,-5.464103744E0,-1.062534277E1,1.216550798E1
2.495703708E0,2.584992059E0,-5.071900000E0,-1.063235592E1,1.206040405E1
2.505668708E0,2.701419479E0,-4.792731413E0,-1.033312700E1,1.170647065E1
2.515632708E0,2.855902916E0,-4.605295407E0,-9.880902168E0,1.126930144E1
2.525596708E0,3.115960756E0,-4.449115107E0,-9.281114666E0,1.075374010E1
2.535561708E0,3.262150795E0,-4.188536865E0,-8.715036948E0,1.020477035E1
2.545525708E0,3.244712936E0,-3.419102927E0,-8.287380366E0,9.534101961E0
2.555490708E0,3.270839465E0,-2.215487791E0,-8.131936816E0,9.040750707E0
2.565454708E0,3.028399286E0,-1.155230011E0,-8.323081126E0,8.931933612E0
2.575418708E0,2.568426898E0,-4.149806955E-1,-8.648740633E0,9.031596771E0
2.585383708E0,1.998863946E0,1.534382477E-1,-8.291535398E0,8.530448970E0
2.595347708E0,1.625299518E0,4.552478385E-1,-6.921877756E0,7.124692329E0
2.605311708E0,1.700241527E0,5.180062965E-1,-4.560452233E0,4.894576217E0
2.615276708E0,2.030549423E0,4.560570931E-1,-1.287392580E0,2.447140921E0
2.625240708E0,2.712881191E0,6.477367160E-1,2.558339866E0,3.784757598E0
2.635204708E0,3.347690298E0,1.087041244E0,6.241651279E0,7.165675103E0
2.645169708E0,3.769454933E0,1.474401155E0,9.461716447E0,1.029109943E1
2.655133708E0,4.047282461E0,1.615279144E0,1.266851662E1,1.339704950E1
2.665097708E0,3.736525753E0,1.750731503E0,1.562662536E1,1.616224321E1
2.675062708E0,2.566227467E0,2.132961359E0,1.803721018E1,1.834328211E1
2.685026708E0,9.480365556E-1,2.532738417E0,1.967043574E1,1.985546725E1
2.694991708E0,-4.704467985E-1,3.166875679E0,2.001594304E1,2.027038227E1
2.704955708E0,-1.399203476E0,4.348614627E0,1.932619028E1,1.985874745E1
2.714919708E0,-1.733404157E0,5.550643705E0,1.793492600E1,1.885406869E1
2.724884708E0,-1.551045142E0,6.350822888E0,1.604472701E1,1.732547134E1
2.734848708E0,-1.331323881E0,6.634310521E0,1.444191983E1,1.594852807E1
2.744812708E0,-1.640602120E0,6.516268101E0,1.340510675E1,1.499500624E1
2.754777708E0,-2.356636069E0,6.040803514E0,1.228443641E1,1.389073139E1
2.764741708E0,-2.767114116E0,5.219036411E0,1.067841911E1,1.220343789E1
2.774705708E0,-2.499468344E0,4.044206825E0,8.773859353E0,9.979156217E0
2.784670708E0,-1.803748792E0,2.762930433E0,6.418454708E0,7.216914515E0
2.794634708E0,-1.102502452E0,1.446208366E0,3.550511790E0,3.989130765E0
2.804598708E0,-9.410061559E-1,-6.851343378E-2,5.889941257E-1,1.112250312E0
2.814563708E0,-1.117617504E0,-1.667715659E0,-2.278776299E0,3.036966550E0
2.824527708E0,-1.138946393E0,-2.963156054E0,-4.611645191E0,5.598639482E0
2.834492708E0,-8.749014826E-1,-4.013138815E0,-6.140037196E0,7.387204648E0
2.844456708E0,-4.060094588E-1,-4.971136687E0,-7.132052999E0,8.703058291E0
2.854420708E0,8.500901386E-2,-5.760848769E0,-7.853659637E0,9.740358041E0
2.864385708E0,4.668038370E-1,-6.351523384E0,-8.403586761E0,1.054419393E1
2.874349708E0,7.105203170E-1,-6.619187867E0,-8.794449154E0,1.102999651E1
2.884313708E0,9.988079292E-1,-6.752121391E0,-9.107989721E0,1.138175019E1
2.894278708E0,1.212957232E0,-6.752957543E0,-9.586390779E0,1.178866358E1
2.904242708E0,1.507292912E0,-6.580930120E0,-1.037666887E1,1.237965387E1
2.914206708E0,2.294050396E0,-6.162547807E0,-1.137757420E1,1.314111324E1
2.924171708E0,3.116301356E0,-5.501394947E0,-1.221631167E1,1.375554257E1
2.934135708E0,3.593615417E0,-4.926656917E0,-1.286855689E1,1.424028709E1
2.944099708E0,3.667571585E0,-4.466237217E0,-1.326043494E1,1.446504376E1
2.954064708E0,3.259863949E0,-4.189063992E0,-1.319478474E1,1.422242295E1
2.964028708E0,2.844265495E0,-4.009440743E0,-1.290110717E1,1.380594174E1
2.973993708E0,2.608889045E0,-3.964815963E0,-1.241978191E1,1.329575310E1
2.983957708E0,2.178791835E0,-3.837149318E0,-1.162632294E1,1.243552306E1
2.993921708E0,1.582433726E0,-3.529500990E0,-1.083982565E1,1.150926991E1
3.003886708E0,8.430790347E-1,-3.102774700E0,-1.023974228E1,1.073267512E1
3.013850708E0,8.422358662E-2,-2.544134932E0,-9.776776121E0,1.010272575E1
3.023814708E0,-5.416521442E-1,-2.054776777E0,-9.172099178E0,9.415035739E0
3.033779708E0,-7.891256064E-1,-1.655956908E0,-7.868020399E0,8.079025777E0
3.043743708E0,-7.601104067E-1,-1.615626031E0,-5.694064795E0,5.967444109E0
3.053707708E0,-6.544934660E-1,-1.733550483E0,-2.742742336E0,3.310014275E0
3.063672708E0,-4.806900971E-1,-1.528259127E0,8.914472026E-1,1.833389496E0
3.073636708E0,-3.746077180E-1,-1.188778118E0,5.202603981E0,5.349823599E0
3.083600708E0,-4.490234774E-1,-1.073759294E0,1.001206808E1,1.007948849E1
3.093565708E0,-8.949455917E-1,-1.348115768E0,1.427285460E1,1.436428635E1
3.103529708E0,-1.653520373E0,-1.460023728E0,1.705812198E1,1.720015478E1
3.113494708E0,-2.476537611E0,-8.002832633E-1,1.858046797E1,1.876186243E1
3.123458708E0,-3.133072048E0,2.559362836E-1,1.931008821E1,1.956428252E1
3.133422708E0,-3.759961393E0,1.233764257E0,1.939713688E1,1.979667657E1
3.143387708E0,-4.847245297E0,2.257437471E0,1.901823263E1,1.975563169E1
3.153351708E0,-6.400939373E0,3.494218306E0,1.835854742E1,1.975393252E1
3.163315708E0,-7.625241666E0,5.014923561E0,1.738456502E1,1.963458351E1
3.173280708E0,-7.578209587E0,6.382166303E0,1.664395902E1,1.936963291E1
3.183244708E0,-6.373999497E0,6.980581462E0,1.639802396E1,1.892753489E1
3.193208708E0,-4.766289427E0,6.982177168E0,1.631226519E1,1.837275996E1
3.203173708E0,-3.422223001E0,6.569227502E0,1.575512494E1,1.740948943E1
3.213137708E0,-2.508687065E0,5.776795295E0,1.417199481E1,1.550839487E1
3.223101708E0,-2.058956951E0,4.728490101E0,1.170566030E1,1.279141921E1
3.233066708E0,-1.456547851E0,3.606701193E0,8.488014123E0,9.336820063E0
3.243030708E0,-2.727800654E-1,2.451048283E0,4.911709095E0,5.496083413E0
3.252994708E0,1.353722810E0,1.408168573E0,1.408824631E0,2.408379334E0
3.262959708E0,2.991855358E0,3.060964769E-1,-2.067967218E0,3.649846839E0
3.272923708E0,4.096148227E0,-8.768277016E-1,-5.306784992E0,6.760859713E0
3.282887708E0,4.615847000E0,-2.246787060E0,-7.900780594E0,9.422124474E0
3.292852708E0,4.460866549E0,-3.617821428E0,-9.779928355E0,1.134173536E1
3.302816708E0,3.903273433E0,-4.714614658E0,-1.111375134E1,1.268773438E1
3.312781083E0,3.374099247E0,-5.739439774E0,-1.207743446E1,1.379094405E1
3.322745083E0,2.863768591E0,-6.717812269E0,-1.265279463E1,1.460901722E1
3.332709083E0,2.133098915E0,-7.064291956E0,-1.298045388E1,1.493139360E1
3.342674083E0,1.516239444E0,-6.842310015E0,-1.332138865E1,1.505242785E1
3.352638083E0,1.529469793E0,-6.688164546E0,-1.402799192E1,1.561586950E1
3.362602083E0,2.190693843E0,-6.134541982E0,-1.499063073E1,1.634474700E1
3.372567083E0,2.933291400E0,-5.271935002E0,-1.524624059E1,1.639650418E1
3.382531083E0,3.334971727E0,-4.948659990E0,-1.469447160E1,1.585997376E1
3.392495083E0,3.240748524E0,-5.270694222E0,-1.404353499E1,1.534612471E1
3.402460083E0,2.638387663E0,-5.613857954E0,-1.324228050E1,1.462308051E1
3.412424083E0,1.840749096E0,-5.627690712E0,-1.201872841E1,1.339810033E1
3.422388083E0,1.381645457E0,-5.647325077E0,-1.083378899E1,1.229521080E1
3.432353083E0,9.167285165E-1,-5.440253536E0,-9.616793377E0,1.108690509E1
3.442317083E0,3.495833892E-1,-4.890468792E0,-8.558169601E0,9.863121234E0
3.452282083E0,-5.193265978E-1,-4.073309880E0,-8.039952512E0,9.027867406E0
3.462246083E0,-1.689421254E0,-2.936714652E0,-7.891627947E0,8.588144665E0
3.472210083E0,-2.751666942E0,-1.863804375E0,-7.911794409E0,8.581487545E0
3.482175083E0,-3.377465489E0,-1.521815934E0,-7.125571361E0,8.031000192E0
3.492139083E0,-3.399510954E0,-1.854915145E0,-4.641991655E0,6.045285059E0
3.502103083E0,-2.822425852E0,-2.156381504E0,-2.484364986E-2,3.551997479E0
3.512068083E0,-1.666857580E0,-1.709055766E0,5.851206377E0,6.319485887E0
3.522032083E0,-2.094087096E-1,-5.573817390E-1,1.175149545E1,1.176657009E1
3.531996083E0,7.679310577E-1,6.465491465E-1,1.594921391E1,1.598077496E1
3.541961083E0,8.072201076E-1,2.046340999E0,1.814140054E1,1.827428602E1
3.551925083E0,7.151871260E-1,3.353243106E0,1.924264175E1,1.954571548E1
3.561889083E0,1.441782754E0,3.814656541E0,1.962870533E1,2.004785313E1
3.571854083E0,1.988111063E0,3.996139205E0,1.957341172E1,2.007586015E1
3.581818083E0,1.637536863E0,4.517664063E0,1.883900144E1,1.944219100E1
3.591782083E0,3.312737470E-1,4.851816650E0,1.747014370E1,1.813438138E1
3.601747083E0,-1.337978597E0,4.840102338E0,1.598484216E1,1.675505763E1
3.611711083E0,-2.705017270E0,4.753599799E0,1.467103128E1,1.565736211E1
3.621676083E0,-3.243575360E0,4.479530277E0,1.345664294E1,1.454882166E1
3.631640083E0,-2.886664825E0,3.916969951E0,1.221061415E1,1.314437466E1
3.641604083E0,-2.252558115E0,3.355849795E0,1.095616887E1,1.167790145E1
3.651569083E0,-1.449018099E0,2.908918743E0,9.952180896E0,1.046935367E1
3.661533083E0,-1.982464480E-1,2.550203758E0,8.519119556E0,8.894843386E0
3.671497083E0,8.243562502E-1,2.345646227E0,6.123992436E0,6.609455560E0
3.681462083E0,1.067562999E0,2.673424764E0,3.165669106E0,4.278825962E0
3.691426083E0,1.268078203E0,3.411486636E0,4.407572687E-1,3.666132890E0
3.701390083E0,1.997519964E0,3.620997636E0,-2.106253617E0,4.640906612E0
3.711355083E0,2.625583138E0,2.982581089E0,-4.763261154E0,6.203074527E0
3.721319083E0,2.547712551E0,1.654449788E0,-7.396543613E0,7.996055325E0
3.731283083E0,1.800527707E0,-2.585638762E-2,-9.271117097E0,9.444372971E0
3.741248083E0,6.971423261E-1,-1.848755103E0,-9.873510118E0,1.006926536E1
3.751212083E0,-5.343574503E-1,-3.601511205E0,-9.228511945E0,9.920778879E0
3.761176083E0,-1.366296077E0,-4.922430550E0,-7.989590444E0,9.483176839E0
3.771141083E0,-1.816577291E0,-5.838345426E0,-7.086903139E0,9.360044149E0
3.781105083E0,-2.243615384E0,-6.356028079E0,-7.027683708E0,9.737619896E0
3.791069083E0,-2.556362045E0,-6.490871304E0,-7.634900097E0,1.034205476E1
3.801034083E0,-2.585365404E0,-6.530510749E0,-8.765545782E0,1.123238522E1
3.810998083E0,-2.140633198E0,-6.342256717E0,-1.003044939E1,1.205887414E1
3.820963083E0,-1.121475789E0,-5.704355895E0,-1.078266327E1,1.225002904E1
3.830927083E0,2.254442417E-2,-5.068533173E0,-1.060156799E1,1.175090552E1
3.840891083E0,1.148096993E0,-4.868369240E0,-9.832642758E0,1.103177272E1
3.850856083E0,1.816279229E0,-4.844313211E0,-8.909451606E0,1.030264862E1
3.860820083E0,1.796767070E0,-4.851710815E0,-8.005694845E0,9.531978792E0
3.870784083E0,1.413358708E0,-4.786641245E0,-7.010282979E0,8.605439251E0
3.880749083E0,9.894383508E-1,-4.631144778E0,-6.079806781E0,7.706525852E0
3.890713083E0,7.345037683E-1,-4.399156497E0,-5.418989552E0,7.018370283E0
3.900677083E0,5.780814672E-1,-3.947412895E0,-5.099776601E0,6.474872054E0
3.910642083E0,4.587315365E-1,-3.158285826E0,-4.937722773E0,5.879312049E0
3.920606083E0,2.251442247E-1,-1.965176968E0,-4.917685534E0,5.300588783E0
3.930570083E0,-1.864662819E-1,-7.499287963E-1,-4.982969697E0,5.042534073E0
3.940535083E0,-8.475942546E-1,-9.356392890E-2,-4.754514304E0,4.830380574E0
3.950499083E0,-1.393290479E0,3.543816143E-1,-3.617124440E0,3.892355829E0
3.960463083E0,-1.217702175E0,8.555236638E-1,-1.127728509E0,1.867214748E0
3.970428083E0,-4.907882020E-1,1.124801101E0,2.841820482E0,3.095479644E0
3.980392083E0,2.993598267E-1,1.546031300E0,7.324294832E0,7.491670299E0
3.990357083E0,1.034831894E0,2.231627861E0,1.108576422E1,1.135540437E1
4.000321083E0,1.219212218E0,2.837871273E0,1.308100260E1,1.344070760E1
4.010285083E0,1.067158299E0,3.458431884E0,1.316815418E1,1.365649525E1
4.020250083E0,1.183618389E0,3.959498797E0,1.203978423E1,1.272929643E1
4.030214083E0,1.267043685E0,4.857225032E0,1.066911385E1,1.179101459E1
4.040178083E0,1.044706891E0,6.224308437E0,9.511785570E0,1.141523074E1
4.050143083E0,5.810495138E-1,7.367585862E0,9.040206458E0,1.167665503E1
4.060107083E0,1.861902202E-1,7.896860036E0,9.105927992E0,1.205458377E1
4.070071083E0,-2.241688543E-1,7.873936027E0,9.303170949E0,1.219008244E1
4.080036083E0,-2.723903119E-1,7.403714054E0,9.582398300E0,1.211245373E1
4.090000083E0,3.593822993E-1,6.658067758E0,9.795229349E0,1.184928436E1
4.099964083E0,1.167260365E0,5.859804708E0,9.843117460E0,1.151463283E1
4.109929083E0,1.505826869E0,4.705766359E0,9.148699790E0,1.039761797E1
4.119893083E0,8.399919241E-1,3.295917004E0,7.346059338E0,8.095260535E0
4.129857083E0,-3.120300121E-1,2.007512271E0,4.816297739E0,5.227254743E0
4.139822083E0,-1.142863004E0,8.241325942E-1,2.044259098E0,2.482806001E0
4.149786083E0,-1.506193928E0,-7.786854029E-2,-7.504550457E-1,1.684596816E0
4.159750083E0,-1.448092631E0,-6.750674790E-1,-3.121725526E0,3.506830282E0
4.169715083E0,-9.721345393E-1,-1.079359464E0,-4.869248369E0,5.081303189E0
4.179679083E0,-7.461228984E-2,-1.494000144E0,-6.101469546E0,6.282159982E0
4.189644083E0,7.877178162E-1,-2.143628435E0,-6.821377568E0,7.193527239E0
4.199608083E0,1.035310927E0,-2.892424040E0,-7.135854859E0,7.769067519E0
4.209572083E0,1.023966159E0,-3.655841779E0,-7.169174048E0,8.112382038E0
4.219537083E0,7.563378563E-1,-4.312821188E0,-6.952085642E0,8.216079863E0
4.229501083E0,2.592707314E-1,-4.786685977E0,-6.657435674E0,8.203720723E0
4.239465083E0,-4.337982780E-1,-5.097649384E0,-6.700627302E0,8.430457664E0
4.249430083E0,-1.084038187E0,-5.073708544E0,-7.416803046E0,9.051332753E0
4.259394083E0,-1.266377541E0,-4.628109781E0,-8.361877987E0,9.640752859E0
4.269358083E0,-8.880642959E-1,-4.135583019E0,-9.131202582E0,1.006332776E1
4.279323083E0,-6.598955624E-2,-3.705771445E0,-9.649485744E0,1.033681149E1
4.289287083E0,8.692648398E-1,-3.368721563E0,-1.004246307E1,1.062802761E1
4.299251083E0,1.397053894E0,-3.263420226E0,-1.033392573E1,1.092665054E1
4.309216083E0,1.356912320E0,-3.472382464E0,-1.026488765E1,1.092092347E1
4.319181000E0,8.339923154E-1,-3.917973626E0,-1.004398803E1,1.081331383E1
4.329145000E0,-4.888849698E-2,-4.222824646E0,-9.543196812E0,1.043586333E1
4.339110000E0,-8.817609244E-1,-4.318541227E0,-8.386714620E0,9.474401447E0
4.349074000E0,-1.406500655E0,-3.995244873E0,-6.937055374E0,8.127912582E0
4.359038000E0,-1.796397965E0,-2.980900892E0,-5.822847966E0,6.783684413E0
4.369003000E0,-2.197144637E0,-1.476594153E0,-5.293636943E0,5.918645700E0
4.378967000E0,-2.183034429E0,1.340114585E-1,-4.902050080E0,5.367838799E0
4.388932000E0,-1.366668399E0,1.232060086E0,-3.993113270E0,4.396670122E0
4.398896000E0,4.026049174E-2,1.351324574E0,-1.916008024E0,2.344948988E0
4.408860000E0,1.461412734E0,9.982948360E-1,1.763672268E0,2.498571518E0
4.418825000E0,2.302829552E0,8.066637450E-1,6.951641838E0,7.367432021E0
4.428789000E0,2.521787751E0,1.054419920E0,1.257622066E1,1.286983065E1
4.438753000E0,2.368692150E0,1.911014794E0,1.714676577E1,1.741477122E1
4.448718000E0,2.373203277E0,3.063221794E0,1.887943143E1,1.927299542E1
4.458682000E0,2.733593783E0,3.837019217E0,1.758937076E1,1.820937163E1
4.468646000E0,2.906172014E0,4.286703430E0,1.489848095E1,1.577296411E1
4.478611000E0,2.881562253E0,5.067425126E0,1.211627985E1,1.344568465E1
4.488575000E0,2.560593383E0,6.213401041E0,9.683525310E0,1.178701206E1
4.498539000E0,1.745795137E0,7.159159521E0,7.928486456E0,1.082415185E1
4.508504000E0,6.261191212E-1,7.242979943E0,6.657645004E0,9.857840565E0
4.518468000E0,-2.246914675E-1,6.654409155E0,5.509493340E0,8.642115732E0
4.528432000E0,-6.109402610E-1,5.857521955E0,4.681042870E0,7.523029563E0
4.538397000E0,-3.086815310E-1,5.057048657E0,4.760224110E0,6.951888879E0
4.548361000E0,6.927746022E-1,4.314232998E0,4.902897926E0,6.567415861E0
4.558325000E0,1.315068036E0,3.418092528E0,4.020325627E0,5.438361759E0
4.568290000E0,1.038547507E0,2.426408847E0,1.841426788E0,3.218212770E0
4.578254000E0,-1.860649802E-2,1.331095254E0,-6.749850333E-1,1.492570123E0
4.588219000E0,-1.510034671E0,9.833788812E-2,-2.625189328E0,3.030098028E0
4.598183000E0,-2.689065481E0,-1.133062632E0,-3.955264828E0,4.915183003E0
4.608147000E0,-3.033658857E0,-1.907373148E0,-4.654817523E0,5.874392271E0
4.618112000E0,-2.632216804E0,-2.045077708E0,-4.664563077E0,5.733154179E0
4.628076000E0,-1.804492266E0,-1.862273574E0,-4.532731753E0,5.222060163E0
4.638040000E0,-6.220808879E-1,-1.624231378E0,-4.539296422E0,4.861103188E0
4.648005000E0,3.838052420E-1,-1.517733993E0,-4.765609396E0,5.016159472E0
4.657969000E0,7.956337036E-1,-1.505113947E0,-5.190923583E0,5.462974339E0
4.667933000E0,6.764918607E-1,-1.507156380E0,-5.535892934E0,5.777133560E0
4.677898000E0,3.065689319E-1,-1.541269328E0,-5.454076939E0,5.675953744E0
4.687862000E0,-1.499022903E-1,-1.566210334E0,-5.002542082E0,5.244131271E0
4.697826000E0,-4.788568488E-1,-1.456671520E0,-4.693215019E0,4.937353847E0
4.707791000E0,-6.627485651E-1,-1.440215993E0,-4.713854520E0,4.973317022E0
4.717755000E0,-7.524667802E-1,-1.525568677E0,-5.112646907E0,5.388202338E0
4.727719000E0,-8.344147036E-1,-1.509511053E0,-5.485565949E0,5.750330886E0
4.737684000E0,-8.539027425E-1,-1.627765727E0,-5.852217945E0,6.134103524E0
4.747648000E0,-8.261148734E-1,-1.909620233E0,-6.300268446E0,6.634945193E0
4.757612000E0,-8.111553568E-1,-2.327628909E0,-6.404923666E0,6.862862123E0
4.767577000E0,-8.911228283E-1,-2.678217142E0,-5.685518505E0,6.347603298E0
4.777541000E0,-1.017810868E0,-2.889907399E0,-4.527394999E0,5.466700030E0
4.787505000E0,-1.078187317E0,-3.091597162E0,-3.661686071E0,4.912067364E0
4.797470000E0,-1.251336602E0,-3.317825351E0,-3.381629584E0,4.899921121E0
4.807434000E0,-1.594702793E0,-3.187487991E0,-3.648951420E0,5.100784562E0
4.817399000E0,-1.934532003E0,-2.648568835E0,-4.061266662E0,5.220269901E0
4.827363000E0,-2.210592502E0,-1.998522469E0,-4.247171282E0,5.188378858E0
4.837327000E0,-2.164264136E0,-1.315484358E0,-3.729490968E0,4.508174933E0
4.847292000E0,-1.661733665E0,-7.023692983E-1,-2.301271123E0,2.924128962E0
4.857256000E0,-5.187146135E-1,-5.029728127E-1,4.324951530E-1,8.420798999E-1
4.867220000E0,1.284956338E0,-5.579208523E-1,4.341283972E0,4.561703080E0
4.877185000E0,3.535470705E0,-1.073610190E-1,8.999242619E0,9.669407801E0
4.887149000E0,5.028663349E0,7.799615577E-1,1.305153030E1,1.400850592E1
4.897113000E0,5.037490305E0,1.719701207E0,1.504072266E1,1.595484312E1
4.907078000E0,4.078733172E0,2.200042371E0,1.423188199E1,1.496738841E1
4.917042000E0,2.767800871E0,2.183030482E0,1.192916544E1,1.243910494E1
4.927006000E0,1.970633589E0,2.429378063E0,9.707830431E0,1.019937479E1
4.936971000E0,1.587544777E0,3.385907114E0,8.247945575E0,9.056117910E0
4.946935000E0,1.228759771E0,4.100431020E0,7.899369661E0,8.984621648E0
4.956899000E0,7.905151972E-1,4.361485518E0,8.187463730E0,9.310318605E0
4.966864000E0,3.541723571E-1,4.209400608E0,8.244143715E0,9.263390153E0
4.976828000E0,-2.145577312E-2,3.844132648E0,8.138169948E0,9.000423671E0
4.986792000E0,1.321941438E-1,3.370591795E0,8.224811066E0,8.889650241E0
4.996757000E0,7.901933080E-1,2.662238456E0,8.641952015E0,9.077183136E0
5.006721000E0,1.218868329E0,2.017109013E0,8.821073281E0,9.130482057E0
5.016685000E0,1.089218016E0,1.818754209E0,8.301349365E0,8.567768906E0
5.026650000E0,8.067293800E-1,1.571184560E0,6.861461400E0,7.085131316E0
5.036614000E0,5.978499531E-1,1.304109477E0,4.618523270E0,4.836205464E0
5.046579000E0,4.075473861E-1,1.319469236E0,1.831847879E0,2.294070746E0
5.056543000E0,7.712519838E-1,1.379008509E0,-1.029582995E0,1.885877841E0
5.066507000E0,1.453298115E0,1.192507180E0,-3.364785510E0,3.854339154E0
5.076472000E0,1.928189820E0,9.074662346E-1,-5.171793832E0,5.593644822E0
5.086436000E0,2.309587471E0,3.173821878E-1,-6.256333053E0,6.676573148E0
5.096400000E0,2.319592350E0,-6.684712350E-1,-6.620538574E0,7.046906660E0
5.106365000E0,1.879219097E0,-1.770045733E0,-6.551054356E0,7.041366308E0
5.116329000E0,1.159035087E0,-2.891551344E0,-6.117288603E0,6.864812551E0
5.126293000E0,4.764270749E-1,-4.019201208E0,-5.775396641E0,7.052387360E0
5.136258000E0,-2.421734363E-1,-5.007527418E0,-5.877394302E0,7.725137060E0
5.146222000E0,-1.069199196E0,-5.503995788E0,-6.825900389E0,8.833463232E0
5.156186000E0,-1.575299831E0,-5.537389821E0,-8.593829430E0,1.034399149E1
5.166151000E0,-1.642752726E0,-5.374321502E0,-1.052090448E1,1.192775751E1
5.176115000E0,-1.255543966E0,-5.164538022E0,-1.189478264E1,1.302822696E1
5.186079000E0,-7.844500266E-1,-4.840084797E0,-1.214910144E1,1.310123843E1
5.196044000E0,-3.013256606E-1,-4.643097364E0,-1.132351201E1,1.224218422E1
5.206008000E0,-1.511758138E-1,-4.844371390E0,-1.020585182E1,1.129823879E1
5.215972000E0,-2.678256465E-1,-5.382480122E0,-8.895362740E0,1.040049523E1
5.225937000E0,-4.478194992E-1,-5.832741455E0,-7.336116732E0,9.382964558E0
5.235901000E0,-6.425889004E-1,-6.045571334E0,-6.245613937E0,8.716051095E0
5.245865000E0,-1.057394545E0,-5.935975217E0,-5.758728569E0,8.337675919E0
5.255830000E0,-1.398789347E0,-5.218469231E0,-5.364017538E0,7.613259283E0
5.265794000E0,-1.598506406E0,-3.778577174E0,-5.331549704E0,6.727428219E0
5.275758000E0,-1.416067285E0,-1.859360198E0,-5.618081397E0,6.084842273E0
5.285723000E0,-9.943114203E-1,2.446878487E-1,-5.305577542E0,5.403487799E0
5.295687000E0,-1.105720247E0,2.164711740E0,-4.449709477E0,5.070355866E0
5.305652000E0,-1.147195644E0,3.406249870E0,-2.960959840E0,4.656809981E0
5.315615708E0,-5.819738124E-1,3.825490555E0,-4.017358750E-1,3.890303743E0
5.325579708E0,-1.185429327E-1,3.602401151E0,2.886406671E0,4.617649830E0
5.335544708E0,3.688605263E-1,3.283394022E0,6.771366332E0,7.534463245E0
5.345508708E0,9.527996244E-1,3.604872184E0,1.068719461E1,1.131896900E1
5.355472708E0,1.483137772E0,4.655295240E0,1.338216929E1,1.424618989E1
5.365437708E0,1.690259160E0,5.786274217E0,1.424275431E1,1.546589783E1
5.375401708E0,1.735370721E0,6.310468914E0,1.320148799E1,1.473474854E1
5.385365708E0,1.389796476E0,6.643644431E0,1.084540507E1,1.279423138E1
5.395330708E0,7.659404462E-1,7.210378792E0,8.990065999E0,1.154978414E1
5.405294708E0,-8.132091913E-2,7.703697267E0,8.482608372E0,1.145897942E1
5.415258708E0,-3.817973813E-1,7.832445939E0,8.603731690E0,1.164118455E1
5.425223708E0,4.947840795E-2,7.278180766E0,8.755110256E0,1.138535546E1
5.435187708E0,1.066006251E-1,6.373752159E0,9.042174046E0,1.106331739E1
5.445151708E0,6.496663702E-1,5.600990571E0,9.845508971E0,1.134580137E1
5.455116708E0,2.008129444E0,4.879872760E0,9.931774113E0,1.124659411E1
5.465080708E0,2.933598379E0,3.916862070E0,8.415445499E0,9.734861625E0
5.475044708E0,2.820554743E0,3.039147638E0,5.461108215E0,6.856795926E0
5.485009708E0,2.221749721E0,2.443612817E0,1.440379715E0,3.603069406E0
5.494973708E0,1.254335200E0,1.546147660E0,-2.504457189E0,3.199411695E0
5.504937708E0,-2.574574048E-2,4.211404449E-1,-5.654878510E0,5.670597242E0
5.514902708E0,-1.121124664E0,-8.673022950E-1,-7.485244120E0,7.618268394E0
5.524866708E0,-1.799313825E0,-2.225387127E0,-8.076233316E0,8.568280031E0
5.534830708E0,-1.891438023E0,-3.424096157E0,-8.159104734E0,9.048367938E0
5.544795708E0,-1.492638035E0,-4.394192503E0,-8.328468166E0,9.534163731E0
5.554759708E0,-9.993620990E-1,-5.215439789E0,-8.258946526E0,9.818845885E0
5.564724708E0,-6.263606112E-1,-5.709126638E0,-7.621858467E0,9.543541328E0
5.574688708E0,-4.244665604E-1,-5.841565488E0,-7.050828742E0,9.166146691E0
5.584652708E0,-3.612569532E-1,-5.780573182E0,-6.711410737E0,8.865019288E0
5.594617708E0,-3.129254766E-1,-5.581748554E0,-6.778223947E0,8.786248297E0
5.604581708E0,-3.551832676E-1,-5.174658968E0,-7.353208728E0,8.998495940E0
5.614545708E0,-4.119812201E-1,-4.627414547E0,-8.176117793E0,9.403807531E0
5.624510708E0,-2.923597045E-1,-4.000439832E0,-8.992266891E0,9.846311842E0
5.634474708E0,-6.492861550E-2,-3.549013733E0,-9.279606085E0,9.935331061E0
5.644438708E0,3.132112593E-1,-3.339443092E0,-8.655088955E0,9.282270534E0
5.654403708E0,5.645349668E-1,-3.317962761E0,-7.376654309E0,8.108181387E0
5.664367708E0,5.906598147E-1,-3.576162940E0,-6.101412243E0,7.096833925E0
5.674331708E0,5.514551840E-1,-4.069055153E0,-4.948157129E0,6.430052226E0
5.684296708E0,2.441840380E-1,-4.354524407E0,-4.077345920E0,5.970448761E0
5.694260708E0,-4.145232606E-1,-4.140586481E0,-3.847914042E0,5.667691630E0
5.704224708E0,-1.293537126E0,-3.709198206E0,-4.094975275E0,5.674523076E0
5.714189708E0,-2.226521049E0,-3.146744007E0,-4.379603700E0,5.834408487E0
5.724153708E0,-3.078726564E0,-2.439536723E0,-4.257442501E0,5.792729350E0
5.734117708E0,-3.600818017E0,-1.477609522E0,-3.008806436E0,4.919566695E0
5.744082708E0,-3.167199907E0,-3.792047989E-1,-5.032277513E-1,3.229270769E0
5.754046708E0,-1.912744546E0,7.854845452E-1,2.735225741E0,3.428853675E0
5.764010708E0,-5.766083343E-1,1.673643274E0,5.814196426E0,6.077700145E0
5.773975708E0,1.964908946E-1,2.062241625E0,8.445862715E0,8.696208725E0
5.783939708E0,1.609608369E-1,2.554070229E0,1.052121555E1,1.082798041E1
5.793903708E0,4.390433036E-2,3.675769674E0,1.187067925E1,1.242683532E1
5.803868708E0,6.251144233E-1,4.944313170E0,1.254050470E1,1.349448994E1
5.813832708E0,1.301672650E0,5.814998079E0,1.293936550E1,1.424555137E1
5.823796708E0,1.601705564E0,6.447811823E0,1.359969156E1,1.513576389E1
5.833761708E0,1.458451997E0,7.224301597E0,1.430244853E1,1.608967525E1
5.843725708E0,1.782433498E0,7.711905003E0,1.419912238E1,1.625624878E1
5.853689708E0,2.517671896E0,7.836296915E0,1.309686025E1,1.546848310E1
5.863654708E0,2.676121208E0,8.042205445E0,1.170118601E1,1.444840639E1
5.873618708E0,2.594826784E0,8.321968986E0,1.085006296E1,1.391805159E1
5.883583708E0,2.960670987E0,7.981871535E0,1.003619369E1,1.316058622E1
5.893547708E0,3.378398997E0,6.878897797E0,8.201052659E0,1.122453025E1
5.903511708E0,3.063184080E0,5.571164508E0,5.443995169E0,8.370068942E0
5.913476708E0,2.220005642E0,4.289741059E0,2.634706256E0,5.501997861E0
5.923440708E0,1.334409749E0,3.028243166E0,1.164414525E-2,3.309235808E0
5.933404708E0,6.295135760E-1,1.662615425E0,-2.472344280E0,3.045170543E0
5.943369708E0,-1.713818908E-3,2.978793848E-1,-4.639850990E0,4.649403432E0
5.953333708E0,-3.615310049E-1,-8.351347151E-1,-6.073978277E0,6.141772282E0
5.963297708E0,-1.845233252E-1,-1.624240441E0,-6.934410093E0,7.124482382E0
5.973262708E0,2.151552800E-1,-2.160390648E0,-7.438835939E0,7.749184452E0
5.983226708E0,4.719129147E-1,-2.604714426E0,-7.477435164E0,7.932167148E0
5.993190708E0,6.139773779E-1,-3.164765418E0,-7.159226180E0,7.851574865E0
6.003155708E0,6.679507598E-1,-3.610025043E0,-6.531517639E0,7.492607136E0
6.013119708E0,6.393958090E-1,-3.804667743E0,-6.289496121E0,7.378487995E0
6.023083708E0,4.537296820E-1,-3.964934076E0,-6.702616525E0,7.800746191E0
6.033048708E0,2.434454981E-1,-4.119307586E0,-7.557388237E0,8.610579403E0
6.043012708E0,-2.379522948E-1,-4.282734632E0,-8.464973754E0,9.489690084E0
6.052976708E0,-9.591169562E-1,-4.477529944E0,-8.964249957E0,1.006607953E1
6.062941708E0,-1.444960716E0,-4.687328334E0,-8.817753232E0,1.009017990E1
6.072905708E0,-1.586490817E0,-4.799179138E0,-8.188182938E0,9.622651055E0
6.082869708E0,-1.481816447E0,-4.815792539E0,-7.552615154E0,9.079076684E0
6.092834708E0,-1.271315514E0,-4.876072947E0,-7.164534282E0,8.759159891E0
6.102798708E0,-7.514739961E-1,-4.990176390E0,-6.758918779E0,8.435019659E0
6.112762708E0,-2.899901569E-1,-5.009043016E0,-6.266847516E0,8.027950175E0
6.122727708E0,-1.076641331E-1,-4.884214318E0,-5.754817366E0,7.548845209E0
6.132691708E0,-1.697282799E-1,-4.719478372E0,-5.508315711E0,7.255606506E0
6.142656708E0,-3.041572296E-1,-4.542431991E0,-5.655322899E0,7.260087954E0
6.152620708E0,-4.250720396E-1,-4.118938335E0,-5.869223403E0,7.182904886E0
6.162584708E0,-8.471454808E-1,-3.076853408E0,-5.890132461E0,6.699130001E0
6.172549708E0,-1.533525129E0,-1.526237891E0,-5.796972867E0,6.187567846E0
6.182513708E0,-1.930505610E0,1.232932198E-1,-5.141338609E0,5.493215436E0
6.192477708E0,-1.965563176E0,1.434132550E0,-3.014212772E0,3.873713129E0
6.202442708E0,-1.520413041E0,2.058142726E0,3.743293905E-1,2.586064537E0
6.212406708E0,-6.193074073E-1,1.685677428E0,4.621826363E0,4.958460344E0
6.222370708E0,5.888600418E-1,1.587555887E0,1.018461240E1,1.032440892E1
6.232335708E0,1.777047043E0,2.444429673E0,1.556924780E1,1.585984268E1
6.242299708E0,2.519538035E0,3.738754127E0,1.778355329E1,1.834614733E1
6.252263708E0,2.847159575E0,4.821131047E0,1.639805320E1,1.732760142E1
6.262228708E0,2.507842142E0,5.298405932E0,1.351198917E1,1.472875518E1
6.272192708E0,2.052814159E0,5.881258142E0,1.099792384E1,1.263952420E1
6.282156708E0,1.417343586E0,6.707139931E0,1.000683716E1,1.212977241E1
6.292121708E0,3.344346787E-1,7.310411203E0,1.037057256E1,1.269262517E1
6.302085708E0,-3.525143791E-2,7.315462028E0,1.020637456E1,1.255736075E1
6.312049708E0,2.418495737E-1,6.802134966E0,8.915408165E0,1.121659637E1
6.322015000E0,4.341721709E-1,5.979393716E0,7.184183850E0,9.357037581E0
6.331979000E0,9.668692678E-2,5.356683961E0,6.166260788E0,8.168609645E0
6.341943000E0,1.318012475E-1,4.763143040E0,5.414590691E0,7.212676032E0
6.351908000E0,4.261543592E-1,4.052436782E0,3.963564951E0,5.684513922E0
6.361872000E0,4.358754649E-1,3.307119099E0,1.994685234E0,3.886617211E0
6.371836000E0,1.106393335E-1,2.493881330E0,-2.150383723E-1,2.505579105E0
6.381801000E0,-4.411422713E-1,1.536532499E0,-2.101644257E0,2.640539188E0
6.391765000E0,-7.972762596E-1,5.072401106E-1,-3.443307184E0,3.570617079E0
6.401729000E0,-6.772628892E-1,-4.822590512E-1,-4.205575944E0,4.286971873E0
6.411694000E0,-3.109082969E-1,-1.148934314E0,-4.639370348E0,4.789621202E0
6.421658000E0,2.827634918E-1,-1.756768753E0,-4.249882051E0,4.607351636E0
6.431622000E0,9.910806144E-1,-2.210751839E0,-3.419535913E0,4.190810225E0
6.441587000E0,1.523425965E0,-2.424318467E0,-3.063246353E0,4.193044826E0
6.451551000E0,1.895108467E0,-2.554848786E0,-3.279373477E0,4.568695527E0
6.461516000E0,2.018130961E0,-2.685417696E0,-3.728487586E0,5.018559599E0
6.471480000E0,1.824320466E0,-2.719961877E0,-4.286290324E0,5.394313906E0
6.481444000E0,1.423270616E0,-2.654113750E0,-4.940594341E0,5.786146514E0
6.491409000E0,9.819315492E-1,-2.599706870E0,-5.620510916E0,6.269992690E0
6.501373000E0,6.708277360E-1,-2.552761914E0,-6.408745991E0,6.930990436E0
6.511337000E0,4.280534618E-1,-2.485509579E0,-7.240777881E0,7.667454073E0
6.521302000E0,3.232994604E-1,-2.510738560E0,-7.887326735E0,8.283613565E0
6.531266000E0,2.762966357E-1,-2.732709099E0,-8.076649053E0,8.530902577E0
6.541230000E0,2.842024093E-2,-3.177053342E0,-7.808554215E0,8.430183544E0
6.551195000E0,-3.230694821E-1,-3.759479583E0,-7.322600309E0,8.237629265E0
6.561159000E0,-7.470639530E-1,-4.384852161E0,-6.803917197E0,8.128857376E0
6.571123000E0,-1.197367459E0,-4.928333314E0,-6.556165992E0,8.288876317E0
6.581088000E0,-1.855048754E0,-5.205850940E0,-6.494024708E0,8.527276634E0
6.591052000E0,-2.973675487E0,-4.820306590E0,-6.466679034E0,8.596280548E0
6.601016000E0,-4.457797930E0,-3.680552112E0,-6.414692025E0,8.635201214E0
6.610981000E0,-5.516215884E0,-2.234896454E0,-6.245602242E0,8.627337203E0
6.620945000E0,-5.472236052E0,-6.417114526E-1,-5.319169979E0,7.658376477E0
6.630909000E0,-3.914029971E0,9.752331251E-1,-3.894914546E0,5.607233684E0
6.640874000E0,-1.566647121E0,2.380401492E0,-2.134682195E0,3.560556493E0
6.650838000E0,1.051100456E0,2.953697598E0,6.614183235E-1,3.204156030E0
6.660802000E0,3.478200443E0,2.069751788E0,4.610647656E0,6.135130202E0
6.670767000E0,4.155617918E0,4.049325478E-1,8.512552548E0,9.481386056E0
6.680731000E0,2.720337268E0,-9.037760568E-1,1.193080851E1,1.227033975E1
6.690695000E0,8.506374380E-1,-1.031137185E0,1.468085928E1,1.474158937E1
6.700660000E0,5.057172764E-1,9.915123582E-2,1.515097191E1,1.515973386E1
6.710624000E0,1.503920384E0,1.366955059E0,1.239991542E1,1.256535893E1
6.720588000E0,2.249364512E0,2.538211411E0,8.568789314E0,9.215547091E0
6.730553000E0,2.400167128E0,4.141706223E0,5.601658323E0,7.368385756E0
6.740517000E0,2.123570731E0,5.643243721E0,4.491801828E0,7.518778890E0
6.750481000E0,1.338495783E0,6.381275187E0,4.678274213E0,8.024867201E0
6.760446000E0,3.170711160E-1,6.641138899E0,4.974947902E0,8.303936813E0
6.770410000E0,-1.211179277E-1,6.775046570E0,5.564532596E0,8.768121155E0
6.780374000E0,4.684484395E-1,6.851644510E0,6.718497562E0,9.607428685E0
6.790339000E0,1.628364775E0,6.367966340E0,7.130044481E0,9.697427568E0
6.800303000E0,2.398645974E0,5.392885242E0,6.427462344E0,8.726338632E0
6.810267000E0,2.407521317E0,4.235689105E0,4.727452805E0,6.788669318E0
6.820232000E0,2.062201133E0,3.247546497E0,2.462772973E0,4.567765589E0
6.830196000E0,1.741795788E0,2.327536815E0,4.801780272E-1,2.946498113E0
6.840161000E0,1.579820459E0,1.503339025E0,-1.201009324E0,2.489635376E0
6.850125000E0,1.565725746E0,8.614007002E-1,-2.654552876E0,3.200024882E0
6.860089000E0,1.506865334E0,3.133879548E-1,-3.919196863E0,4.210577062E0
6.870054000E0,1.373596618E0,-2.291751856E-1,-5.005500188E0,5.195605939E0
6.880018000E0,1.221445928E0,-8.993403590E-1,-5.868879586E0,6.061723421E0
6.889982000E0,7.851394864E-1,-1.700886036E0,-6.571002717E0,6.832827674E0
6.899947000E0,3.279754057E-1,-2.541087071E0,-7.085174702E0,7.534214752E0
6.909911000E0,-1.491673318E-1,-3.319008243E0,-7.358421521E0,8.073687751E0
6.919875000E0,-6.645403712E-1,-3.916000190E0,-7.573080994E0,8.551504379E0
6.929840000E0,-9.830134302E-1,-4.389868487E0,-7.808865287E0,9.011971916E0
6.939804000E0,-1.270384491E0,-4.711489322E0,-7.994308562E0,9.365947778E0
6.949768000E0,-1.567645533E0,-4.877216078E0,-7.761332687E0,9.299625490E0
6.959733000E0,-1.767754063E0,-4.940268066E0,-7.014539752E0,8.759849937E0
6.969697000E0,-1.631177870E0,-4.897147189E0,-6.248831075E0,8.104978818E0
6.979661000E0,-1.173573238E0,-4.782794070E0,-5.667465811E0,7.508166353E0
6.989626000E0,-6.112662432E-1,-4.611612739E0,-5.427803060E0,7.148542825E0
6.999590000E0,-9.796604175E-2,-4.424903834E0,-5.723917755E0,7.235510055E0
7.009554000E0,3.018785879E-1,-4.350740089E0,-6.379248542E0,7.727540487E0
7.019519000E0,4.626080577E-1,-4.552987677E0,-6.949371949E0,8.320905809E0
7.029483000E0,1.175298752E-1,-4.651661780E0,-6.950512156E0,8.364292548E0
7.039447000E0,-5.558583201E-1,-4.596947045E0,-6.460534195E0,7.948547206E0
7.049412000E0,-1.388639165E0,-4.485400296E0,-5.782995683E0,7.449172680E0
7.059376000E0,-2.415304399E0,-3.977223462E0,-4.562413974E0,6.516718735E0
7.069340000E0,-3.699043639E0,-2.877757469E0,-3.185370129E0,5.666656400E0
7.079305000E0,-4.592199983E0,-1.827677060E0,-2.089591976E0,5.366106479E0
7.089269000E0,-4.133003227E0,-1.053241999E0,-8.138686842E-1,4.342052121E0
7.099233000E0,-2.327074301E0,1.551254618E-1,1.405267185E0,2.722887176E0
7.109198000E0,-7.466147406E-1,1.918952681E0,5.044912761E0,5.448940973E0
7.119162000E0,9.734624420E-1,3.512734099E0,1.023125914E1,1.086119669E1
7.129126000E0,2.424612436E0,5.127393000E0,1.502557837E1,1.606041437E1
7.139091000E0,3.292170985E0,6.534647654E0,1.663708036E1,1.817505028E1
7.149055000E0,3.946610949E0,6.708335102E0,1.637344578E1,1.812918157E1
7.159019000E0,3.118750755E0,6.783094677E0,1.644434327E1,1.805971775E1
7.168984000E0,1.531249101E0,7.112282978E0,1.694159633E1,1.843765113E1
7.178948000E0,7.283155869E-1,7.383976777E0,1.720229093E1,1.873425659E1
7.188912000E0,1.392221681E-1,7.711369983E0,1.632825265E1,1.805814067E1
7.198877000E0,-5.993381426E-1,7.616593049E0,1.410428756E1,1.604065533E1
7.208841000E0,-1.676500662E0,7.178530177E0,1.180333687E1,1.391620319E1
7.218805000E0,-2.182973179E0,6.515930132E0,1.032176469E1,1.240006224E1
7.228770000E0,-1.149536723E0,6.125603929E0,9.201824083E0,1.111386632E1
7.238734000E0,2.109301551E-1,6.038987954E0,7.246662519E0,9.435464202E0
7.248699000E0,1.258018215E0,5.561828844E0,4.455011732E0,7.236275247E0
7.258663000E0,1.998475838E0,4.719550878E0,1.246903535E0,5.274735499E0
7.268627000E0,2.738713020E0,3.633549854E0,-1.870682162E0,4.919622475E0
7.278592000E0,3.384854323E0,2.408252950E0,-4.720981107E0,6.288448431E0
7.288556000E0,3.384552315E0,1.037727581E0,-6.788047854E0,7.655695041E0
7.298520000E0,2.995183593E0,-5.980836225E-1,-8.000058129E0,8.563279678E0
7.308485000E0,2.296847704E0,-2.174812805E0,-8.733101921E0,9.288293130E0
7.318448958E0,1.406653560E0,-3.564624630E0,-9.428997182E0,1.017797676E1
7.328412958E0,6.724769432E-1,-4.788738057E0,-1.006379956E1,1.116531679E1
7.338377958E0,2.633845217E-1,-5.988987243E0,-9.774199253E0,1.146613756E1
7.348341958E0,-1.548163999E-1,-6.989914203E0,-8.530826851E0,1.102986289E1
7.358305958E0,-5.120314288E-1,-7.655214493E0,-7.060745620E0,1.042682185E1
7.368270958E0,-4.775863950E-1,-8.112826361E0,-6.102182322E0,1.016280815E1
7.378234958E0,-3.338056279E-1,-8.304905056E0,-5.863882556E0,1.017192179E1
7.388198958E0,-2.494945706E-1,-8.179299263E0,-6.236289382E0,1.028856109E1
7.398163958E0,-4.437985517E-2,-7.948930076E0,-6.893586588E0,1.052183420E1
7.408127958E0,-1.213973332E-3,-7.655815587E0,-7.718397167E0,1.087130023E1
7.418091958E0,6.851593712E-2,-7.461652944E0,-8.512743167E0,1.132023654E1
7.428056958E0,2.148471501E-1,-7.439053456E0,-9.002318839E0,1.168021490E1
7.438020958E0,1.576927184E-1,-7.327838244E0,-9.361112178E0,1.188917581E1
7.447984958E0,3.929243037E-2,-7.116599978E0,-9.634585285E0,1.197801205E1
7.457949958E0,-1.159883116E-1,-6.901925887E0,-9.736099380E0,1.193489277E1
7.467913958E0,-4.331789848E-1,-6.604396750E0,-9.628548034E0,1.168394787E1
7.477877958E0,-8.628404309E-1,-6.107567607E0,-9.157456580E0,1.104109989E1
7.487842958E0,-1.244132540E0,-5.225263111E0,-8.299433817E0,9.885941636E0
7.497806958E0,-1.584634033E0,-3.889147437E0,-7.583244624E0,8.668456139E0
7.507770958E0,-1.707188458E0,-2.006838087E0,-7.191529123E0,7.658980523E0
7.517735958E0,-1.430504499E0,3.954004169E-2,-6.927089964E0,7.073364257E0
7.527699958E0,-7.056088020E-1,1.582706791E0,-6.356228639E0,6.588208184E0
7.537663958E0,3.931731393E-1,2.511708906E0,-4.714307095E0,5.356114088E0
7.547628958E0,1.704375947E0,3.045248038E0,-1.040600318E0,3.641604317E0
7.557592958E0,2.919934605E0,3.215058782E0,4.858838571E0,6.516972712E0
7.567556958E0,3.445210453E0,3.646679776E0,1.114634605E1,1.222328838E1
7.577521958E0,3.737191751E0,4.723952662E0,1.586089990E1,1.696615680E1
7.587485958E0,4.179663131E0,6.109987185E0,1.817702412E1,1.962665874E1
7.597450958E0,4.040397364E0,7.333317670E0,1.809444156E1,1.993768227E1
7.607414958E0,3.413673787E0,7.829961457E0,1.667665782E1,1.873692561E1
7.617378958E0,2.288170728E0,8.064802009E0,1.557620131E1,1.768883275E1
7.627343958E0,9.803462228E-1,8.406777586E0,1.524188325E1,1.743416167E1
7.637307958E0,-1.534603210E-1,8.604485981E0,1.468961724E1,1.702485194E1
7.647271958E0,-6.570378819E-1,8.540434411E0,1.391476176E1,1.633986884E1
7.657236958E0,-5.895141625E-1,8.044142042E0,1.379662462E1,1.598132031E1
7.667200958E0,-6.179246870E-1,7.441920930E0,1.443648075E1,1.625349176E1
7.677164958E0,5.016289763E-2,6.730676143E0,1.468507980E1,1.615413527E1
7.687129958E0,1.407610164E0,5.936845867E0,1.334445241E1,1.467316992E1
7.697093958E0,2.257021441E0,4.930812533E0,1.044491640E1,1.176874406E1
7.707057958E0,2.494895237E0,3.731092520E0,6.629380149E0,8.005887508E0
7.717022958E0,2.344103001E0,2.342702739E0,2.750070652E0,4.306502478E0
7.726986958E0,1.713686030E0,8.559943646E-1,-5.694650102E-1,1.998433526E0
7.736950958E0,9.694781493E-1,-6.821864641E-1,-3.183094978E0,3.396668940E0
7.746915958E0,3.458145663E-1,-2.136958516E0,-5.343337691E0,5.765191852E0
7.756879958E0,-1.842929084E-1,-3.291821614E0,-7.233646617E0,7.949572114E0
7.766843958E0,-5.956223101E-1,-4.036552235E0,-8.852006221E0,9.747129527E0
7.776808958E0,-6.712624034E-1,-4.438246595E0,-1.008196803E1,1.103606386E1
7.786772958E0,-4.732650468E-1,-4.465261316E0,-1.091543249E1,1.180293205E1
7.796736958E0,-4.467923261E-2,-4.364996771E0,-1.132521238E1,1.213736497E1
7.806701958E0,3.142548046E-1,-4.303485231E0,-1.155315556E1,1.233264548E1
7.816665958E0,3.634792606E-1,-4.315015356E0,-1.173084543E1,1.250456753E1
7.826629958E0,2.038538365E-1,-4.386727948E0,-1.158954395E1,1.239364625E1
7.836594958E0,-6.965749634E-2,-4.578039488E0,-1.114650393E1,1.205022189E1
7.846558958E0,-3.391230858E-1,-4.810980865E0,-1.065771295E1,1.169817878E1
7.856522958E0,-5.835847203E-1,-4.954154618E0,-1.039573430E1,1.153063358E1
7.866487958E0,-6.836397164E-1,-5.210157414E0,-1.024567721E1,1.151464307E1
7.876451958E0,-7.282719520E-1,-5.583977512E0,-9.883132296E0,1.137486215E1
7.886415958E0,-7.401934015E-1,-5.897123392E0,-9.234466165E0,1.098177198E1
7.896380958E0,-7.482512301E-1,-6.129030397E0,-8.643476384E0,1.062236214E1
7.906344958E0,-9.137478983E-1,-6.237426081E0,-8.156322044E0,1.030854057E1
7.916308958E0,-1.112026250E0,-6.060365374E0,-7.451363599E0,9.668890853E0
7.926273958E0,-1.008571317E0,-5.707494680E0,-6.636265830E0,8.810944092E0
7.936237958E0,-9.441727886E-1,-4.960968964E0,-6.005405055E0,7.846500187E0
7.946201958E0,-1.084209730E0,-3.893984254E0,-5.337496322E0,6.695333532E0
7.956166958E0,-1.427423601E0,-2.650313644E0,-4.633390401E0,5.525396561E0
7.966130958E0,-1.706124703E0,-1.046603070E0,-3.271870914E0,3.835541522E0
7.976095958E0,-1.736693362E0,8.695563966E-1,-1.195607082E0,2.280725422E0
7.986059958E0,-1.476796320E0,2.350237461E0,9.707331079E-1,2.940555434E0
7.996023958E0,-1.136274873E0,2.844898456E0,3.169884948E0,4.408257978E0
8.005988958E0,-8.850383618E-1,2.688274646E0,5.798915897E0,6.452715634E0
8.015952958E0,-9.054812510E-1,2.697282574E0,9.450586857E0,9.869590747E0
8.025916958E0,-4.494773310E-1,3.103400937E0,1.369550053E1,1.404990612E1
8.035881958E0,8.139710104E-1,3.731921363E0,1.718348863E1,1.760289940E1
8.045845958E0,2.398125134E0,4.376974792E0,1.859000829E1,1.924830695E1
8.055809958E0,3.636001591E0,4.660681695E0,1.832954289E1,1.925914339E1
8.065774958E0,3.398541193E0,4.824157566E0,1.726240733E1,1.824317092E1
8.075738958E0,2.284738413E0,5.109631498E0,1.595824903E1,1.691135937E1
8.085702958E0,1.556412593E0,5.284574928E0,1.479943964E1,1.579153463E1
8.095667958E0,1.033809947E0,5.406685256E0,1.349709281E1,1.457643724E1
8.105631958E0,2.554267536E-1,5.562725222E0,1.215478727E1,1.336966747E1
8.115595958E0,-4.623112019E-1,5.526645563E0,1.162681761E1,1.288178678E1
8.125560958E0,-5.599452680E-1,5.094681337E0,1.123883497E1,1.235235719E1
8.135524958E0,1.104818241E-1,4.509768568E0,9.997889750E0,1.096850118E1
8.145488958E0,1.117808269E0,3.976855087E0,7.964952616E0,8.972476909E0
8.155453958E0,1.765373662E0,3.387180930E0,5.205779019E0,6.456754139E0
8.165417958E0,1.959263971E0,2.520087381E0,1.758945379E0,3.644646013E0
8.175381958E0,1.718673559E0,1.466164767E0,-1.722067575E0,2.840597588E0
8.185346958E0,9.544541672E-1,4.010418105E-1,-4.780273043E0,4.891096774E0
8.195310958E0,1.638246021E-1,-7.928689939E-1,-6.701546484E0,6.750274440E0
8.205274958E0,-1.401647302E-1,-2.027150145E0,-7.447782179E0,7.720002801E0
8.215239958E0,-8.200126095E-4,-3.097438531E0,-7.739091632E0,8.335926188E0
8.225203958E0,1.911453883E-1,-3.895389340E0,-8.236620687E0,9.113315259E0
8.235167958E0,3.213666268E-1,-4.466448301E0,-8.905758505E0,9.968198006E0
8.245132958E0,2.197866403E-1,-4.958558741E0,-9.491664716E0,1.071108351E1
8.255096958E0,1.432378988E-1,-5.405764319E0,-9.407036794E0,1.085058276E1
8.265060958E0,5.875417504E-2,-5.716125755E0,-8.564554760E0,1.029704540E1
8.275025958E0,-5.999047286E-2,-5.857164105E0,-7.691987048E0,9.668331550E0
8.284989958E0,-1.086517004E-1,-5.876368116E0,-7.408784759E0,9.456933913E0
8.294953958E0,-3.008524016E-1,-5.875932498E0,-7.624956322E0,9.631046350E0
8.304918958E0,-5.391484395E-1,-5.789165080E0,-8.287721844E0,1.012380594E1
8.314882958E0,-5.899426172E-1,-5.612569812E0,-9.165890604E0,1.076394550E1
8.324846083E0,-4.650667754E-1,-5.373636208E0,-9.893239793E0,1.126802764E1
8.334811083E0,-4.149054126E-1,-5.333741241E0,-1.003164690E1,1.136903169E1
8.344775083E0,-4.799649327E-1,-5.403314921E0,-9.496500363E0,1.093662186E1
8.354739083E0,-5.244999218E-1,-5.512172534E0,-8.639178681E0,1.026131349E1
8.364704083E0,-4.796008339E-1,-5.718461718E0,-7.462079791E0,9.413472058E0
8.374668083E0,-5.542644422E-1,-5.802021353E0,-5.961395987E0,8.337199948E0
8.384632083E0,-6.618973567E-1,-5.560529593E0,-4.759548172E0,7.349210588E0
8.394597083E0,-6.986917651E-1,-5.023641175E0,-4.156811335E0,6.557760389E0
8.404561083E0,-6.677103661E-1,-4.033691778E0,-4.236800076E0,5.887867302E0
8.414526083E0,-5.987950824E-1,-2.429617506E0,-4.583168081E0,5.221783837E0
8.424490083E0,-8.225216863E-1,-4.954135323E-1,-4.896513936E0,4.989772061E0
8.434454083E0,-1.041984647E0,1.022259357E0,-4.362135728E0,4.599888510E0
8.444418083E0,-8.510544907E-1,1.845819216E0,-2.107818916E0,2.928180819E0
8.454383083E0,3.352749236E-1,2.032962277E0,1.379278650E0,2.479466573E0
8.464347083E0,2.180366344E0,2.213744152E0,5.698924416E0,6.490947548E0
8.474312083E0,3.429084417E0,3.140944154E0,1.013773293E1,1.115337523E1
8.484276083E0,3.389386500E0,4.671816548E0,1.294298259E1,1.417161278E1
8.494240083E0,2.718819038E0,5.659555698E0,1.250501093E1,1.399277835E1
8.504205083E0,2.030006802E0,5.587856555E0,1.021570672E1,1.181971794E1
8.514169083E0,1.562082492E0,5.847353062E0,8.866597363E0,1.073537090E1
8.524133083E0,1.563272547E0,6.672613876E0,9.219068692E0,1.148733322E1
8.534098083E0,1.820952616E0,7.360188550E0,1.053853968E1,1.298264467E1
8.544062083E0,1.749203041E0,7.458929311E0,1.160548814E1,1.390621058E1
8.554026083E0,1.563718689E0,7.029610950E0,1.292186010E1,1.479307658E1
8.563991083E0,1.459341212E0,6.684343976E0,1.424114866E1,1.579938120E1
8.573955083E0,1.797441693E0,6.416893501E0,1.527669172E1,1.666687220E1
8.583919083E0,2.610796407E0,5.996017351E0,1.535146007E1,1.668639590E1
8.593884083E0,3.236762185E0,5.236045961E0,1.358733990E1,1.491672258E1
8.603848083E0,2.918401758E0,4.471215536E0,1.050135373E1,1.178080079E1
8.613812083E0,2.265797527E0,3.904875863E0,7.217373231E0,8.513070556E0
8.623777083E0,1.688849835E0,3.472316098E0,3.949532803E0,5.523404947E0
8.633741083E0,1.272646925E0,2.891762720E0,6.130022085E-1,3.218337076E0
8.643705083E0,1.014943028E0,2.025400950E0,-2.809738564E0,3.609292058E0
8.653670083E0,5.682611416E-1,9.282185876E-1,-5.867048239E0,5.967140480E0
8.663634083E0,-7.935592577E-2,-3.210273421E-1,-8.074807180E0,8.081575769E0
8.673598083E0,-6.183111879E-1,-1.671933548E0,-9.319669452E0,9.488619985E0
8.683563083E0,-1.139398309E0,-3.032784113E0,-9.916022884E0,1.043185112E1
8.693527083E0,-1.503601857E0,-4.239016755E0,-1.017151697E1,1.112159337E1
8.703491083E0,-1.604021062E0,-5.278629479E0,-1.015767076E1,1.155919928E1
8.713456083E0,-1.545604015E0,-6.058593668E0,-9.622510784E0,1.147554630E1
8.723420083E0,-1.554281429E0,-6.539271047E0,-8.927394372E0,1.117480321E1
8.733384083E0,-1.664568687E0,-6.769870614E0,-8.524317731E0,1.101208109E1
8.743349083E0,-1.782236593E0,-6.753348137E0,-8.643707934E0,1.111295484E1
8.753313083E0,-1.751647616E0,-6.546877105E0,-9.323556097E0,1.152642909E1
8.763277083E0,-1.583013770E0,-6.077359137E0,-1.052904965E1,1.225973545E1
8.773242083E0,-1.285081906E0,-5.377065600E0,-1.164473582E1,1.289046711E1
8.783206083E0,-7.896487860E-1,-4.675103853E0,-1.202321089E1,1.292430815E1
8.793170083E0,-3.824411597E-1,-4.161105530E0,-1.140016199E1,1.214185957E1
8.803135083E0,-1.903988268E-1,-3.899615707E0,-1.016461024E1,1.088864343E1
8.813099083E0,-2.613766427E-1,-3.817499165E0,-8.392800987E0,9.223921402E0
8.823063083E0,-4.996302518E-1,-3.706885925E0,-6.117682121E0,7.170541693E0
8.833028083E0,-4.841965992E-1,-3.294405206E0,-4.038796982E0,5.234446778E0
8.842992083E0,-2.740524926E-1,-2.464992576E0,-2.652570085E0,3.631448915E0
8.852956083E0,1.122085800E-1,-1.148042029E0,-2.240965279E0,2.520419935E0
8.862921083E0,7.128434157E-1,4.143030033E-1,-2.234734486E0,2.381980466E0
8.872885083E0,1.175078092E0,1.738072866E0,-1.214473708E0,2.424180727E0
8.882849083E0,1.920643258E0,2.296125573E0,1.551168079E0,3.371525705E0
8.892814083E0,2.646931907E0,2.226135863E0,5.944333227E0,6.877283396E0
8.902778083E0,2.890226364E0,2.255023155E0,1.077813051E1,1.138449099E1
8.912742083E0,2.912733759E0,2.875020680E0,1.447949053E1,1.504677400E1
8.922707083E0,2.973688059E0,3.882143642E0,1.602504996E1,1.675458403E1
8.932671083E0,2.792796841E0,4.775302325E0,1.534318041E1,1.631000955E1
8.942636083E0,2.361226718E0,5.205403628E0,1.360591651E1,1.475779735E1
8.952600083E0,2.344536425E0,5.474583124E0,1.223551159E1,1.360792620E1
8.962564083E0,2.230923125E0,5.768819693E0,1.163919032E1,1.318055575E1
8.972529083E0,1.704658075E0,6.132594275E0,1.210511400E1,1.367656232E1
8.982493083E0,1.270959711E0,6.034638795E0,1.242818904E1,1.387415175E1
8.992457083E0,8.122690322E-1,5.646042198E0,1.172531396E1,1.303919326E1
9.002422083E0,6.596477866E-2,5.331562568E0,1.080710464E1,1.205086808E1
9.012386083E0,-4.857958492E-1,4.795812896E0,1.013833051E1,1.122593268E1
9.022350083E0,-5.627871244E-1,4.196452241E0,9.082437388E0,1.002085873E1
9.032315083E0,-5.320024111E-1,3.674594091E0,7.227059144E0,8.125026287E0
9.042279083E0,-5.368598759E-1,3.075183443E0,4.794038558E0,5.720819647E0
9.052243083E0,-6.412208712E-1,2.331692139E0,2.213896179E0,3.278610793E0
9.062208083E0,-8.751930394E-1,1.589933073E0,-2.281384742E-1,1.829179378E0
9.072172083E0,-9.563999744E-1,9.016041085E-1,-2.471433869E0,2.799209933E0
9.082136083E0,-7.753978059E-1,1.295108566E-1,-4.502744308E0,4.570855622E0
9.092101083E0,-5.083300316E-1,-6.085016066E-1,-5.960426518E0,6.012932555E0
9.102065083E0,-8.168374800E-2,-1.282373330E0,-6.928016748E0,7.046174114E0
9.112029083E0,2.049963458E-1,-1.795627302E0,-7.678107512E0,7.887942436E0
9.121994083E0,4.543001876E-1,-2.307227974E0,-8.143062898E0,8.475798661E0
9.131958083E0,7.384327318E-1,-2.990478046E0,-8.316600657E0,8.868714018E0
9.141922083E0,9.143679225E-1,-3.741024309E0,-7.878468204E0,8.769355325E0
9.151887083E0,9.578195322E-1,-4.354381735E0,-7.240798346E0,8.503365172E0
9.161851083E0,8.350689340E-1,-4.799033834E0,-6.920072136E0,8.462592052E0
9.171815083E0,6.787002079E-1,-5.043638653E0,-6.981755583E0,8.639666420E0
9.181780083E0,6.651284549E-1,-5.134849954E0,-7.307818547E0,8.956187349E0
9.191744083E0,7.727200735E-1,-5.101596839E0,-7.888659900E0,9.426258093E0
9.201708083E0,9.760570709E-1,-4.911934798E0,-8.664947945E0,1.000805245E1
9.211673083E0,1.105896395E0,-4.734977587E0,-9.315069448E0,1.050778466E1
9.221637083E0,1.186234726E0,-4.763652332E0,-9.632955666E0,1.081172379E1
9.231601083E0,1.104375753E0,-4.930235413E0,-9.563427009E0,1.081600680E1
9.241566083E0,8.173020230E-1,-5.112433484E0,-8.882266731E0,1.028103210E1
9.251530083E0,5.718177105E-1,-5.250372809E0,-7.844878873E0,9.457035194E0
9.261494083E0,2.376613958E-1,-5.271305256E0,-6.981908780E0,8.751582272E0
9.271459083E0,-1.841296614E-1,-5.064850012E0,-6.255250733E0,8.050762145E0
9.281423083E0,-5.234291870E-1,-4.518303748E0,-5.458087544E0,7.104911436E0
9.291387083E0,-9.013561866E-1,-3.474423142E0,-5.029494823E0,6.178986755E0
9.301352083E0,-1.193878791E0,-2.210773181E0,-5.159042224E0,5.738343080E0
9.311316083E0,-9.180151963E-1,-8.294597000E-1,-4.880159274E0,5.034551602E0
9.321281083E0,1.609878071E-1,4.066370112E-1,-4.050478549E0,4.074021012E0
9.331246083E0,1.641056156E0,1.064354632E0,-1.828051867E0,2.677254138E0
9.341210083E0,3.218023613E0,1.301374442E0,2.952359755E0,4.556937517E0
9.351174083E0,4.356744595E0,1.348534575E0,9.202400619E0,1.027053777E1
9.361139083E0,4.671550792E0,1.492297727E0,1.415518874E1,1.498064443E1
9.371103083E0,4.499761058E0,1.900593594E0,1.605987246E1,1.678629230E1
9.381067083E0,4.495208708E0,2.356637823E0,1.483452878E1,1.567877187E1
9.391032083E0,4.601317254E0,2.998069779E0,1.271646847E1,1.385168268E1
9.400996083E0,4.742571951E0,3.891067078E0,1.181119202E1,1.330926927E1
9.410960083E0,4.413402653E0,4.787399045E0,1.215610640E1,1.379014994E1
9.420925083E0,3.618107942E0,5.542938244E0,1.275022094E1,1.436603645E1
9.430889083E0,2.876877171E0,6.082990590E0,1.264635801E1,1.432513762E1
9.440854083E0,2.768110774E0,6.534066440E0,1.219025414E1,1.410527410E1
9.450818083E0,3.399314780E0,6.627301463E0,1.168175922E1,1.385423993E1
9.460782083E0,3.960857105E0,6.227553642E0,1.069171568E1,1.299167416E1
9.470747083E0,3.625671608E0,5.532200418E0,9.025819384E0,1.119000231E1
9.480711083E0,2.494700232E0,4.906585180E0,7.069318222E0,8.959540586E0
9.490675083E0,1.377371289E0,4.481710703E0,4.982507182E0,6.841656255E0
9.500640083E0,7.055199974E-1,4.096285052E0,2.851514581E0,5.040679031E0
9.510604083E0,3.991165782E-1,3.643603556E0,6.022035706E-1,3.714537664E0
9.520568083E0,4.979609814E-1,3.063530527E0,-1.491845738E0,3.443659120E0
9.530533083E0,5.939104646E-1,2.093332440E0,-2.957404733E0,3.671649915E0
9.540497083E0,2.391691735E-1,8.424826187E-1,-3.791529341E0,3.891358838E0
9.550461083E0,-3.622856977E-1,-3.291216427E-1,-4.486645753E0,4.513265126E0
9.560426083E0,-9.943527163E-1,-1.367381321E0,-5.581338079E0,5.831792499E0
9.570390083E0,-1.380320186E0,-2.327439167E0,-6.825167148E0,7.342013586E0
9.580354083E0,-1.434411462E0,-3.195119777E0,-7.562181784E0,8.333841849E0
9.590319083E0,-1.433507775E0,-4.089309323E0,-7.491740962E0,8.654685316E0
9.600283083E0,-1.379236258E0,-4.852719460E0,-6.596705323E0,8.304679400E0
9.610247083E0,-1.233828576E0,-5.441089103E0,-5.566005510E0,7.880875644E0
9.620212083E0,-1.008587544E0,-6.009575289E0,-5.202933764E0,8.012662712E0
9.630176083E0,-9.136630406E-1,-6.466163895E0,-5.614218142E0,8.611939445E0
9.640140083E0,-7.979876465E-1,-6.769525629E0,-6.591998899E0,9.482494978E0
9.650105083E0,-6.416803162E-1,-6.781873779E0,-7.605141862E0,1.020998278E1
9.660069083E0,-5.903083605E-1,-6.499602951E0,-8.668007793E0,1.085023786E1
9.670033083E0,-2.471186824E-1,-6.361028033E0,-9.508502358E0,1.144269909E1
9.679998083E0,1.685149278E-1,-6.401867326E0,-9.790375575E0,1.169887843E1
9.689962083E0,2.282324682E-1,-6.338617410E0,-9.394431952E0,1.133514501E1
9.699926083E0,2.150095747E-1,-6.235257348E0,-8.451590062E0,1.050495302E1
9.709891083E0,1.759827724E-1,-6.172869312E0,-7.641157202E0,9.824590010E0
9.719855083E0,-1.632893443E-2,-5.935033815E0,-7.182798060E0,9.317589870E0
9.729819083E0,-1.040956414E-1,-5.499724982E0,-6.585772784E0,8.580804970E0
9.739784083E0,3.422251068E-2,-4.949120750E0,-5.835576185E0,7.651726393E0
9.749748083E0,2.746147024E-1,-4.080015759E0,-5.614887064E0,6.946142711E0
9.759712083E0,5.429604587E-1,-2.832309986E0,-6.212268435E0,6.849019275E0
9.769677083E0,7.560431566E-1,-1.439769266E0,-6.590006753E0,6.787689282E0
9.779641083E0,9.095292053E-1,-2.388067192E-1,-5.380661638E0,5.462214907E0
9.789605083E0,1.242275172E0,4.680509019E-1,-2.452519881E0,2.788758328E0
9.799570083E0,1.760071845E0,5.796040821E-1,1.885691380E0,2.643790040E0
9.809534083E0,1.883842344E0,5.905196643E-1,6.800944473E0,7.081696207E0
9.819498083E0,1.280483071E0,1.137716723E0,9.866846631E0,1.001442453E1
9.829463083E0,6.138673771E-1,2.026320425E0,1.010647722E1,1.032587476E1
9.839427083E0,1.891379113E-1,2.970242879E0,9.428079169E0,9.886697767E0
9.849391083E0,-2.388708558E-1,4.072589210E0,9.731307002E0,1.055184240E1
9.859356083E0,-1.453624024E-1,5.082306290E0,1.156634454E1,1.263452783E1
9.869320083E0,3.220587909E-1,5.521095386E0,1.418848513E1,1.522824108E1
9.879284083E0,6.733580455E-1,5.596473597E0,1.745295522E1,1.834065358E1
9.889249083E0,1.066108212E0,5.904487376E0,2.077923857E1,2.162813708E1
9.899213083E0,1.684259771E0,6.662066669E0,2.279570234E1,2.380890398E1
9.909177083E0,1.873315456E0,7.566178356E0,2.232236322E1,2.364411693E1
9.919142083E0,1.366310988E0,8.072981679E0,1.961254129E1,2.125303778E1
9.929106083E0,7.359717118E-1,8.260382602E0,1.593638979E1,1.796507987E1
9.939070083E0,3.033391493E-1,8.118418638E0,1.188214096E1,1.439395740E1
9.949035083E0,-2.287856148E-1,7.495853893E0,8.149999450E0,1.107531758E1
9.958999083E0,-7.830817781E-1,6.464940072E0,4.911954094E0,8.156957780E0
9.968964083E0,-1.084512031E0,5.037645257E0,2.208496276E0,5.606379569E0
9.978928083E0,-1.305114467E0,3.387344652E0,-1.341789812E-1,3.632551660E0
9.988892083E0,-1.573519354E0,1.605008656E0,-2.031380020E0,3.029607356E0
9.998857083E0,-1.943236460E0,-2.621558207E-1,-3.506177616E0,4.017234757E0
1.000882108E1,-2.038157967E0,-2.038923513E0,-4.523648103E0,5.364204429E0
1.001878508E1,-1.895787329E0,-3.664039575E0,-5.267576487E0,6.690781542E0
1.002875008E1,-1.637435853E0,-5.007941401E0,-6.003671356E0,7.987787115E0
1.003871408E1,-1.279145375E0,-5.976061388E0,-6.991355542E0,9.285934251E0
1.004867808E1,-9.390529666E-1,-6.531063895E0,-8.443018044E0,1.071546405E1
1.005864308E1,-4.703164787E-1,-6.814093106E0,-9.798520746E0,1.194420660E1
1.006860708E1,3.542192079E-2,-7.082441713E0,-1.041399165E1,1.259418348E1
1.007857108E1,2.943216464E-1,-7.374596674E0,-1.045784811E1,1.279991751E1
1.008853608E1,4.149650542E-1,-7.720678166E0,-1.035608083E1,1.292398845E1
1.009850008E1,3.953789283E-1,-8.023078617E0,-1.033368365E1,1.308858788E1
1.010846408E1,3.098347481E-1,-8.204609520E0,-1.033296210E1,1.319779227E1
1.011842908E1,1.891103563E-1,-8.229174258E0,-1.036006746E1,1.323200927E1
1.012839308E1,3.846824706E-2,-8.076486501E0,-1.039238619E1,1.316179337E1
1.013835708E1,-9.534031302E-2,-7.869538921E0,-1.021799415E1,1.289752445E1
1.014832208E1,6.582035244E-2,-7.667719349E0,-1.018272959E1,1.274700884E1
1.015828608E1,2.774749410E-1,-7.386250759E0,-1.010422955E1,1.251915123E1
1.016825008E1,4.323365472E-1,-7.057989242E0,-9.299286059E0,1.168241620E1
1.017821508E1,4.752258740E-1,-6.617606195E0,-8.038904107E0,1.042317277E1
1.018817908E1,2.788741797E-1,-6.124898170E0,-6.742947695E0,9.113698042E0
1.019814308E1,-1.428601230E-1,-5.464125379E0,-5.673450437E0,7.878141597E0
1.020810808E1,-2.364086299E-1,-4.547245127E0,-5.018604968E0,6.776409308E0
1.021807208E1,-2.765643834E-1,-3.296353206E0,-4.886901698E0,5.901206701E0
1.022803608E1,-5.311220397E-1,-1.858408272E0,-4.678797539E0,5.062303659E0
1.023800108E1,-9.125625215E-1,-3.617362422E-1,-2.955207349E0,3.113980401E0
1.024796508E1,-1.335576122E0,1.390733930E0,1.604856044E-1,1.934854018E0
1.025792908E1,-1.463414529E0,2.898663604E0,3.164902536E0,4.534362230E0
1.026789408E1,-1.339639498E0,3.682200442E0,5.833379971E0,7.027201147E0
1.027785808E1,-1.154620804E0,4.001563082E0,9.649424933E0,1.050985527E1
1.028782208E1,-9.022490564E-1,4.274031344E0,1.423797947E1,1.489300026E1
1.029778708E1,-8.042897755E-1,4.579753599E0,1.825915177E1,1.884191202E1
1.030775108E1,-3.197078448E-2,5.198440179E0,2.167218091E1,2.228695196E1
1.031771508E1,9.541599061E-1,6.228624852E0,2.304012765E1,2.388626532E1
1.032767958E1,1.243603367E0,7.459094787E0,2.143152354E1,2.272652296E1
1.033764358E1,1.179816237E0,8.879296346E0,1.827874930E1,2.035550407E1
1.034760758E1,1.200886240E0,1.029795716E1,1.522523622E1,1.842003984E1
1.035757258E1,1.204433088E0,1.096581093E1,1.325857553E1,1.724788374E1
1.036753658E1,1.124798031E0,1.066676561E1,1.214720928E1,1.620492988E1
1.037750058E1,9.776209087E-1,9.682110869E0,1.129152306E1,1.490629084E1
1.038746558E1,1.143673209E0,8.454945195E0,1.023064402E1,1.332141748E1
1.039742958E1,1.493847824E0,7.040061679E0,8.706615788E0,1.129598195E1
1.040739358E1,1.547852416E0,5.458988600E0,6.742377006E0,8.812267094E0
1.041735858E1,9.460567615E-1,3.778784458E0,4.264336953E0,5.775708184E0
1.042732258E1,1.422691522E-2,1.855029166E0,1.538765550E0,2.410214727E0
1.043728658E1,-8.957340887E-1,5.343419552E-2,-1.004082118E0,1.346616378E0
1.044725158E1,-1.583357294E0,-1.459234647E0,-3.322396120E0,3.959128951E0
1.045721558E1,-1.823474666E0,-2.835539988E0,-5.088748167E0,6.104154715E0
1.046718058E1,-1.715518693E0,-4.036194971E0,-6.158736007E0,7.560681413E0
1.047714458E1,-1.515094267E0,-5.204238278E0,-6.945956590E0,8.810557283E0
1.048710858E1,-1.385937459E0,-6.154374568E0,-7.819125981E0,1.004668503E1
1.049707358E1,-1.227002683E0,-6.886093966E0,-8.677594888E0,1.114560356E1
1.050703758E1,-1.117560494E0,-7.429702004E0,-9.251091553E0,1.191772244E1
1.051700158E1,-1.041046826E0,-7.869485126E0,-9.604599009E0,1.246037306E1
1.052696658E1,-8.350144087E-1,-8.326958415E0,-9.847322778E0,1.292305116E1
1.053693058E1,-5.749407084E-1,-8.755347068E0,-1.000515901E1,1.330751163E1
1.054689458E1,-2.625699498E-1,-8.978642294E0,-1.020358193E1,1.359404446E1
1.055685958E1,-1.118490493E-1,-8.968171685E0,-1.044066665E1,1.376401590E1
1.056682358E1,-5.413746938E-2,-8.933683637E0,-1.079977924E1,1.401602176E1
1.057678758E1,-6.365293577E-2,-8.839860384E0,-1.132575383E1,1.436731997E1
1.058675258E1,-2.718778400E-1,-8.635828226E0,-1.173047939E1,1.456899425E1
1.059671658E1,-4.304395643E-1,-8.368170760E0,-1.192178976E1,1.457191241E1
1.060668058E1,-6.508993287E-1,-8.236140631E0,-1.157836174E1,1.422378792E1
1.061664558E1,-8.472899070E-1,-8.286835406E0,-1.042475520E1,1.334410215E1
1.062660958E1,-1.121779406E0,-8.321691828E0,-9.037844183E0,1.233659481E1
1.063657358E1,-1.607684927E0,-8.151236721E0,-7.647666907E0,1.129221502E1
1.064653858E1,-2.300374745E0,-7.451963523E0,-6.668408559E0,1.026114794E1
1.065650258E1,-2.919117165E0,-6.380217426E0,-6.401399549E0,9.497701596E0
1.066646658E1,-3.420043159E0,-5.079476822E0,-6.371799774E0,8.837285350E0
1.067643158E1,-3.512520091E0,-3.522260383E0,-6.278066568E0,8.009883609E0
1.068639558E1,-3.202685197E0,-1.840045091E0,-5.277212698E0,6.441423156E0
1.069635958E1,-2.784601676E0,-3.968125194E-1,-2.495175903E0,3.759969343E0
1.070632458E1,-1.788156899E0,3.573748040E-1,2.626315502E0,3.197304327E0
1.071628858E1,-1.515871654E-1,8.625262892E-1,9.026226350E0,9.068610279E0
1.072625258E1,1.758857963E0,1.669561332E0,1.527518431E1,1.546648868E1
1.073621758E1,3.177563512E0,3.240061476E0,1.967370317E1,2.019033196E1
1.074618158E1,4.247714196E0,5.207655975E0,2.111858758E1,2.216207341E1
1.075614558E1,4.584626084E0,7.165055269E0,2.001854154E1,2.175083490E1
1.076611058E1,4.053806199E0,8.979847405E0,1.788477794E1,2.041901776E1
1.077607458E1,3.546023760E0,1.075996087E1,1.649707930E1,2.001261272E1
1.078603858E1,3.520108900E0,1.189531942E1,1.592268392E1,2.018468860E1
1.079600358E1,3.550387829E0,1.246113693E1,1.626742874E1,2.079698116E1
1.080596758E1,3.555815507E0,1.247841429E1,1.674932585E1,2.118713202E1
1.081593158E1,3.371517117E0,1.158766816E1,1.656296924E1,2.049324599E1
1.082589658E1,2.813113869E0,1.009069325E1,1.538673281E1,1.861416790E1
1.083586058E1,2.158466037E0,8.511732184E0,1.348797232E1,1.609453192E1
1.084582458E1,1.666301510E0,7.278459678E0,1.097634878E1,1.327526906E1
1.085578958E1,1.502655047E0,6.310068380E0,7.998425002E0,1.029804533E1
1.086575358E1,1.598409196E0,5.475603463E0,4.961434987E0,7.559959151E0
1.087571758E1,1.884893527E0,4.412323257E0,2.354539257E0,5.344649217E0
1.088568258E1,2.172535315E0,3.123090266E0,2.563197148E-1,3.813043705E0
1.089564658E1,2.443379513E0,1.698900029E0,-1.614760643E0,3.385825850E0
1.090561058E1,2.719943458E0,2.252581358E-1,-3.170250399E0,4.183219004E0
1.091557558E1,2.927595627E0,-1.169662401E0,-4.540520829E0,5.527680860E0
1.092553958E1,3.078056765E0,-2.378015243E0,-5.829599161E0,7.008110753E0
1.093550358E1,3.237569685E0,-3.613075243E0,-6.940916875E0,8.468323166E0
1.094546858E1,3.193490158E0,-4.844976577E0,-7.858183043E0,9.768480852E0
1.095543258E1,2.960809566E0,-5.966239820E0,-8.562921633E0,1.084831958E1
1.096539658E1,2.674360319E0,-6.969826094E0,-9.009450104E0,1.170046452E1
1.097536158E1,2.250758050E0,-7.729699250E0,-9.509306935E0,1.245957787E1
1.098532558E1,1.882229097E0,-8.256449180E0,-1.013610857E1,1.320804438E1
1.099528958E1,1.555178392E0,-8.633289950E0,-1.075403297E1,1.387809426E1
1.100525458E1,1.264012050E0,-8.866233081E0,-1.141023557E1,1.450521601E1
1.101521858E1,1.117653903E0,-8.946099030E0,-1.211467303E1,1.510122978E1
1.102518358E1,1.104681270E0,-9.003879461E0,-1.264017400E1,1.555841138E1
1.103514758E1,1.033408243E0,-9.191404930E0,-1.283659133E1,1.582175509E1
1.104511158E1,9.555965669E-1,-9.390627168E0,-1.248245471E1,1.564955971E1
1.105507658E1,6.972408517E-1,-9.414899545E0,-1.184430948E1,1.514642351E1
1.106504058E1,5.619000287E-1,-9.424096046E0,-1.106157078E1,1.454261552E1
1.107500458E1,1.335102059E-1,-9.270026591E0,-1.022054704E1,1.379894198E1
1.108496958E1,-5.461892912E-1,-8.830223588E0,-9.600093729E0,1.305499793E1
1.109493358E1,-1.242411412E0,-8.107080302E0,-9.351718626E0,1.243876917E1
1.110489758E1,-1.863301222E0,-7.151561065E0,-9.195933598E0,1.179753838E1
1.111486258E1,-2.617719803E0,-6.104715920E0,-8.922675669E0,1.112358551E1
1.112482658E1,-3.264526227E0,-4.936618819E0,-8.439962874E0,1.030826417E1
1.113479058E1,-3.637178928E0,-3.592560872E0,-7.528004808E0,9.099803326E0
1.114475558E1,-3.754553304E0,-2.264427232E0,-6.226619841E0,7.615451126E0
1.115471958E1,-3.527812314E0,-1.334490148E0,-3.981520581E0,5.484416998E0
1.116468358E1,-3.304290801E0,-7.081741217E-1,-5.041656446E-1,3.416728155E0
1.117464858E1,-2.940699822E0,-2.902011135E-1,4.722734102E0,5.571009741E0
1.118461258E1,-2.430831681E0,2.247315940E-1,1.097156342E1,1.123986881E1
1.119457658E1,-2.091406367E0,9.070844114E-1,1.590897220E1,1.607147097E1
1.120454158E1,-1.683426835E0,1.689114422E0,1.811659315E1,1.827287555E1
1.121450558E1,-1.435837598E0,2.850373204E0,1.859889371E1,1.887074732E1
1.122446958E1,-1.661747113E0,4.125496572E0,1.864950020E1,1.917250591E1
1.123443458E1,-1.992320912E0,4.955131688E0,1.914134810E1,1.987244020E1
1.124439858E1,-2.159610337E0,5.363767862E0,2.042420265E1,2.122691632E1
1.125436258E1,-1.736106447E0,5.353469746E0,2.191798148E1,2.262899945E1
1.126432758E1,-5.998346443E-1,5.174318075E0,2.317302083E1,2.375125815E1
1.127429158E1,7.376178492E-1,4.812161711E0,2.340238605E1,2.390340255E1
1.128425558E1,1.769869732E0,4.306108585E0,2.238465244E1,2.286367588E1
1.129422058E1,2.408839279E0,3.858629357E0,2.024833244E1,2.075298759E1
1.130418458E1,2.881119326E0,3.362135552E0,1.721540858E1,1.777568836E1
1.131414858E1,3.350049357E0,2.933844839E0,1.353637323E1,1.425004128E1
1.132411396E1,3.933902903E0,2.606051391E0,9.498997709E0,1.060650995E1
1.133407796E1,4.908047569E0,2.147764463E0,5.440079289E0,7.635200442E0
1.134404196E1,5.719513047E0,1.524383154E0,1.727722417E0,6.166165603E0
1.135400696E1,5.820236015E0,8.444762269E-1,-1.457022645E0,6.058977005E0
1.136397096E1,5.511723468E0,-1.210367793E-1,-3.799831803E0,6.695705133E0
1.137393496E1,5.327461331E0,-1.215764188E0,-5.611124380E0,7.832282145E0
1.138389996E1,5.076896446E0,-2.296350983E0,-7.240759755E0,9.136558826E0
1.139386396E1,4.738147947E0,-3.337977780E0,-8.604921598E0,1.037481650E1
1.140382796E1,4.520766596E0,-4.306657931E0,-9.744180232E0,1.157297203E1
1.141379296E1,4.184365169E0,-5.025739741E0,-1.072413966E1,1.256081778E1
1.142375696E1,3.871854589E0,-5.576357421E0,-1.160923270E1,1.344846846E1
1.143372096E1,3.624834579E0,-6.017730401E0,-1.263877184E1,1.445998127E1
1.144368596E1,3.196414058E0,-6.163008567E0,-1.376890180E1,1.542019436E1
1.145364996E1,2.606667688E0,-6.052132494E0,-1.440154012E1,1.583753081E1
1.146361396E1,2.122706512E0,-6.021083779E0,-1.469867457E1,1.602530396E1
1.147357896E1,2.003602384E0,-6.250523844E0,-1.466707271E1,1.606880496E1
1.148354296E1,2.270664165E0,-6.444063174E0,-1.409670372E1,1.566521375E1
1.149350696E1,2.867634185E0,-6.494381388E0,-1.315369168E1,1.494723788E1
1.150347196E1,3.025757222E0,-6.609134749E0,-1.232427116E1,1.430816300E1
1.151343596E1,2.579132857E0,-6.828495383E0,-1.158205367E1,1.369029739E1
1.152340096E1,1.660943706E0,-7.181448523E0,-1.106390265E1,1.329443037E1
1.153336496E1,7.129254229E-1,-7.437905647E0,-1.046312463E1,1.285720343E1
1.154332896E1,-2.416347250E-1,-7.392145922E0,-9.454413275E0,1.200367190E1
1.155329396E1,-1.089022134E0,-7.140371248E0,-7.785127931E0,1.061974989E1
1.156325796E1,-1.985200904E0,-6.677871693E0,-5.798207799E0,9.063895777E0
1.157322196E1,-2.893132723E0,-5.771458542E0,-3.656303709E0,7.419468139E0
1.158318696E1,-3.583143931E0,-4.677668442E0,-1.858697124E0,6.178531984E0
1.159315096E1,-4.045596124E0,-3.417108734E0,-2.841325808E-1,5.303226511E0
1.160311496E1,-4.400933758E0,-2.064825509E0,1.734319246E0,5.161355013E0
1.161307996E1,-4.488880852E0,-7.760255045E-1,4.750801907E0,6.581974296E0
1.162304396E1,-4.876444538E0,7.943325520E-1,7.604117430E0,9.068256581E0
1.163300796E1,-5.825068738E0,2.750756238E0,9.499640318E0,1.147785920E1
1.164297296E1,-6.448138683E0,4.671223933E0,1.085994241E1,1.346614922E1
1.165293696E1,-6.050512816E0,6.212507586E0,1.224894849E1,1.500802102E1
1.166290096E1,-5.359654931E0,7.490563332E0,1.346795496E1,1.631625726E1
1.167286596E1,-4.927042249E0,8.263630146E0,1.495298869E1,1.778075362E1
1.168282996E1,-4.615207314E0,8.267250157E0,1.709642125E1,1.954316206E1
1.169279396E1,-4.306711725E0,7.708878484E0,1.916881715E1,2.110493128E1
1.170275896E1,-3.763036444E0,6.870128728E0,2.091650313E1,2.233515648E1
1.171272296E1,-3.039906022E0,5.961438671E0,2.263146809E1,2.360006626E1
1.172268696E1,-1.681440828E0,5.104660195E0,2.396116937E1,2.455651515E1
1.173265196E1,3.335688888E-1,4.335568611E0,2.375395340E1,2.414867958E1
1.174261596E1,2.006439307E0,3.795949836E0,2.122528523E1,2.165520184E1
1.175257996E1,3.301063431E0,3.347463133E0,1.678048683E1,1.742662524E1
1.176254496E1,4.083955613E0,2.918357904E0,1.135931217E1,1.241891619E1
1.177250896E1,4.308072957E0,2.384270302E0,5.637317567E0,7.484890569E0
1.178247296E1,4.440843928E0,1.695383806E0,8.735974073E-2,4.754266796E0
1.179243796E1,4.465967660E0,9.099048159E-1,-4.269802930E0,6.245319125E0
1.180240196E1,4.116760247E0,7.837812513E-2,-6.946210359E0,8.074880582E0
1.181236596E1,3.656656880E0,-1.108467489E0,-8.553829213E0,9.368448853E0
1.182233096E1,3.391535937E0,-2.447503554E0,-9.448051504E0,1.033239889E1
1.183229496E1,3.256088402E0,-3.711328931E0,-9.742275794E0,1.092190513E1
1.184225896E1,3.245059091E0,-4.924760081E0,-1.011731796E1,1.171084084E1
1.185222396E1,3.192011105E0,-5.808618767E0,-1.068113807E1,1.257042948E1
1.186218796E1,3.115904623E0,-6.364738677E0,-1.132485219E1,1.335930527E1
1.187215196E1,2.958933195E0,-6.830568806E0,-1.193178265E1,1.406340617E1
1.188211696E1,2.682230379E0,-7.231228209E0,-1.214355126E1,1.438578668E1
1.189208096E1,2.474156333E0,-7.387243032E0,-1.222995791E1,1.450050618E1
1.190204496E1,2.234235719E0,-7.442012147E0,-1.238117041E1,1.461741204E1
1.191200996E1,1.874042411E0,-7.452986201E0,-1.240549249E1,1.459298743E1
1.192197396E1,1.513780252E0,-7.473450286E0,-1.238086869E1,1.454062927E1
1.193193796E1,1.176755951E0,-7.348240349E0,-1.228124267E1,1.436002480E1
1.194190296E1,8.107544571E-1,-7.223492342E0,-1.206609203E1,1.408640271E1
1.195186696E1,3.823620030E-1,-7.142889059E0,-1.147298906E1,1.352022717E1
1.196183096E1,-5.797397375E-2,-7.017756890E0,-1.036098547E1,1.251408377E1
1.197179596E1,-5.449309704E-1,-6.929981997E0,-8.978717138E0,1.135512931E1
1.198175996E1,-1.080060984E0,-6.819994116E0,-7.559931775E0,1.023872160E1
1.199172496E1,-1.780878431E0,-6.429385493E0,-6.446138350E0,9.276918962E0
1.200168896E1,-2.515222498E0,-5.668370376E0,-5.843704399E0,8.520894791E0
1.201165296E1,-3.126978080E0,-4.710709888E0,-5.545691113E0,7.919814990E0
1.202161796E1,-3.355178534E0,-3.511678677E0,-4.726385103E0,6.777007177E0
1.203158196E1,-3.075843594E0,-2.088547078E0,-2.874153246E0,4.699319056E0
1.204154596E1,-2.884617423E0,-8.158272091E-1,-2.046741825E-1,3.004743455E0
1.205151096E1,-3.162362505E0,2.462613344E-2,2.828473628E0,4.242806397E0
1.206147496E1,-3.958042840E0,8.219235161E-1,6.653208137E0,7.785039493E0
1.207143896E1,-5.032727163E0,1.705716713E0,9.250985134E0,1.066857714E1
1.208140396E1,-5.997352270E0,2.544224687E0,1.038734823E1,1.226125266E1
1.209136796E1,-6.814731038E0,3.702033905E0,1.121905033E1,1.363864746E1
1.210133196E1,-6.922281799E0,5.033369772E0,1.230128575E1,1.498580754E1
1.211129696E1,-5.808840961E0,6.293278685E0,1.375664603E1,1.620473079E1
1.212126096E1,-4.500633463E0,6.584947157E0,1.575431919E1,1.765830694E1
1.213122496E1,-3.370562266E0,5.741612599E0,1.854839482E1,1.970709912E1
1.214118996E1,-2.275607547E0,4.118986574E0,2.128179740E1,2.179585604E1
1.215115396E1,-1.438091992E0,2.259224964E0,2.301061091E1,2.316593232E1
1.216111796E1,-1.315481873E0,1.155926122E0,2.324775526E1,2.331361796E1
1.217108296E1,-6.050336230E-1,1.168248837E0,2.189337873E1,2.193287267E1
1.218104696E1,8.247752032E-1,1.802850952E0,1.917488422E1,1.927710327E1
1.219101096E1,2.440718738E0,2.409330299E0,1.477898725E1,1.517169880E1
1.220097596E1,3.983348420E0,3.095229453E0,9.365676515E0,1.063782903E1
1.221093996E1,5.682830540E0,3.739671555E0,4.019943219E0,7.901876345E0
1.222090396E1,6.793917289E0,3.633247553E0,-4.683350766E-1,7.718622782E0
1.223086896E1,7.170787295E0,2.591519306E0,-3.745472578E0,8.494982494E0
1.224083296E1,7.110951567E0,9.408131978E-1,-5.953430325E0,9.321700183E0
1.225079696E1,6.570072425E0,-4.410496294E-1,-7.968746874E0,1.033737410E1
1.226076196E1,6.144102765E0,-1.575238435E0,-9.308774335E0,1.126430888E1
1.227072596E1,5.595520501E0,-2.533319630E0,-1.011037147E1,1.182992685E1
1.228068996E1,4.860228162E0,-3.291138367E0,-1.049746299E1,1.202705861E1
1.229065496E1,4.234552114E0,-3.814331143E0,-1.088787106E1,1.228927540E1
1.230061896E1,3.900821403E0,-4.147271310E0,-1.152215362E1,1.285209286E1
1.231058296E1,3.526655150E0,-4.337113446E0,-1.194072071E1,1.318440975E1
1.232054796E1,3.119125854E0,-4.556259195E0,-1.202188591E1,1.322929268E1
1.233051175E1,2.837811339E0,-4.823014435E0,-1.173284985E1,1.299901562E1
1.234047575E1,2.634229124E0,-5.078860525E0,-1.121076834E1,1.258631455E1
1.235044075E1,2.472474089E0,-5.266014696E0,-1.064523850E1,1.213116407E1
1.236040475E1,2.202702270E0,-5.480553131E0,-1.001058289E1,1.162325813E1
1.237036875E1,1.802875364E0,-5.700406101E0,-9.296109266E0,1.105272079E1
1.238033375E1,1.225239893E0,-5.829926021E0,-8.561696057E0,1.043033507E1
1.239029775E1,6.516002637E-1,-5.895486757E0,-7.986663913E0,9.948273592E0
1.240026175E1,2.589641181E-1,-5.802656946E0,-7.543595240E0,9.520699511E0
1.241022675E1,1.332767558E-1,-5.366813677E0,-7.193007299E0,8.975511447E0
1.242019075E1,-1.922652215E-2,-4.750808046E0,-6.759603488E0,8.262129633E0
1.243015575E1,-2.795565498E-1,-4.077681258E0,-5.839316064E0,7.127639750E0
1.244011975E1,-5.868840118E-1,-3.406670285E0,-4.314643473E0,5.528651153E0
1.245008375E1,-9.729043253E-1,-2.931291652E0,-2.511337608E0,3.980682122E0
1.246004875E1,-1.286729067E0,-2.545237133E0,-5.427017194E-1,2.903175659E0
1.247001275E1,-1.280016171E0,-2.061354310E0,1.287621206E0,2.746923981E0
1.247997675E1,-1.104082954E0,-1.341718476E0,2.995045014E0,3.462586067E0
1.248994175E1,-8.716932616E-1,-4.195704675E-1,5.017102818E0,5.109521427E0
1.249990575E1,-7.786079273E-1,7.212531736E-1,7.402824107E0,7.478518651E0
1.250986975E1,-9.912892869E-1,1.933057627E0,9.553247591E0,9.797137632E0
1.251983475E1,-1.339638183E0,3.038842413E0,1.118002134E1,1.166285003E1
1.252979875E1,-1.389594162E0,3.851824367E0,1.262694993E1,1.327431307E1
1.253976275E1,-9.644577299E-1,4.155979569E0,1.444155379E1,1.505857964E1
1.254972775E1,-5.111809878E-1,4.175062542E0,1.621543296E1,1.675209597E1
1.255969175E1,-7.152809738E-1,4.157077676E0,1.741311112E1,1.791673410E1
1.256965575E1,-1.576114494E0,4.107542111E0,1.783021641E1,1.836498451E1
1.257962075E1,-2.366215562E0,4.162170893E0,1.767955120E1,1.831636354E1
1.258958475E1,-2.701078878E0,4.220341333E0,1.757658758E1,1.827685802E1
1.259954875E1,-2.183455867E0,4.234939492E0,1.802370779E1,1.864286015E1
1.260951375E1,-1.146278801E0,4.223991165E0,1.811467409E1,1.863591892E1
1.261947775E1,-2.051144779E-1,4.065863158E0,1.654664147E1,1.704008976E1
1.262944175E1,4.590727946E-1,3.972627843E0,1.346729540E1,1.404850758E1
1.263940675E1,1.183385231E0,3.791392516E0,9.588729081E0,1.037876598E1
1.264937075E1,1.993491525E0,3.650055959E0,5.618397147E0,6.990229142E0
1.265933475E1,2.663925962E0,3.341642230E0,2.019268098E0,4.726575714E0
1.266929975E1,3.169584109E0,2.685341097E0,-1.085376542E0,4.293642098E0
1.267926375E1,3.399313903E0,1.850836712E0,-3.525878055E0,5.235718442E0
1.268922775E1,3.417010209E0,9.479362759E-1,-5.145908793E0,6.249393511E0
1.269919275E1,3.384633299E0,-8.759918422E-2,-6.220740466E0,7.082445067E0
1.270915675E1,3.244422914E0,-1.417314496E0,-7.309984356E0,8.122249178E0
1.271912075E1,3.062644674E0,-2.602961430E0,-7.392604344E0,8.414618208E0
1.272908575E1,3.045002455E0,-3.681532982E0,-8.193378189E0,9.484575436E0
1.273904975E1,3.319799371E0,-4.727357495E0,-9.293886740E0,1.094281991E1
1.274901375E1,3.408654245E0,-5.242661501E0,-9.640688024E0,1.149118310E1
1.275897875E1,3.430681876E0,-6.034042963E0,-1.059574650E1,1.266685030E1
1.276894275E1,3.484072510E0,-6.935755538E0,-1.127597298E1,1.368908444E1
1.277890675E1,3.352923556E0,-7.416409528E0,-1.144137434E1,1.404102109E1
1.278887175E1,3.175869866E0,-7.820098373E0,-1.193095819E1,1.461464510E1
1.279883575E1,3.175764908E0,-8.052274935E0,-1.297564981E1,1.559782364E1
1.280879975E1,3.206558392E0,-7.682886441E0,-1.384116520E1,1.615198486E1
1.281876475E1,3.134543792E0,-7.477373183E0,-1.292765820E1,1.525977789E1
1.282872875E1,2.775542585E0,-7.490896039E0,-1.219294620E1,1.457686856E1
1.283869375E1,2.403062961E0,-7.612742073E0,-1.274976368E1,1.504277326E1
1.284865775E1,1.654611756E0,-7.016883901E0,-1.179128926E1,1.382059703E1
1.285862175E1,1.139571752E0,-6.253241630E0,-1.138145324E1,1.303607044E1
1.286858675E1,8.864770693E-1,-5.564016872E0,-1.101778917E1,1.237480519E1
1.287855075E1,5.546420261E-1,-4.606049405E0,-1.033893445E1,1.133211739E1
1.288851475E1,-2.783888608E-2,-3.520335772E0,-9.601035131E0,1.022611434E1
1.289847975E1,-6.063083160E-1,-2.400062170E0,-8.501512420E0,8.854581957E0
1.290844375E1,-6.191201502E-1,-1.399734550E0,-6.237886257E0,6.422911452E0
1.291840775E1,-1.366681409E-1,-7.932157338E-2,-2.927236608E0,2.931498636E0
1.292837275E1,3.230110100E-1,1.680583334E0,8.252935588E-1,1.899948924E0
1.293833675E1,1.010852609E0,3.341195795E0,5.382925095E0,6.415706891E0
1.294830075E1,2.003719767E0,4.594011742E0,1.031897673E1,1.147175303E1
1.295826575E1,2.926363619E0,5.317133979E0,1.438355643E1,1.561160508E1
1.296822975E1,3.277452081E0,5.795835584E0,1.754102715E1,1.876222364E1
1.297819375E1,2.971432203E0,6.305022233E0,2.001958936E1,2.119827052E1
1.298815875E1,2.155940039E0,6.528612158E0,2.152593269E1,2.259727046E1
1.299812275E1,1.282419523E0,6.080364021E0,2.269846782E1,2.353371768E1
1.300808675E1,2.980432530E-1,5.273375756E0,2.360081716E1,2.418462099E1
1.301805175E1,-5.685237546E-1,4.353044185E0,2.366433196E1,2.406808717E1
1.302801575E1,-1.352237909E0,3.731136082E0,2.286527485E1,2.320712645E1
1.303797975E1,-1.869296080E0,3.613960512E0,2.163862257E1,2.201783288E1
1.304794475E1,-1.941959428E0,3.671219663E0,1.984985873E1,2.027969309E1
1.305790875E1,-1.663281569E0,3.532813145E0,1.681611742E1,1.726351875E1
1.306787275E1,-1.415535042E0,3.344162672E0,1.280687227E1,1.331176700E1
1.307783775E1,-1.420116481E0,3.047627270E0,8.616533584E0,9.249292611E0
1.308780175E1,-1.560858670E0,2.639278194E0,4.580332181E0,5.511942676E0
1.309776575E1,-1.486815086E0,2.099457398E0,8.034302348E-1,2.695151314E0
1.310773075E1,-1.023622197E0,1.442461908E0,-2.373373139E0,2.959966016E0
1.311769475E1,-2.570449157E-1,7.909458447E-1,-4.743666549E0,4.816019077E0
1.312765875E1,4.699793136E-1,9.308796555E-2,-6.395726581E0,6.413646733E0
1.313762375E1,1.041226117E0,-6.989919466E-1,-7.648420613E0,7.750553493E0
1.314758775E1,1.391095435E0,-1.547894516E0,-8.570411916E0,8.819471886E0
1.315755175E1,1.472250549E0,-2.381733488E0,-9.229355114E0,9.644748410E0
1.316751675E1,1.388379549E0,-3.197255472E0,-9.703751414E0,1.031081140E1
1.317748075E1,1.179048644E0,-3.956570219E0,-1.001011277E1,1.082806360E1
1.318744475E1,9.104812051E-1,-4.553390843E0,-1.021342747E1,1.121946723E1
1.319740975E1,7.477550939E-1,-4.988994668E0,-1.045445438E1,1.160796373E1
1.320737375E1,5.961473170E-1,-5.267305176E0,-1.066067866E1,1.190587943E1
1.321733775E1,4.718097845E-1,-5.390832285E0,-1.076750144E1,1.205084082E1
1.322730275E1,4.808462177E-1,-5.528591516E0,-1.084107696E1,1.217889514E1
1.323726675E1,4.661618127E-1,-5.561068121E0,-1.082538186E1,1.217914931E1
1.324723175E1,5.004855533E-1,-5.448901568E0,-1.098271406E1,1.227033098E1
1.325719575E1,4.919505188E-1,-5.288504841E0,-1.113577663E1,1.233757755E1
1.326715975E1,5.322542068E-1,-5.170838982E0,-1.103592723E1,1.219887537E1
1.327712475E1,5.808996789E-1,-5.112454534E0,-1.084764221E1,1.200608085E1
1.328708875E1,6.020704003E-1,-5.133206302E0,-1.027556934E1,1.150215723E1
1.329705275E1,6.028995354E-1,-5.054104584E0,-9.192098410E0,1.050724199E1
1.330701775E1,6.734855148E-1,-4.861906313E0,-7.646696854E0,9.086456323E0
1.331698175E1,7.788931252E-1,-4.663069698E0,-6.077845625E0,7.700071490E0
1.332694571E1,7.766653360E-1,-4.086525756E0,-4.736438806E0,6.303709572E0
1.333691071E1,5.704875420E-1,-3.037369792E0,-4.004205438E0,5.058135277E0
1.334687471E1,-9.201690182E-2,-1.697012256E0,-4.050868558E0,4.392932253E0
1.335683871E1,-6.762132409E-1,-3.381006271E-1,-4.231148742E0,4.298161939E0
1.336680371E1,-7.418896057E-1,9.005861083E-1,-3.421614599E0,3.615093635E0
1.337676771E1,-4.879726580E-1,1.864246132E0,-3.167506886E-1,1.952911148E0
1.338673171E1,3.941318634E-1,2.262577758E0,5.424923891E0,5.891043817E0
1.339669671E1,1.641278497E0,2.629304306E0,1.233804837E1,1.272141791E1
1.340666071E1,2.274616444E0,3.204399308E0,1.711896109E1,1.756419323E1
1.341662471E1,2.638100565E0,3.716430042E0,1.839106730E1,1.894736877E1
1.342658971E1,2.698679181E0,4.098083655E0,1.751622794E1,1.819053051E1
1.343655371E1,1.992749367E0,4.402720082E0,1.643798734E1,1.713366341E1
1.344651771E1,8.570579001E-1,4.490923869E0,1.629987962E1,1.692894034E1
1.345648271E1,-2.745331337E-1,4.443644160E0,1.647444005E1,1.706541875E1
1.346644671E1,-1.202263990E0,4.466579863E0,1.574018764E1,1.640576976E1
1.347641071E1,-1.846413001E0,4.767919923E0,1.418130124E1,1.507486671E1
1.348637571E1,-1.894914193E0,5.048201820E0,1.236184887E1,1.348667301E1
1.349633971E1,-1.342698908E0,5.097504957E0,1.088474747E1,1.209401194E1
1.350630371E1,-9.956277747E-1,4.776757697E0,9.581683770E0,1.075255098E1
1.351626871E1,-1.043361520E0,4.182970608E0,7.953234796E0,9.046534701E0
1.352623271E1,-1.149824260E0,3.495195668E0,5.986344302E0,7.026720906E0
1.353619671E1,-9.326925847E-1,2.933834022E0,3.634780692E0,4.763289641E0
1.354616171E1,-3.673766126E-1,2.459539463E0,1.113472413E0,2.724723979E0
1.355612571E1,2.587575652E-1,1.967719045E0,-1.208217187E0,2.323502203E0
1.356608971E1,8.325248104E-1,1.342411079E0,-3.275745864E0,3.636712255E0
1.357605471E1,1.150360011E0,5.167833513E-1,-4.902637725E0,5.062237633E0
1.358601871E1,1.319696692E0,-4.848654476E-1,-6.066556991E0,6.227343541E0
1.359598371E1,1.447440813E0,-1.613539159E0,-6.992804482E0,7.321059216E0
1.360594771E1,1.435552108E0,-2.723025525E0,-7.739640101E0,8.329328110E0
1.361591171E1,1.381445628E0,-3.713702316E0,-8.392763565E0,9.281080604E0
1.362587671E1,1.428454319E0,-4.521247821E0,-8.939281177E0,1.011893826E1
1.363584071E1,1.448456182E0,-5.049972357E0,-9.402398198E0,1.077057742E1
1.364580471E1,1.389004616E0,-5.388143735E0,-9.766903097E0,1.124072163E1
1.365576971E1,1.360379280E0,-5.498097117E0,-9.995595303E0,1.148876099E1
1.366573371E1,1.352074918E0,-5.408389134E0,-1.020611027E1,1.162942245E1
1.367569771E1,1.401931933E0,-5.189995630E0,-1.039973497E1,1.170708995E1
1.368566271E1,1.624458835E0,-4.920742459E0,-1.044828908E1,1.166273199E1
1.369562671E1,2.120848559E0,-4.694704012E0,-1.034435248E1,1.155611841E1
1.370559071E1,2.612837670E0,-4.552867517E0,-9.788852960E0,1.110752743E1
1.371555571E1,3.000651324E0,-4.439088302E0,-8.888360699E0,1.037845698E1
1.372551971E1,3.242008599E0,-4.424526981E0,-7.664098168E0,9.424725964E0
1.373548371E1,3.104496120E0,-4.540726651E0,-6.521912418E0,8.531789746E0
1.374544871E1,2.604036441E0,-4.672965526E0,-5.919371463E0,7.978506822E0
1.375541271E1,2.118316130E0,-4.608835604E0,-5.855930343E0,7.747293013E0
1.376537671E1,2.047308859E0,-4.122974960E0,-6.472707514E0,7.942690894E0
1.377534171E1,1.979132810E0,-3.363805516E0,-7.487138034E0,8.443304458E0
1.378530571E1,1.587386610E0,-2.600767847E0,-7.772295631E0,8.348195555E0
1.379526971E1,7.091663942E-1,-1.909916687E0,-6.780297369E0,7.079769145E0
1.380523471E1,-3.341794842E-1,-1.618897255E0,-5.555944206E0,5.796638705E0
1.381519871E1,-1.432132656E0,-1.555388015E0,-3.839189996E0,4.382877553E0
1.382516271E1,-2.530988638E0,-1.353326368E0,-1.377833219E0,3.183680279E0
1.383512771E1,-3.265706779E0,-9.730898282E-1,1.817961912E0,3.862218287E0
1.384509171E1,-3.125409856E0,-4.771327972E-2,6.043140646E0,6.803676374E0
1.385505571E1,-2.255923334E0,1.746282064E0,1.022981137E1,1.062015687E1
1.386502071E1,-1.214884621E0,4.033811646E0,1.294360707E1,1.361192657E1
1.387498471E1,-8.523095955E-1,5.899308497E0,1.382548413E1,1.505563960E1
1.388494871E1,-1.158994302E0,6.840050651E0,1.447483497E1,1.605149240E1
1.389491371E1,-2.257062225E0,7.453719442E0,1.616756297E1,1.794553861E1
1.390487771E1,-3.135776970E0,7.990899636E0,1.862427297E1,2.050734302E1
1.391484171E1,-2.857475817E0,8.333436545E0,2.051578408E1,2.232730905E1
1.392480671E1,-1.893905402E0,8.624683433E0,2.127154840E1,2.303151783E1
1.393477071E1,-9.945551030E-1,8.811686161E0,2.161232179E1,2.336080919E1
1.394473571E1,-2.961532867E-1,8.518533665E0,2.105397351E1,2.271393676E1
1.395469971E1,9.378583074E-2,7.589103534E0,1.890645492E1,2.037295575E1
1.396466371E1,2.425350501E-1,6.424108965E0,1.557679305E1,1.685124568E1
1.397462871E1,2.643748391E-1,5.430927227E0,1.143432142E1,1.266130211E1
1.398459271E1,3.689856201E-1,4.559122868E0,7.099950031E0,8.445770667E0
1.399455671E1,5.219281702E-1,3.560650277E0,2.808054566E0,4.564625927E0
1.400452171E1,5.878308222E-1,2.202226306E0,-1.310681455E0,2.629302504E0
1.401448571E1,3.105906469E-1,6.021974310E-1,-4.721262943E0,4.769636471E0
1.402444971E1,-1.154656984E-1,-1.083437605E0,-6.941141993E0,7.026138451E0
1.403441471E1,-4.078412452E-1,-2.694396388E0,-8.103014148E0,8.548973311E0
1.404437871E1,-5.457026567E-1,-4.171070355E0,-8.739636769E0,9.699323180E0
1.405434271E1,-4.873809198E-1,-5.568557235E0,-9.237609043E0,1.079721217E1
1.406430771E1,-4.966566503E-1,-6.590394423E0,-9.667855942E0,1.171099505E1
1.407427171E1,-5.247064747E-1,-7.175203696E0,-9.928967450E0,1.226145422E1
1.408423571E1,-3.143210243E-1,-7.382330201E0,-9.882650485E0,1.233954527E1
1.409420071E1,3.134600218E-1,-7.259262099E0,-9.735385435E0,1.214795756E1
1.410416471E1,1.555011893E0,-6.996320997E0,-9.618884341E0,1.199539518E1
1.411412871E1,2.833633211E0,-6.730366825E0,-9.571985579E0,1.203952751E1
1.412409371E1,3.834055556E0,-6.526140540E0,-9.587252074E0,1.221498648E1
1.413405771E1,4.460228618E0,-6.395164663E0,-9.707160341E0,1.245073220E1
1.414402171E1,4.682558468E0,-6.300094199E0,-9.918980405E0,1.264925741E1
1.415398671E1,4.565523815E0,-6.129927360E0,-1.006511168E1,1.263829460E1
1.416395071E1,4.246278997E0,-5.961404757E0,-1.021121840E1,1.256336791E1
1.417391471E1,4.107009722E0,-5.650038770E0,-1.044880480E1,1.256853169E1
1.418387971E1,4.170601116E0,-5.159595956E0,-1.062272321E1,1.252428012E1
1.419384371E1,4.139296585E0,-4.513728302E0,-1.027712236E1,1.196355982E1
1.420380771E1,3.725810730E0,-3.647529961E0,-9.356914462E0,1.071158199E1
1.421377271E1,2.990954594E0,-2.809173723E0,-7.758276347E0,8.776566428E0
1.422373671E1,1.883268878E0,-2.082727929E0,-5.616257651E0,6.279076946E0
1.423370071E1,4.944519576E-1,-1.529889477E0,-3.729072892E0,4.060914821E0
1.424366571E1,-5.357457255E-1,-1.372439162E0,-2.060213810E0,2.532803522E0
1.425362971E1,-1.450078345E0,-1.207109724E0,-6.382621801E-1,1.991788067E0
1.426359371E1,-2.246865558E0,-5.605725646E-1,1.127897494E0,2.575810396E0
1.427355871E1,-2.783700913E0,4.425313139E-1,4.170786765E0,5.033913684E0
1.428352271E1,-2.933069206E0,1.185432049E0,7.872985269E0,8.484812382E0
1.429348671E1,-2.790881293E0,1.371452444E0,1.134562384E1,1.176405885E1
1.430345171E1,-2.612395328E0,1.650703185E0,1.464252961E1,1.496506277E1
1.431341571E1,-2.735339761E0,2.469365124E0,1.722077398E1,1.761064747E1
1.432338071E1,-2.996155400E0,3.664690662E0,1.763732144E1,1.826148987E1
1.433334458E1,-3.100349275E0,4.797264175E0,1.541947956E1,1.644342601E1
1.434330858E1,-3.347478921E0,6.025207821E0,1.187671708E1,1.373190275E1
1.435327358E1,-3.485985426E0,7.457334191E0,8.850365492E0,1.208688947E1
1.436323758E1,-3.377915432E0,8.703774626E0,7.163212227E0,1.176765120E1
1.437320158E1,-3.119862018E0,9.342157259E0,7.094066563E0,1.213817209E1
1.438316658E1,-3.029850858E0,9.178580232E0,7.929297464E0,1.250200342E1
1.439313058E1,-3.034678611E0,8.563995182E0,8.458849381E0,1.241383988E1
1.440309458E1,-2.561171672E0,8.013630102E0,8.677191430E0,1.208600508E1
1.441305958E1,-1.337015268E0,7.457380968E0,8.927965645E0,1.170934291E1
1.442302358E1,2.317448907E-1,6.818073306E0,8.754676393E0,1.109883724E1
1.443298758E1,1.594600905E0,5.870175914E0,7.491030525E0,9.649728267E0
1.444295258E1,2.442303918E0,4.454986004E0,5.443618609E0,7.446121963E0
1.445291658E1,2.495790446E0,2.844481550E0,3.104585583E0,4.894741758E0
1.446288058E1,1.756721098E0,1.043532112E0,6.102329671E-1,2.132466309E0
1.447284558E1,7.224363577E-1,-9.879543275E-1,-1.715481856E0,2.107331498E0
1.448280958E1,-6.417465359E-1,-2.943433396E0,-4.037217064E0,5.037336637E0
1.449277358E1,-1.675150832E0,-4.736691406E0,-6.071822408E0,7.880951919E0
1.450273858E1,-2.078537084E0,-5.969174538E0,-7.534316878E0,9.834494999E0
1.451270258E1,-1.838651115E0,-6.594051856E0,-8.393977447E0,1.083148259E1
1.452266658E1,-1.040557195E0,-6.893725167E0,-8.817112377E0,1.124044824E1
1.453263158E1,1.162198430E-1,-7.036845710E0,-8.841896385E0,1.130087768E1
1.454259558E1,1.202575209E0,-7.171933349E0,-8.599662613E0,1.126219393E1
1.455255958E1,2.114777249E0,-7.128950467E0,-8.517884624E0,1.130701446E1
1.456252458E1,3.028944831E0,-6.895866417E0,-8.732084506E0,1.153155585E1
1.457248858E1,3.614918286E0,-6.554421183E0,-8.950035961E0,1.166752823E1
1.458245258E1,3.908971252E0,-6.161212302E0,-9.229757402E0,1.176558605E1
1.459241758E1,4.161987875E0,-5.822367325E0,-9.850418293E0,1.217591249E1
1.460238158E1,4.439270443E0,-5.513006347E0,-1.070076951E1,1.282991930E1
1.461234558E1,4.733371941E0,-5.110484607E0,-1.129988458E1,1.327438339E1
1.462231058E1,4.709709429E0,-4.709039923E0,-1.125294080E1,1.307612697E1
1.463227458E1,4.455669836E0,-4.428529692E0,-1.055729755E1,1.228500714E1
1.464223958E1,4.011081179E0,-4.133849904E0,-9.700923700E0,1.128208349E1
1.465220358E1,3.557244859E0,-3.835814399E0,-8.970731011E0,1.038467515E1
1.466216758E1,3.028839582E0,-3.517608923E0,-8.196012359E0,9.419238841E0
1.467213258E1,2.521747406E0,-3.149049857E0,-7.274284181E0,8.318108879E0
1.468209658E1,1.800301420E0,-2.483907442E0,-6.582757375E0,7.262477266E0
1.469206058E1,9.326763587E-1,-1.639878527E0,-6.190396925E0,6.471483668E0
1.470202558E1,8.785207629E-2,-8.769908389E-1,-5.676966367E0,5.744978508E0
1.471198958E1,-6.760255453E-1,-4.575718144E-1,-5.668275066E0,5.726755166E0
1.472195358E1,-1.515420688E0,-6.443412378E-1,-5.051337097E0,5.312972987E0
1.473191858E1,-2.030985041E0,-1.216512924E0,-2.914804258E0,3.755114884E0
1.474188258E1,-2.013077066E0,-1.670495718E0,8.575368601E-1,2.752890242E0
1.475184658E1,-2.338378576E0,-1.701150915E0,5.668539945E0,6.363511131E0
1.476181158E1,-2.902718648E0,-1.098731290E0,1.001253118E1,1.048254581E1
1.477177558E1,-3.177464109E0,-5.167506069E-2,1.294868245E1,1.333294137E1
1.478173958E1,-2.874974779E0,1.513074639E0,1.452699915E1,1.488585165E1
1.479170458E1,-2.229348616E0,3.163372027E0,1.515983044E1,1.564600194E1
1.480166858E1,-1.684425247E0,4.665156862E0,1.594406836E1,1.669773316E1
1.481163258E1,-1.403889727E0,6.188828702E0,1.731362192E1,1.844001115E1
1.482159758E1,-1.705538081E0,7.520939033E0,1.830154175E1,1.986000540E1
1.483156158E1,-1.793448337E0,8.562188977E0,1.872761315E1,2.067005156E1
1.484152558E1,-1.098232742E0,9.235718054E0,1.938115527E1,2.149729711E1
1.485149058E1,-2.375689367E-1,9.686895061E0,1.996979681E1,2.219651233E1
1.486145458E1,4.933270995E-1,9.612115020E0,1.983301874E1,2.204506202E1
1.487141858E1,6.731416254E-1,8.567859022E0,1.827640574E1,2.019624556E1
1.488138358E1,2.705019902E-1,6.892841653E0,1.557013190E1,1.702978111E1
1.489134758E1,-1.281970603E-1,5.223756284E0,1.220904008E1,1.328023809E1
1.490131158E1,-3.622706777E-1,3.766320533E0,8.401427969E0,9.214141431E0
1.491127658E1,-3.750442126E-1,2.481781394E0,4.170268702E0,4.867344049E0
1.492124058E1,-5.185946725E-2,1.200352097E0,2.688666701E-2,1.201772630E0
1.493120458E1,9.675058834E-2,2.644189855E-1,-3.643499476E0,3.654362668E0
1.494116958E1,3.506502867E-1,-3.221883067E-1,-6.461700715E0,6.479223492E0
1.495113358E1,8.152825409E-1,-7.606984904E-1,-8.467399764E0,8.540503883E0
1.496109758E1,1.362043690E0,-1.129791407E0,-9.797364167E0,9.955899570E0
1.497106258E1,1.826967208E0,-1.525900506E0,-1.070828201E1,1.096966204E1
1.498102658E1,2.059370496E0,-2.008960334E0,-1.130011496E1,1.166059718E1
1.499099058E1,1.885128439E0,-2.475923361E0,-1.164696829E1,1.205552886E1
1.500095558E1,1.540594121E0,-2.939829464E0,-1.163089663E1,1.209519673E1
1.501091958E1,1.163659357E0,-3.507374541E0,-1.120126193E1,1.179508576E1
1.502088358E1,7.793099586E-1,-4.018857391E0,-1.034631598E1,1.112676022E1
1.503084858E1,5.959431761E-1,-4.401140457E0,-9.360864256E0,1.036103109E1
1.504081258E1,5.546247768E-1,-4.601897590E0,-8.935777525E0,1.006643880E1
1.505077758E1,7.280485153E-1,-4.784749379E0,-8.917527196E0,1.014623933E1
1.506074158E1,1.163468153E0,-4.969218800E0,-9.135315514E0,1.046426219E1
1.507070558E1,1.337732721E0,-4.999292784E0,-9.630231448E0,1.093269477E1
1.508067058E1,1.290474647E0,-4.943733126E0,-9.924017197E0,1.116207594E1
1.509063458E1,1.289065907E0,-5.015941561E0,-9.364780721E0,1.070142414E1
1.510059858E1,1.297999575E0,-5.196316470E0,-7.774615806E0,9.440929970E0
1.511056358E1,1.364329074E0,-5.570306722E0,-5.521397687E0,7.960875782E0
1.512052758E1,1.319076156E0,-5.950325453E0,-3.028054885E0,6.805545628E0
1.513049158E1,9.420762695E-1,-5.932542316E0,-1.182198247E0,6.122104109E0
1.514045658E1,3.341813480E-1,-5.287291544E0,-2.704781628E-1,5.304741981E0
1.515042058E1,-4.388909836E-1,-4.052011104E0,-4.638935316E-1,4.102025901E0
1.516038458E1,-1.053404478E0,-2.548527361E0,-1.126559066E0,2.978890403E0
1.517034958E1,-1.512547512E0,-7.258759823E-1,-1.007374685E0,1.956910748E0
1.518031358E1,-1.993643114E0,1.156492717E0,-8.362103105E-2,2.306313237E0
1.519027758E1,-2.018048223E0,2.471028657E0,2.076744474E0,3.806753060E0
1.520024258E1,-1.820062085E0,3.112428453E0,5.877783142E0,6.895518221E0
1.521020658E1,-1.491292153E0,3.675849196E0,1.040066935E1,1.113147531E1
1.522017058E1,-9.424787041E-1,4.722200251E0,1.300601674E1,1.386881079E1
1.523013558E1,4.104527945E-1,5.866080524E0,1.336947616E1,1.460555596E1
1.524009958E1,1.603470839E0,7.025910832E0,1.277281224E1,1.466558128E1
1.525006358E1,1.871750302E0,7.831747196E0,1.189110123E1,1.436098889E1
1.526002858E1,1.214977153E0,7.773762113E0,1.130606158E1,1.377441742E1
1.526999258E1,1.841370984E-1,6.972611707E0,1.133900713E1,1.331256186E1
1.527995658E1,-5.761016365E-1,6.293680973E0,1.129480920E1,1.294275968E1
1.528992158E1,-6.700729336E-1,5.979867926E0,1.083849717E1,1.239680761E1
1.529988558E1,-2.947971347E-1,5.236051809E0,1.019614427E1,1.146579705E1
1.530984958E1,-5.969161528E-1,4.086588029E0,9.380162991E0,1.024909598E1
1.531981458E1,-1.416902121E0,3.160441695E0,8.673384308E0,9.339357509E0
1.532977833E1,-1.529446550E0,2.637980112E0,7.859559478E0,8.430351179E0
1.533974333E1,-7.909162431E-1,2.496327805E0,6.161475427E0,6.694847306E0
1.534970733E1,2.458971991E-1,2.586479591E0,3.647420034E0,4.478170945E0
1.535967133E1,8.787621067E-1,2.369268978E0,7.481237608E-1,2.635402719E0
1.536963633E1,1.041452404E0,1.737875522E0,-2.204130744E0,2.993831455E0
1.537960033E1,8.262802765E-1,8.716350818E-1,-4.697834904E0,4.848931799E0
1.538956433E1,5.213579936E-1,-2.481716198E-1,-6.569339184E0,6.594666074E0
1.539952933E1,3.721113954E-1,-1.425412597E0,-7.762729002E0,7.901280245E0
1.540949333E1,1.703187025E-1,-2.547171684E0,-8.144109550E0,8.534846947E0
1.541945733E1,-3.865459051E-2,-3.633903610E0,-7.856671538E0,8.656444841E0
1.542942233E1,-3.424351680E-1,-4.559461130E0,-7.400267705E0,8.698845311E0
1.543938633E1,-5.480222106E-1,-5.235291086E0,-6.748445247E0,8.558628064E0
1.544935033E1,-7.316343934E-1,-5.722831927E0,-6.080833552E0,8.382280766E0
1.545931533E1,-7.383576681E-1,-6.014188743E0,-5.749008157E0,8.352648267E0
1.546927933E1,-5.243318874E-1,-6.017079606E0,-5.894492730E0,8.439503271E0
1.547924333E1,-2.745287118E-1,-5.647023361E0,-6.403105182E0,8.541896442E0
1.548920833E1,2.214181596E-2,-5.213700827E0,-6.789213204E0,8.560174210E0
1.549917233E1,1.181742566E-1,-4.833604912E0,-7.161694874E0,8.641040161E0
1.550913633E1,2.404437203E-1,-4.574466839E0,-7.270519744E0,8.593254179E0
1.551910133E1,3.552043176E-1,-4.344099407E0,-6.995782469E0,8.242471845E0
1.552906533E1,3.960086004E-1,-4.129447535E0,-6.318690684E0,7.558770516E0
1.553902933E1,5.116030106E-1,-4.170317819E0,-5.672725382E0,7.059256449E0
1.554899433E1,6.159750791E-1,-4.328471553E0,-5.013236055E0,6.651888982E0
1.555895833E1,8.619759201E-1,-4.452365867E0,-4.297374306E0,6.247718802E0
1.556892233E1,1.060529822E0,-4.275039112E0,-3.780280468E0,5.804412402E0
1.557888733E1,1.116434539E0,-3.693858621E0,-3.316568785E0,5.088285182E0
1.558885133E1,1.045155372E0,-2.963498116E0,-2.941727178E0,4.304466242E0
1.559881533E1,6.131920968E-1,-2.165763654E0,-2.535017661E0,3.390110809E0
1.560878033E1,1.104659453E-1,-1.268472744E0,-1.797369772E0,2.202671997E0
1.561874433E1,-1.644466362E-1,-3.550902969E-1,-6.255164194E-1,7.378364358E-1
1.562870933E1,-5.629768666E-2,2.537083483E-1,1.021293397E0,1.053839437E0
1.563867333E1,2.127425910E-1,8.673075575E-1,2.862257085E0,2.998332442E0
1.564863733E1,6.987943107E-1,1.446168458E0,4.684016179E0,4.951739519E0
1.565860233E1,1.308535527E0,2.058550862E0,6.442733517E0,6.889028382E0
1.566856633E1,1.742572006E0,2.951061673E0,8.050662857E0,8.749771119E0
1.567853033E1,1.955478337E0,3.870344546E0,9.473216751E0,1.041850748E1
1.568849533E1,2.144800217E0,4.721376963E0,1.086355950E1,1.203779438E1
1.569845933E1,2.208332992E0,5.270605345E0,1.216062981E1,1.343640326E1
1.570842333E1,2.165293099E0,5.510685588E0,1.292430073E1,1.421596635E1
1.571838833E1,1.725053163E0,5.618464390E0,1.282579854E1,1.410829751E1
1.572835233E1,1.096276629E0,5.703076524E0,1.153907312E1,1.291809246E1
1.573831633E1,1.257722565E-1,5.855698793E0,9.265960438E0,1.096189080E1
1.574828133E1,-7.765293152E-1,6.326074548E0,6.815887032E0,9.331587914E0
1.575824533E1,-8.131684801E-1,6.751367100E0,5.357770373E0,8.657245756E0
1.576820933E1,-2.466179415E-1,6.772576121E0,5.181519506E0,8.530929147E0
1.577817433E1,7.138378078E-1,6.250051973E0,5.349976619E0,8.258024214E0
1.578813833E1,1.525269446E0,5.442680131E0,5.059723758E0,7.586172842E0
1.579810233E1,1.605944649E0,4.478448542E0,4.137757598E0,6.305283300E0
1.580806733E1,1.177121767E0,3.541256817E0,2.477898551E0,4.479519698E0
1.581803133E1,5.673727668E-1,2.695865209E0,3.798684579E-1,2.780989235E0
1.582799533E1,3.126035143E-1,1.842456483E0,-1.752488884E0,2.561949284E0
1.583796033E1,3.619368382E-1,8.366342336E-1,-3.610106027E0,3.723415185E0
1.584792433E1,5.121490674E-1,-1.138955748E-1,-5.058656641E0,5.085791569E0
1.585788833E1,5.808138710E-1,-1.059517230E0,-6.115342650E0,6.233565371E0
1.586785333E1,4.265782823E-1,-2.095632734E0,-6.919667509E0,7.242613066E0
1.587781733E1,-1.211086269E-2,-3.152174901E0,-7.582740009E0,8.211838974E0
1.588778133E1,-4.229741317E-1,-4.212891980E0,-7.946051491E0,9.003727021E0
1.589774633E1,-7.561706259E-1,-5.066477292E0,-7.955295355E0,9.461908388E0
1.590771033E1,-9.763394183E-1,-5.601030917E0,-7.961061294E0,9.782805473E0
1.591767433E1,-9.802346872E-1,-5.935541353E0,-7.947353082E0,9.967543940E0
1.592763933E1,-9.921444422E-1,-6.214735376E0,-7.829083790E0,1.004499076E1
1.593760333E1,-8.380184888E-1,-6.298253496E0,-7.635818694E0,9.933579376E0
1.594756833E1,-5.195481341E-1,-6.209872831E0,-7.693656428E0,9.900747450E0
1.595753233E1,-1.042127319E-1,-6.109232894E0,-8.054693928E0,1.010997928E1
1.596749633E1,2.746234001E-1,-6.020338259E0,-8.502953174E0,1.042209688E1
1.597746133E1,5.908461582E-1,-5.854260378E0,-8.886384341E0,1.065782766E1
1.598742533E1,8.903113809E-1,-5.835168634E0,-8.873704069E0,1.065760157E1
1.599738933E1,1.033191458E0,-5.917739505E0,-8.437128729E0,1.035723258E1
1.600735433E1,1.014719519E0,-5.891637534E0,-7.644108877E0,9.704300544E0
1.601731833E1,1.023687612E0,-5.738648645E0,-6.628268593E0,8.826888984E0
1.602728233E1,9.697861513E-1,-5.479356791E0,-5.577202343E0,7.878389556E0
1.603724733E1,6.453655238E-1,-4.737046916E0,-4.769618247E0,6.753174688E0
1.604721133E1,5.819178253E-2,-3.542910994E0,-4.424296893E0,5.668333758E0
1.605717533E1,-1.838039350E-1,-2.298921711E0,-4.486941038E0,5.044944479E0
1.606714033E1,2.136177181E-1,-1.122430932E0,-4.688460647E0,4.825675804E0
1.607710433E1,1.163888495E0,1.730775833E-4,-4.243836030E0,4.400543229E0
1.608706833E1,1.889291657E0,1.141054899E0,-2.392964235E0,3.255411967E0
1.609703333E1,2.044852590E0,1.806755723E0,1.224265455E0,2.990754798E0
1.610699733E1,1.761402672E0,1.942419312E0,5.717670005E0,6.290252971E0
1.611696133E1,9.574670912E-1,2.040243230E0,9.881705575E0,1.013545464E1
1.612692633E1,1.429453279E-1,2.535646237E0,1.266294539E1,1.291511213E1
1.613689033E1,1.210952880E-2,3.486746734E0,1.303700932E1,1.349522736E1
1.614685433E1,4.184348651E-1,4.391802746E0,1.128844041E1,1.211989711E1
1.615681933E1,5.834736963E-1,5.277638960E0,9.313679565E0,1.072093940E1
1.616678333E1,7.941465374E-1,6.428962739E0,8.384993200E0,1.059576999E1
1.617674733E1,8.021815619E-1,7.515378331E0,8.859610525E0,1.164547575E1
1.618671233E1,3.768395637E-1,8.070265648E0,1.034902908E1,1.312911264E1
1.619667633E1,-1.998433774E-1,7.993499308E0,1.150075983E1,1.400726401E1
1.620664033E1,-5.622727887E-1,7.481557451E0,1.195941776E1,1.411798590E1
1.621660533E1,-3.516806392E-1,6.845570422E0,1.235970645E1,1.413321822E1
1.622656933E1,4.609630533E-1,6.388211154E0,1.304942881E1,1.453648241E1
1.623653333E1,1.735321020E0,6.001754054E0,1.303675087E1,1.445646098E1
1.624649833E1,2.396832899E0,5.481513829E0,1.161877769E1,1.306858052E1
1.625646233E1,2.177898819E0,4.514267123E0,9.266973760E0,1.053558986E1
1.626642733E1,1.482278377E0,3.307864327E0,6.373577912E0,7.332230970E0
1.627639133E1,7.619255286E-1,2.187242816E0,3.073994120E0,3.848896140E0
1.628635533E1,2.732250750E-1,1.110856953E0,-4.625574428E-1,1.233942665E0
1.629632033E1,1.568557991E-1,-3.103877485E-2,-3.567088062E0,3.570670019E0
1.630628433E1,1.434338445E-1,-1.022826537E0,-5.902052010E0,5.991741427E0
1.631624833E1,2.969990499E-1,-1.873625650E0,-7.401354702E0,7.640597682E0
1.632621358E1,4.760705774E-1,-2.580189157E0,-8.234235608E0,8.642144139E0
1.633617758E1,6.438423973E-1,-3.259949026E0,-8.743138082E0,9.353302316E0
1.634614158E1,7.658689640E-1,-3.937832524E0,-9.124778246E0,9.967680688E0
1.635610658E1,8.219029047E-1,-4.597853363E0,-9.582711711E0,1.066040073E1
1.636607058E1,7.019996081E-1,-5.145060947E0,-1.010779986E1,1.136362942E1
1.637603458E1,5.400115617E-1,-5.542997886E0,-1.058321241E1,1.195913136E1
1.638599958E1,3.335084432E-1,-5.845390152E0,-1.103281184E1,1.249010612E1
1.639596358E1,4.436077863E-2,-5.965578500E0,-1.146816043E1,1.292705683E1
1.640592758E1,2.060940327E-1,-6.030608894E0,-1.157733496E1,1.305547407E1
1.641589258E1,5.738616047E-1,-6.021923440E0,-1.124382382E1,1.276778967E1
1.642585658E1,8.742624550E-1,-5.953132117E0,-1.033767028E1,1.196125176E1
1.643582058E1,1.129451172E0,-5.941651694E0,-9.235854878E0,1.103992301E1
1.644578558E1,1.224057660E0,-5.914799525E0,-8.368543228E0,1.032064370E1
1.645574958E1,1.157716613E0,-5.684026880E0,-7.890745018E0,9.793483867E0
1.646571358E1,9.821019224E-1,-5.150243919E0,-7.773489633E0,9.376389373E0
1.647567858E1,8.048721582E-1,-4.466402108E0,-7.813621413E0,9.035997264E0
1.648564258E1,7.205723385E-1,-3.620184873E0,-7.534682329E0,8.390256301E0
1.649560658E1,6.817036302E-1,-2.384720830E0,-6.654251865E0,7.101456271E0
1.650557158E1,6.447246690E-1,-9.302466944E-1,-5.356668173E0,5.474935865E0
1.651553558E1,6.323369041E-1,3.782157424E-1,-3.790561042E0,3.861508789E0
1.652549958E1,7.069864060E-1,1.072819646E0,-1.751789557E0,2.172449866E0
