"Time (s)","Linear Acceleration x (m/s^2)","Linear Acceleration y (m/s^2)","Linear Acceleration z (m/s^2)","Absolute acceleration (m/s^2)"
2.383335959E-5,-2.690924092E-1,7.464043871E-3,-8.541934222E-1,8.956075252E-1
9.990833350E-3,-5.265978662E-1,-1.449702369E-1,-1.052273115E0,1.185580192E0
1.995783334E-2,-5.858707258E-1,-1.399465285E-1,-8.901432735E-1,1.074795137E0
2.992583334E-2,-3.857906276E-1,-1.268184330E-1,-5.222668701E-1,6.615738862E-1
3.989283333E-2,2.151125588E-1,-8.172865279E-2,-8.951853275E-2,2.469140607E-1
4.985983332E-2,2.503796015E-1,-1.765529125E-1,-1.609346706E-1,3.460647973E-1
5.982783332E-2,-5.742751125E-1,-4.255424115E-1,-7.354814959E-1,1.025578510E0
6.979483337E-2,-1.225119441E0,1.069091480E-1,-3.839872366E-1,1.288329697E0
7.976183336E-2,-1.048639363E0,1.908005853E-2,-3.678512603E-1,1.111450904E0
8.972883335E-2,-8.614564680E-1,-4.466633219E-1,1.317781144E-1,9.792756716E-1
9.969683335E-2,-4.115779449E-1,-1.274299933E0,7.555304289E-1,1.537550960E0
1.096638333E-1,-3.137763561E-1,-2.071040661E0,1.274930994E0,2.452165178E0
1.196308333E-1,-3.389339284E-1,-2.060918984E0,2.274694358E0,3.088122033E0
1.295978333E-1,-1.334093780E-1,-1.522155949E0,3.003367356E0,3.369713975E0
1.395658333E-1,-1.402052952E-1,-1.078355497E0,3.546086617E0,3.709075141E0
1.495328334E-1,9.301699497E-2,-1.047956847E0,3.368284484E0,3.528768351E0
1.594998334E-1,4.967032453E-1,-1.068980949E0,2.568112317E0,2.825709691E0
1.694678334E-1,8.109762859E-1,-1.033988287E0,1.117827419E0,1.725210843E0
1.794348333E-1,5.857771339E-1,-8.000199924E-1,-1.405623865E-1,1.001461244E0
1.894018333E-1,1.753068343E-1,-2.181018747E-1,1.896877688E-1,3.380567460E-1
1.993688333E-1,1.923842123E-1,4.561338378E-1,1.408667926E0,1.493122596E0
2.093368333E-1,9.448356436E-1,1.260042667E0,2.006084965E0,2.550450706E0
2.193038333E-1,1.647756042E0,1.885282660E0,6.884763139E-1,2.596803865E0
2.292708334E-1,8.199319544E-1,1.767997454E0,-3.471491933E-3,1.948875434E0
2.392388334E-1,-2.958696967E-1,1.320712792E0,7.343173152E-1,1.539819170E0
2.492058334E-1,-5.482516772E-1,8.943344115E-1,7.711068267E-1,1.301929214E0
2.591728334E-1,-4.698308674E-1,4.387271154E-1,2.146004158E-1,6.776989481E-1
2.691398333E-1,-8.737785248E-1,1.002012496E-1,-8.868752646E-1,1.249030398E0
2.791078333E-1,-1.343269742E0,-2.315716669E-2,-2.201362672E0,2.578935337E0
2.890748333E-1,-1.395483916E0,2.747397597E-1,-2.973693906E0,3.296318058E0
2.990418333E-1,-1.205821436E0,1.035680763E0,-3.605395510E0,3.940243237E0
3.090088334E-1,-1.026562981E0,1.702648972E0,-2.194133760E0,2.960923510E0
3.189768334E-1,-6.180357841E-1,1.409948173E0,-3.356475447E0,3.692675115E0
3.289438334E-1,1.755499323E-1,7.076895337E-1,-4.422017648E0,4.481727606E0
3.389108334E-1,1.587567435E0,6.077582793E-1,-3.017829275E0,3.463673486E0
3.488788333E-1,2.391772572E0,-4.592695534E-3,-1.326669497E0,2.735077528E0
3.588458333E-1,1.232327304E0,-4.383536245E-1,-6.825437289E-1,1.475347561E0
3.688128333E-1,2.116484490E-1,-6.253258002E-1,2.098032432E0,2.199447091E0
3.787798333E-1,-3.469605109E-1,-7.570675157E-1,4.518799008E0,4.594896875E0
3.887478333E-1,-2.809880213E-1,-2.059615640E0,3.247986792E0,3.856214343E0
3.987148334E-1,-6.058510637E-1,-3.171867154E0,7.494078094E-1,3.315027725E0
4.086818334E-1,-8.458435252E-1,-2.540086320E0,-1.051662081E0,2.876366269E0
4.186488334E-1,-1.579325456E-1,-1.159235500E0,-2.418249350E0,2.686391548E0
4.286168333E-1,5.208006077E-1,-3.317267235E-1,-3.217653776E0,3.276365626E0
4.385835833E-1,9.097869945E-1,-3.515968779E-1,-4.167871343E0,4.280477108E0
4.485505833E-1,7.859831665E-1,-6.663334930E-1,-4.827891598E0,4.936629127E0
4.585185833E-1,1.789936499E-1,-9.475528447E-1,-5.020007715E0,5.111787611E0
4.684855834E-1,-3.116162485E-1,-1.491617989E0,-4.594775389E0,4.840866636E0
4.784525834E-1,-6.183512414E-1,-2.339613362E0,-3.927380041E0,4.613075214E0
4.884195834E-1,-8.867963272E-1,-3.419706360E0,-2.890579829E0,4.564674256E0
4.983875834E-1,-1.082891183E0,-4.329481367E0,-2.560144901E0,5.145036845E0
5.083545833E-1,-1.609185615E0,-4.577026166E0,-2.684495298E0,5.544831996E0
5.183215833E-1,-1.322726719E0,-3.663615652E0,-2.519065872E0,4.638682840E0
5.282895833E-1,-9.578604627E-1,-2.996689836E0,-1.540340205E0,3.502898027E0
5.382565833E-1,-5.650342825E-1,-2.905186466E0,5.824762344E-2,2.960196772E0
5.482235834E-1,2.529183894E-1,-2.624449363E0,1.072651831E0,2.846451145E0
5.581905834E-1,1.045638279E0,-2.230461341E0,2.277208076E0,3.354697278E0
5.681585834E-1,9.598508549E-1,-2.158574941E0,3.646240066E0,4.344631867E0
5.781255834E-1,9.773299366E-1,-1.955298243E0,5.097387428E0,5.546325236E0
5.880925833E-1,1.596890967E0,-1.403628941E0,6.284027220E0,6.633945513E0
5.980595833E-1,2.444160116E0,-8.078368427E-1,6.618027195E0,7.101042387E0
6.080275833E-1,3.103265281E0,4.140837327E-2,6.332284291E0,7.051935507E0
6.179945833E-1,3.374177307E0,9.104066531E-1,5.616859914E0,6.615363034E0
6.279615834E-1,3.034447061E0,1.343391218E0,5.114588767E0,6.096850596E0
6.379295834E-1,2.290514585E0,1.365812659E0,4.667618247E0,5.375738218E0
6.478965834E-1,1.350884571E0,1.470305034E0,3.555415850E0,4.077703751E0
6.578635834E-1,6.934961486E-1,1.780505087E0,2.751295643E0,3.349740735E0
6.678305833E-1,5.513222694E-1,2.087625265E0,2.753097171E0,3.498811158E0
6.777985833E-1,-1.848410118E0,9.591414414E-1,2.227618425E0,3.049402583E0
6.877655833E-1,-2.374802783E0,9.410782228E-1,2.214054054E0,3.380436634E0
6.977325833E-1,-1.201019264E0,1.124611651E0,1.649465037E0,2.329792598E0
7.076995833E-1,-1.541049473E0,9.251759890E-1,9.623581409E-2,1.800012617E0
7.176675834E-1,-1.518872738E0,1.942533625E0,-2.880046654E0,3.791448273E0
7.276345834E-1,-5.555866438E-1,3.156633403E0,-5.418536392E0,6.295518056E0
7.376015834E-1,9.332471931E-1,4.327198030E0,-6.602280643E0,7.948943502E0
7.475695834E-1,3.365545063E0,4.927687781E0,-6.883898921E0,9.110272488E0
7.575365833E-1,8.282670434E0,3.655282785E0,-5.749068968E0,1.072452870E1
7.675035833E-1,5.919003673E0,2.046351962E0,-6.808226595E0,9.250627557E0
7.774705833E-1,2.321094353E0,1.461648231E0,-5.923694894E0,6.527944221E0
7.874385833E-1,6.030748057E-1,5.582576519E-1,-3.257469222E0,3.359532194E0
7.974055834E-1,-3.477350843E-1,-3.766698848E-1,-1.306224123E0,1.403218212E0
8.073725834E-1,-2.592801601E-1,-4.062215665E-1,4.054880333E-1,6.298116446E-1
8.173405834E-1,-4.172643256E-1,-2.313931806E-1,9.598268813E-1,1.071876842E0
8.273075834E-1,-1.248020938E0,-6.796040413E-1,1.178929653E0,1.846427102E0
8.372745833E-1,-1.747681303E0,-1.603166345E0,1.705674321E0,2.921276631E0
8.472415833E-1,-2.353575051E0,-1.790184421E0,1.966943704E0,3.551470585E0
8.572095833E-1,-2.739678980E0,-2.092739532E0,2.333477002E0,4.162993464E0
8.671765833E-1,-2.706136428E0,-2.496417852E0,2.905506016E0,4.690121711E0
8.771435834E-1,-3.275430114E0,-2.651482503E0,2.940051951E0,5.138356485E0
8.871105834E-1,-6.729021966E0,-3.575490803E0,4.141950637E0,8.672924891E0
8.970785834E-1,-9.303828760E0,-4.974529826E0,4.828811949E0,1.160278421E1
9.070455834E-1,-6.439319327E0,-4.712504983E0,1.897123271E0,8.201927415E0
9.170125833E-1,-4.974764299E0,-2.841036955E0,2.170271273E0,6.126160968E0
9.269805833E-1,-3.999895456E0,-1.511765009E0,2.287119691E0,4.849279697E0
9.369475833E-1,-4.003082773E0,-1.021790995E0,9.938208389E-1,4.249283279E0
9.469145833E-1,-1.945851628E0,2.627066284E-2,-3.076945210E-1,1.970204208E0
9.568815834E-1,4.305554561E0,3.154498293E0,-2.317099535E0,5.818729227E0
9.668495834E-1,1.798932616E1,9.697569737E0,-7.743809166E0,2.185464012E1
9.768165834E-1,1.792939688E1,1.054670941E1,-8.293353882E0,2.239366139E1
9.867835834E-1,8.114292258E0,4.175892554E0,-6.295710542E0,1.108673932E1
9.967505833E-1,3.063678462E0,-7.498785102E-1,-5.371240019E0,6.228857266E0
1.006718583E0,4.540579301E-1,-2.036936629E0,-4.051992393E0,4.557841791E0
1.016685583E0,6.748271585E-3,-1.095465620E0,-3.422649556E0,3.593691757E0
1.026652583E0,6.955795115E-1,1.342707825E-1,-2.377174999E0,2.480487951E0
1.036620583E0,1.105130190E0,-3.992572403E-1,-6.782255602E-1,1.356727309E0
1.046587583E0,8.321956122E-1,-7.738249049E-1,-1.055152284E0,1.550709793E0
1.056554583E0,-8.368651986E-1,-1.061206491E0,-1.289216326E0,1.867774428E0
1.066521583E0,-1.293719852E-1,-1.959879098E0,1.092879689E0,2.247720891E0
1.076489583E0,7.088129300E-1,-2.380033118E0,8.583710239E0,8.935717927E0
1.086456583E0,-6.221231048E0,-2.137418107E0,3.488713737E0,7.446032195E0
1.096423583E0,-6.485101857E0,-2.683659731E0,-2.484400654E0,7.445187859E0
1.106390583E0,-1.961805171E0,-2.756700225E0,-3.303073119E0,4.728463565E0
1.116358583E0,-6.644729090E-1,-2.343476325E0,-3.024560882E0,3.883474483E0
1.126325583E0,-1.218310066E0,-2.248021114E0,-2.219196388E0,3.385662558E0
1.136292583E0,-4.072289833E0,-2.873665588E0,-5.020011224E0,7.074037820E0
1.146260583E0,-1.126895047E1,-5.317284837E0,-8.114643091E0,1.486977455E1
1.156227583E0,-7.791472160E0,-5.341591712E0,-3.816313934E0,1.018841953E1
1.166194583E0,-1.785539101E0,-1.963549980E0,1.417629368E0,3.008878766E0
1.176161583E0,4.890418506E0,1.905281307E0,6.039243477E0,8.001171901E0
1.186129583E0,1.254656943E1,5.571754493E0,4.862599793E0,1.456385009E1
1.196096583E0,1.300141498E1,5.076666065E0,3.852596492E0,1.447935874E1
1.206063583E0,9.334295093E0,2.903261855E0,2.976384502E0,1.021845678E1
1.216030583E0,6.013303474E0,9.709898007E-1,2.430905794E0,6.558349094E0
1.225998583E0,4.485139511E0,3.330036092E-1,2.488294315E-1,4.504362765E0
1.235965583E0,3.545605391E0,1.226656966E0,-1.617138705E0,4.085479469E0
1.245932583E0,2.153566655E0,1.799985816E0,-1.554292831E0,3.208367884E0
1.255900583E0,1.728698610E0,2.676786329E0,-5.670531068E-1,3.236531038E0
1.265867583E0,1.859811019E0,3.815676588E0,1.644353986E-2,4.244826880E0
1.275834583E0,2.196581404E0,4.986104974E0,3.897549301E-1,5.462428177E0
1.285801583E0,2.766333220E0,5.821576781E0,5.147455966E-1,6.465935256E0
1.295769583E0,2.876057684E0,4.805393851E0,-2.074673975E-1,5.604155653E0
1.305736583E0,1.956121385E0,1.498318021E0,-6.539303792E-1,2.549312202E0
1.315703583E0,-1.564634509E-1,-1.470810379E0,-4.412203316E-1,1.543515262E0
1.325670583E0,-2.138565331E0,-3.250322755E0,3.176418408E-1,3.903710546E0
1.335638583E0,-2.931422630E0,-3.076448781E0,7.676575541E-1,4.318225777E0
1.345605583E0,-2.402947771E0,-2.522082451E0,8.932943380E-1,3.596252585E0
1.355572583E0,-8.480211014E-1,-2.061533527E0,1.397206213E0,2.630826006E0
1.365540583E0,6.489330563E-1,-1.893060626E0,2.438858446E0,3.154809529E0
1.375507583E0,1.360903775E0,-1.855367720E0,2.269197975E0,3.231672618E0
1.385474583E0,1.490614899E0,-1.630718279E0,1.033193577E0,2.438988284E0
1.395441583E0,1.321964389E0,-1.576599959E0,5.647381210E-1,2.133585344E0
1.405409583E0,5.601541963E-1,-1.104658320E0,6.421400535E-1,1.395129591E0
1.415376583E0,-4.412640761E-1,-2.328127384E-1,8.066807751E-1,9.484986183E-1
1.425343583E0,-1.129532522E0,8.618895274E-1,7.552017423E-1,1.609045352E0
1.435311583E0,-1.399568196E0,1.825196087E0,6.530240607E-1,2.390935448E0
1.445279208E0,-1.466537234E0,2.492929403E0,5.147190649E-2,2.892763009E0
1.455246208E0,-1.233486368E0,3.323431077E0,-3.838848738E-1,3.565676702E0
1.465213208E0,-9.411716321E-1,4.358604010E0,-2.865486503E-1,4.468259514E0
1.475181208E0,-9.230192435E-1,5.316204856E0,-5.087562937E-1,5.419670798E0
1.485148208E0,-8.935218678E-1,6.209656484E0,-6.505144358E-1,6.307248529E0
1.495115208E0,-5.469348112E-1,6.824397070E0,-8.431527096E-1,6.898002577E0
1.505082208E0,-1.202757642E-2,7.406342377E0,-1.078543558E0,7.484471142E0
1.515050208E0,1.817776555E-1,7.440885973E0,-1.515930419E0,7.595911546E0
1.525017208E0,7.583758302E-2,6.287358379E0,-1.905740898E0,6.570272071E0
1.534984208E0,-1.148106275E-1,4.572588714E0,-2.386787236E0,5.159312196E0
1.544952208E0,-5.652900982E-1,2.339548166E0,-2.692507153E0,3.611458609E0
1.554919208E0,-1.298646131E0,-8.209227651E-1,-2.660835124E0,3.072529824E0
1.564886208E0,-2.121831184E0,-4.976502092E0,-2.044497079E0,5.783399429E0
1.574853208E0,-2.334423958E0,-1.052483966E1,-6.801520716E-1,1.080205498E1
1.584821208E0,-2.001758464E0,-1.759741770E1,1.973524745E0,1.782052038E1
1.594788208E0,-1.128498880E0,-2.285485044E1,4.224002860E0,2.326929089E1
1.604755208E0,3.381079361E-1,-2.131489264E1,4.747563134E0,2.183983335E1
1.614722208E0,2.924994201E0,-9.500629667E0,3.385783153E0,1.050148002E1
1.624690208E0,3.243520689E0,5.031589295E0,-1.603534573E0,6.197470486E0
1.634657208E0,-1.788682564E0,4.398288478E0,-8.215614273E-1,4.818639852E0
1.644624208E0,-2.988469528E0,3.002358127E-1,1.210192669E0,3.238156568E0
1.654592208E0,-8.251681361E-1,1.468596624E0,1.655228491E0,2.361664636E0
1.664559208E0,1.065430081E0,2.997724793E0,1.589141506E0,3.556243231E0
1.674526208E0,1.663435351E0,2.240999193E0,1.142970300E0,3.015870630E0
1.684493208E0,1.468940440E0,5.714834690E-1,1.158933784E0,1.956401514E0
1.694461208E0,9.723207732E-1,-1.733857316E-1,1.220362439E0,1.569953751E0
1.704428208E0,-6.487924308E-3,-6.992240810E-1,8.133585146E-1,1.072617584E0
1.714395208E0,-1.122191488E0,-1.304874585E0,8.232470334E-2,1.723017347E0
1.724362208E0,-1.628263618E0,-1.425671044E0,-7.207210770E-1,2.281056598E0
1.734330208E0,-1.628432602E0,-1.212146516E0,-1.089286575E0,2.303830974E0
1.744297208E0,-1.111075054E0,-6.277518100E-1,-1.044071372E0,1.648831447E0
1.754264208E0,-5.141537122E-1,-3.211741072E-1,-8.062469848E-1,1.008732396E0
1.764232208E0,-1.767701000E-1,-5.392600483E-1,-5.178357039E-1,7.682466298E-1
1.774199208E0,2.058502038E-1,-1.859800494E-1,-2.777263713E-1,3.925491338E-1
1.784166208E0,2.955057076E-1,7.750010723E-1,-7.057004571E-3,8.294577063E-1
1.794133208E0,1.140886791E-1,1.960887743E0,4.781721398E-2,1.964785854E0
1.804101208E0,2.039502972E-1,2.916450250E0,2.706174727E-1,2.936070775E0
1.814068208E0,2.018900308E-1,4.110199671E0,1.027229052E0,4.241426699E0
1.824035208E0,2.076776049E-1,5.248504624E0,1.717892663E0,5.526399006E0
1.834003208E0,3.123636688E-1,5.239300522E0,7.846951711E-1,5.306937679E0
1.843970208E0,-7.276583599E-1,5.126810033E0,1.133332554E0,5.300765084E0
1.853937208E0,-1.380492240E0,4.216899662E0,2.922994453E0,5.313369755E0
1.863904208E0,-2.144286977E0,3.294438243E0,2.837670128E0,4.848057522E0
1.873872208E0,-2.091357396E0,3.019099874E0,2.770220157E0,4.600310808E0
1.883839208E0,-1.677695979E0,3.687339560E0,2.136447323E0,4.579906548E0
1.893806208E0,-1.362797104E0,4.344150862E0,1.211361235E0,4.711290556E0
1.903773208E0,-9.497971523E-1,4.701489998E0,2.053048632E0,5.217387423E0
1.913741208E0,-1.143785110E0,4.363122153E0,4.171234662E0,6.143637189E0
1.923708208E0,-2.024765796E0,2.248423403E0,5.246132993E0,6.056153541E0
1.933675208E0,-2.834588061E0,-5.445020771E-1,5.876377471E0,6.546998104E0
1.943643208E0,-2.995263408E0,-2.686222565E0,6.553369269E0,7.689866275E0
1.953610208E0,-2.033120006E0,-3.893853276E0,6.367935934E0,7.736037639E0
1.963577208E0,-7.724962713E-1,-4.817393507E0,5.216433231E0,7.142493006E0
1.973544208E0,6.519429106E-1,-5.446833408E0,3.715375789E0,6.625484208E0
1.983512208E0,1.763877652E0,-5.412694439E0,2.708206634E0,6.304197700E0
1.993479208E0,2.711834832E0,-5.037127778E0,1.925227329E0,6.035992435E0
2.003446208E0,3.762142990E0,-4.456097560E0,1.415310070E0,6.001135554E0
2.013413208E0,6.150454010E0,-3.795174496E0,7.609683394E-1,7.267083789E0
2.023381208E0,1.122804101E1,-3.467513487E0,-1.375254012E0,1.183147828E1
2.033348208E0,1.403541906E1,-2.889830216E0,-4.471898783E0,1.501139519E1
2.043315208E0,1.448677966E1,-1.307077816E0,-6.624733366E0,1.598318897E1
2.053283208E0,1.143900621E1,1.289064884E0,-6.872676360E0,1.340694715E1
2.063250208E0,7.685955060E0,2.366812563E0,-5.826612403E0,9.931018024E0
2.073217208E0,5.965863844E0,2.024820614E0,-4.816859364E0,7.930546265E0
2.083184208E0,4.934333727E0,1.694644133E0,-4.690582310E0,7.015770127E0
2.093152208E0,3.720794697E0,2.041316779E0,-5.182959090E0,6.698832159E0
2.103119208E0,2.378061729E0,2.983162302E0,-5.764419664E0,6.912522620E0
2.113086208E0,1.825045082E0,4.027275628E0,-5.156341980E0,6.792466500E0
2.123054208E0,2.416164817E0,4.294495722E0,-3.321509682E0,5.942471918E0
2.133021208E0,3.230173542E0,3.974831951E0,-1.699120762E0,5.396324815E0
2.142988208E0,3.615903834E0,3.318979592E0,-1.009956815E0,5.011027722E0
2.152955208E0,2.678024184E0,2.150983647E0,-1.013524202E0,3.581309186E0
2.162923208E0,9.526196033E-1,7.505983025E-1,-1.039547235E0,1.597354179E0
2.172890208E0,-6.612217840E-1,-5.207904482E-1,-1.341841267E0,1.583974408E0
2.182857208E0,-1.927176059E0,-2.188962482E0,-1.982139448E0,3.526250289E0
2.192824208E0,-2.578615086E0,-4.490542923E0,-2.448153180E0,5.727799359E0
2.202792208E0,-2.749372202E0,-7.661506682E0,-2.888361980E0,8.637150402E0
2.212759208E0,-2.918629507E0,-1.121936491E1,-3.555429883E0,1.212574241E1
2.222726208E0,-2.781818402E0,-1.329168948E1,-4.045776803E0,1.416953890E1
2.232694208E0,-2.539261863E0,-1.323921189E1,-4.623656541E0,1.425141333E1
2.242661208E0,-2.519623697E0,-1.202436396E1,-5.327254339E0,1.339079799E1
2.252628208E0,-2.374420083E0,-1.098969681E1,-5.188173053E0,1.238258641E1
2.262595208E0,-2.468485411E0,-1.111754267E1,-3.897993690E0,1.203692361E1
2.272563208E0,-3.192852519E0,-1.240964986E1,-2.219027696E0,1.300453001E1
2.282530208E0,-4.038343238E0,-1.377645172E1,-4.785571790E-1,1.436411693E1
2.292497208E0,-5.100978203E0,-1.455942898E1,1.342361670E0,1.548544109E1
2.302465208E0,-6.196270453E0,-1.445662440E1,2.898718276E0,1.599344629E1
2.312432208E0,-6.904741321E0,-1.357513793E1,3.978643166E0,1.574132854E1
2.322399208E0,-7.257521383E0,-1.172547417E1,4.128513735E0,1.439454712E1
2.332366208E0,-6.338450180E0,-9.305784069E0,3.491432108E0,1.178828512E1
2.342334208E0,-4.228426571E0,-6.797188806E0,3.010550368E0,8.552472183E0
2.352301208E0,-2.989200430E0,-4.500110722E0,3.107116842E0,6.232213955E0
2.362268208E0,-2.595186095E0,-2.940352498E0,3.113744076E0,5.007600808E0
2.372235208E0,-1.797042036E0,-1.701724527E0,2.791273642E0,3.730473829E0
2.382203208E0,-1.722231005E0,-4.377769428E-1,2.737443590E0,3.263636881E0
2.392170208E0,-1.489579503E0,1.040809064E0,2.657065424E0,3.219025827E0
2.402137208E0,-1.172562803E-1,2.673746361E0,2.527860085E0,3.681405336E0
2.412105208E0,1.081056911E0,4.192138458E0,2.620519157E0,5.060615531E0
2.422072208E0,1.744938374E0,5.549436840E0,2.594665693E0,6.369721283E0
2.432039208E0,2.085777106E0,6.760413913E0,2.654176900E0,7.556342860E0
2.442005375E0,2.531683287E0,7.747889353E0,2.944123952E0,8.666433842E0
2.451973375E0,3.005748050E0,8.792231305E0,2.970303106E0,9.755027073E0
2.461940375E0,3.329939613E0,9.840469841E0,2.783212085E0,1.075498089E1
2.471907375E0,3.932716503E0,1.096611850E1,2.807361671E0,1.198345916E1
2.481875375E0,4.348589483E0,1.201994229E1,3.150988501E0,1.316502836E1
2.491842375E0,4.786156219E0,1.295632359E1,3.229503744E0,1.418461515E1
2.501809375E0,5.391045123E0,1.357430412E1,3.101945565E0,1.493141541E1
2.511776375E0,6.047628384E0,1.401175771E1,2.829339015E0,1.552122168E1
2.521744375E0,6.102053683E0,1.407947081E1,1.643184543E0,1.543264763E1
2.531711375E0,5.378268372E0,1.383760424E1,1.156042482E0,1.489098707E1
2.541678375E0,4.361587844E0,1.314739657E1,1.285468261E0,1.391150293E1
2.551645375E0,2.743864417E0,1.265023823E1,1.534383062E0,1.303501632E1
2.561613375E0,1.748515262E0,1.268165415E1,1.459511805E0,1.288455790E1
2.571580375E0,1.177093554E0,1.310673737E1,1.976390465E0,1.330707454E1
2.581547375E0,8.636637188E-1,1.372432262E1,2.501207306E0,1.397708784E1
2.591515375E0,1.131068000E0,1.380632748E1,2.401590632E0,1.405921872E1
2.601482375E0,1.804190842E0,1.354339574E1,2.153664011E0,1.383173675E1
2.611449375E0,2.636476501E0,1.309256138E1,1.890099011E0,1.348846344E1
2.621416375E0,3.492613830E0,1.197321134E1,1.201387639E0,1.252994308E1
2.631384375E0,4.148510628E0,1.053563478E1,3.998079749E-1,1.133003032E1
2.641351375E0,4.500995405E0,9.579531995E0,-5.206881219E-1,1.059705190E1
2.651318375E0,5.560276408E0,8.821467968E0,-8.916899351E-1,1.046566203E1
2.661285375E0,7.401082222E0,7.632223826E0,-1.087698032E0,1.068690533E1
2.671253375E0,8.975955498E0,4.336044282E0,-7.606408954E-1,9.997381242E0
2.681220375E0,1.035617789E1,-2.016053299E0,2.050817335E-1,1.055258025E1
2.691187375E0,1.526248883E1,-1.243971273E1,2.523220319E0,1.985086041E1
2.701155375E0,1.652713750E1,-2.260211740E1,5.605695825E0,2.855566162E1
2.711122375E0,9.456359228E0,-3.035011552E1,9.345711197E0,3.313449199E1
2.721089375E0,2.894589849E0,-3.901162179E1,1.328539904E1,4.131328010E1
2.731056375E0,1.279965374E-1,-4.398421560E1,1.412239405E1,4.619599137E1
2.741024375E0,-1.621264062E0,-4.428894442E1,1.058657339E1,4.556549825E1
2.750991375E0,-1.485206517E0,-3.837619551E1,5.884695135E0,3.885315762E1
2.760958375E0,-2.656422962E-1,-2.728809942E1,-3.285825294E-1,2.729137047E1
2.770925375E0,-6.627202061E-1,-1.769753957E1,-4.638844684E0,1.830740247E1
2.780893375E0,-2.013817616E-1,-1.251154929E1,-4.081248469E1,4.268768355E1
2.790860375E0,3.707606009E0,-8.522013343E0,-7.214243684E1,7.273858843E1
2.800827375E0,7.379822769E-1,-5.475548499E0,-1.380507735E1,1.486964727E1
2.810795375E0,-4.517273761E-2,-4.267616072E0,-1.496326605E0,4.522563523E0
2.820762375E0,5.929048166E-1,-3.327436420E0,3.049367986E0,4.552143931E0
2.830729375E0,-6.059970248E-2,-2.502838680E0,3.162749591E0,4.033715254E0
2.840696375E0,4.026218013E-1,-1.900481327E0,1.834765640E0,2.672133706E0
2.850664375E0,1.440323728E0,-1.457922531E0,1.266174058E0,2.408997155E0
2.860631375E0,1.608285728E0,-1.169177667E0,1.315679509E0,2.384234043E0
2.870598375E0,1.688401792E0,-3.336877334E-1,9.688210684E-1,1.975009463E0
2.880566375E0,2.711800918E0,1.040952905E0,7.794376472E-1,3.007485696E0
2.890533375E0,3.032585308E0,2.574158338E0,3.690265507E-1,3.994877394E0
2.900500375E0,2.798902504E0,4.182109314E0,-3.592277867E-1,5.045090499E0
2.910467375E0,2.606067179E0,5.706777812E0,-1.220621032E0,6.391307756E0
2.920435375E0,2.573516314E0,7.175491379E0,-1.997517771E0,7.880402274E0
2.930402375E0,2.364355271E0,8.401389962E0,-2.571080949E0,9.098570568E0
2.940369375E0,2.057045496E0,9.427013222E0,-2.881576578E0,1.006993039E1
2.950336375E0,2.060640365E0,1.035268944E1,-3.000047307E0,1.097381890E1
2.960304375E0,2.188281720E0,1.086733096E1,-3.080644158E0,1.150555637E1
2.970271375E0,2.317261503E0,1.120214136E1,-3.081676776E0,1.184712638E1
2.980238375E0,2.837427469E0,1.172246987E1,-2.149056405E0,1.225094845E1
2.990206375E0,3.664178446E0,1.276859172E1,-1.243535685E0,1.334202080E1
3.000173375E0,4.882404312E0,1.369491113E1,-1.718143655E0,1.464037159E1
3.010140375E0,6.398218079E0,1.373572703E1,-1.927977274E0,1.527496279E1
3.020107375E0,8.226550028E0,1.380239699E1,-1.378853850E-1,1.606864339E1
3.030075375E0,8.124599145E0,1.380851434E1,1.676352289E0,1.610882791E1
3.040042375E0,7.565786008E0,1.343481061E1,2.491010347E0,1.561859105E1
3.050009375E0,7.190034574E0,1.308545350E1,3.159897904E0,1.526141033E1
3.059976375E0,7.130863091E0,1.258985988E1,2.764333180E0,1.473076095E1
3.069944375E0,7.067295671E0,1.217277331E1,2.423936936E0,1.428280604E1
3.079911375E0,6.615374313E0,1.147082091E1,1.983251004E0,1.338940605E1
3.089878375E0,6.359738138E0,1.071388598E1,1.694687988E0,1.257400451E1
3.099846375E0,6.283748308E0,9.781169719E0,1.659123468E0,1.174348605E1
3.109813375E0,5.791865909E0,7.743859452E0,1.952923835E0,9.865443803E0
3.119780375E0,4.472304872E0,3.690660778E0,3.115429244E0,6.582430191E0
3.129747375E0,2.770607827E0,-2.118378403E0,5.283565698E0,6.330865761E0
3.139715375E0,3.685316569E-1,-1.025373584E1,8.041965709E0,1.303641541E1
3.149682375E0,-3.141526829E0,-2.064605069E1,1.119209116E1,2.369370179E1
3.159649375E0,-6.557295089E0,-3.021460980E1,1.443266018E1,3.412070404E1
3.169617375E0,-8.430702639E0,-3.863438750E1,1.437230171E1,4.207440672E1
3.179584375E0,-4.974655541E0,-4.187363271E1,1.056256121E1,4.347086396E1
3.189551375E0,1.751398232E-1,-4.037665662E1,6.364910000E0,4.087563031E1
3.199518375E0,2.055739667E0,-3.564249823E1,3.042651290E0,3.583115226E1
3.209486375E0,2.272771794E0,-2.551137383E1,-5.025225770E-1,2.561734208E1
3.219453375E0,8.056641635E-1,-1.446870709E1,-2.790225236E0,1.475730112E1
3.229420375E0,-9.847244717E-1,-8.467396256E0,-4.116861988E0,9.466521762E0
3.239387375E0,-6.238002616E-1,-5.329133050E0,-5.499845434E0,7.683559438E0
3.249355375E0,2.070857789E0,-3.203885922E0,-9.989139977E0,1.069281322E1
3.259322375E0,1.125408451E1,-6.472230381E-1,-4.325283184E1,4.469765964E1
3.269289375E0,8.583783329E0,2.389505607E-1,-2.633747781E1,2.770200662E1
3.279257375E0,1.288470368E0,6.688477957E-1,-5.705817699E0,5.887602982E0
3.289224375E0,1.001505834E0,1.062008729E0,-2.266414262E0,2.695831984E0
3.299191375E0,1.382304877E0,1.202306237E0,-8.177063580E-1,2.006227990E0
3.309158375E0,1.716611538E0,1.893988579E0,-4.615957220E-1,2.597502362E0
3.319126375E0,2.045604103E0,3.224256452E0,-6.059194762E-1,3.866195058E0
3.329093375E0,2.132134855E0,4.671279774E0,-8.218016016E-1,5.200212653E0
3.339060375E0,2.091185050E0,6.053500743E0,-9.626890934E-1,6.476472531E0
3.349028375E0,1.731130321E0,7.241193033E0,-1.090051391E0,7.524619643E0
3.358995375E0,1.415051769E0,8.267367101E0,-1.194655155E0,8.472244758E0
3.368962375E0,1.355881163E0,9.165925688E0,-1.339260745E0,9.361956354E0
3.378929375E0,1.372062601E0,9.851772509E0,-1.481528910E0,1.005658517E1
3.388897375E0,1.386273090E0,1.021391162E1,-1.634568524E0,1.043635751E1
3.398864375E0,1.390721651E0,1.034626686E1,-1.605002371E0,1.056197790E1
3.408831375E0,1.321018894E0,1.033842925E1,-1.447503232E0,1.052252232E1
3.418798375E0,1.311212090E0,1.048612290E1,-1.183777433E0,1.063387886E1
3.428766375E0,1.426541548E0,1.067812324E1,-1.018918258E0,1.082106886E1
3.438733375E0,1.552387955E0,1.082562511E1,-1.286894982E0,1.101181938E1
3.448701083E0,1.681906267E0,1.109862576E1,-1.222793711E0,1.129174596E1
3.458669083E0,1.775206486E0,1.134516776E1,-9.782771856E-1,1.152480871E1
3.468636083E0,1.906625289E0,1.170797112E1,-7.718868452E-1,1.188728804E1
3.478603083E0,2.056812485E0,1.211489757E1,-6.185109434E-1,1.230381146E1
3.488570083E0,2.079091400E0,1.254388439E1,-3.101544446E-1,1.271879917E1
3.498538083E0,2.248627178E0,1.277118437E1,1.401974472E-1,1.296838964E1
3.508505083E0,2.849690250E0,1.243200727E1,8.568270081E-1,1.278318004E1
3.518472083E0,4.496204782E0,1.216981695E1,2.365407477E0,1.318770089E1
3.528439083E0,7.780513308E0,1.219154170E1,5.367679065E0,1.542666700E1
3.538407083E0,1.132557842E1,1.174099619E1,8.595147393E0,1.843898795E1
3.548374083E0,1.322908685E1,1.057979764E1,9.787536752E0,1.956365846E1
3.558341083E0,1.429820111E1,8.461597572E0,8.642671223E0,1.872786572E1
3.568309083E0,1.455141713E1,3.857670706E0,8.985201116E0,1.753166286E1
3.578276083E0,1.311076610E1,-4.650023975E0,1.121685763E1,1.786988544E1
3.588243083E0,7.973421723E0,-1.539365475E1,1.339722003E1,2.190948573E1
3.598210083E0,8.192714383E-1,-2.252573406E1,1.339629500E1,2.622099579E1
3.608178083E0,-3.302101896E0,-2.042008387E1,1.160422280E1,2.371796132E1
3.618145083E0,-1.483901418E0,-1.319238037E1,6.765167699E0,1.489994487E1
3.628112083E0,-3.148530624E0,-1.864592872E1,4.452367036E0,1.942697802E1
3.638080083E0,-7.355195612E0,-3.466090509E1,7.072440051E0,3.613165721E1
3.648047083E0,-7.967762203E0,-4.443235557E1,7.038033280E0,4.568646811E1
3.658014083E0,-6.638395386E0,-4.985041366E1,2.891891359E0,5.037355527E1
3.667981083E0,-3.090213419E0,-4.170264609E1,-1.037987636E0,4.182986407E1
3.677949083E0,-3.856007758E-1,-2.565690634E1,-2.893078929E0,2.582238248E1
3.687916083E0,-1.430538851E-1,-9.883714678E0,-8.474286615E0,1.302005430E1
3.697883083E0,-1.686504809E0,-3.163103347E0,-4.778187458E1,4.791614613E1
3.707850083E0,-7.974011707E-1,9.306083447E-1,-5.132087613E1,5.133550630E1
3.717818083E0,-2.556601489E-1,1.112918682E0,-1.339080563E1,1.343940570E1
3.727785083E0,1.114514971E0,-3.988391644E-1,-7.067239537E0,7.165688451E0
3.737752083E0,1.419861251E0,-9.309609318E-1,-4.001450230E0,4.346757202E0
3.747720083E0,1.702511854E0,-2.042730635E-1,-3.416445660E0,3.822613641E0
3.757687083E0,3.200910567E0,1.489963519E0,-2.504504551E0,4.328783061E0
3.767654083E0,4.339454963E0,3.165122976E0,-1.493605896E0,5.574919856E0
3.777621083E0,4.878485508E0,4.700759096E0,-5.629105738E-1,6.798060403E0
3.787589083E0,5.082115670E0,5.885604962E0,-5.822379604E-2,7.776351038E0
3.797556083E0,5.188082421E0,6.893433976E0,-4.008456364E-2,8.627701777E0
3.807523083E0,5.313583549E0,8.065437602E0,2.845582581E-1,9.662630452E0
3.817490083E0,5.443682928E0,9.122755110E0,4.475049555E-1,1.063290202E1
3.827458083E0,5.453873456E0,1.010407753E1,4.514120650E-1,1.149090471E1
3.837425083E0,5.725729807E0,1.091510388E1,3.030530743E-1,1.232944912E1
3.847392083E0,6.203988193E0,1.142379644E1,2.693702616E-2,1.299974308E1
3.857360083E0,6.734079223E0,1.186890637E1,6.767953312E-1,1.366297235E1
3.867327083E0,7.639112431E0,1.238274565E1,1.347212520E0,1.461175589E1
3.877294083E0,8.388587483E0,1.282526995E1,2.147032099E0,1.547467919E1
3.887261083E0,1.029378810E1,1.278255721E1,4.189918855E0,1.693845513E1
3.897229083E0,1.389845505E1,1.268409360E1,7.803185302E0,2.037014934E1
3.907196083E0,1.427665061E1,1.246020606E1,8.463156440E0,2.075342152E1
3.917163083E0,1.181341396E1,1.189565738E1,6.180150265E0,1.786778305E1
3.927131083E0,1.017624152E1,1.196875343E1,4.362164964E0,1.630446053E1
3.937098083E0,8.900284342E0,1.215677065E1,2.724265720E0,1.531090323E1
3.947065083E0,7.730285726E0,1.177966383E1,1.832722623E0,1.420833099E1
3.957032083E0,7.248603795E0,1.084507879E1,1.786027928E0,1.316616447E1
3.967000083E0,6.846723493E0,9.578930317E0,1.999443113E0,1.194283473E1
3.976967083E0,6.144582236E0,8.156088156E0,2.633740881E0,1.054581699E1
3.986934083E0,4.629601698E0,5.342625500E0,3.700837272E0,7.979539813E0
3.996901083E0,2.529201144E0,5.571572059E-1,5.604096612E0,6.173587402E0
4.006869083E0,2.950071228E-1,-7.231047530E0,8.499000456E0,1.116279922E1
4.016836083E0,-3.272420260E0,-1.956110217E1,1.228617070E1,2.333014022E1
4.026803083E0,-7.629051127E0,-3.123131664E1,1.567724120E1,3.576833029E1
4.036771083E0,-1.048420852E1,-3.888115638E1,1.442266728E1,4.277471544E1
4.046738083E0,-9.097480520E0,-3.992020894E1,8.660940263E0,4.184972066E1
4.056705083E0,-6.522329324E0,-3.732702025E1,3.015541259E0,3.801237574E1
4.066672083E0,-5.372214165E0,-3.205341879E1,-5.777816512E-2,3.250054891E1
4.076640083E0,-3.751485270E0,-2.522835689E1,-1.915933910E0,2.557761592E1
4.086607083E0,-3.707325928E0,-1.717238126E1,-3.556741413E0,1.792443452E1
4.096574083E0,-4.972120188E0,-1.074453709E1,-4.444151406E0,1.264585063E1
4.106541083E0,-4.369407325E0,-6.150755727E0,-5.170175908E0,9.146268928E0
4.116509083E0,-2.627007228E0,-3.039216051E0,-9.824568923E0,1.061414884E1
4.126476083E0,2.268557705E0,-2.342410963E0,-4.066276322E1,4.079330283E1
4.136443083E0,6.757717177E0,-1.134314228E0,-3.220287128E1,3.292382616E1
4.146411083E0,4.481081543E0,3.564152759E-1,-7.570039272E0,8.804125069E0
4.156378083E0,1.794271917E0,-1.952695209E-1,-4.513092125E0,4.860611322E0
4.166345083E0,1.216146888E0,-5.556720132E-1,-3.251119730E0,3.515332721E0
4.176312083E0,1.540689869E0,8.009457529E-2,-2.244900455E0,2.723916017E0
4.186280083E0,1.874166518E0,1.110364618E0,-1.487715849E0,2.637936347E0
4.196247083E0,2.273245710E0,2.518647212E0,-1.237025249E0,3.611296347E0
4.206214083E0,2.680614793E0,3.904040880E0,-8.931250611E-1,4.819222265E0
4.216182083E0,2.941264663E0,5.273392712E0,-6.831939393E-1,6.076714777E0
4.226149083E0,3.300173777E0,6.712507090E0,-7.454141611E-1,7.516950223E0
4.236116083E0,3.521749044E0,8.099090082E0,-9.252979034E-1,8.879986075E0
4.246083083E0,3.414860772E0,9.491816159E0,-1.121469650E0,1.014955872E1
4.256051083E0,3.242279325E0,1.128170208E1,-1.025374607E0,1.178306285E1
4.266018083E0,3.130431445E0,1.240147194E1,-5.712413943E-1,1.280321929E1
4.275985083E0,2.668378032E0,1.279293134E1,-7.191683489E-1,1.308803028E1
4.285952083E0,2.463255953E0,1.298220103E1,-9.385506177E-1,1.324711481E1
4.295920083E0,3.176897806E0,1.294869298E1,-1.259245984E0,1.339205100E1
4.305887083E0,4.894623823E0,1.313865030E1,-1.657595006E0,1.411839564E1
4.315854083E0,7.559344130E0,1.355847688E1,-2.084265747E0,1.566269908E1
4.325822083E0,9.368180877E0,1.315713218E1,-2.355937327E0,1.632248084E1
4.335789083E0,9.763174328E0,1.176797291E1,-1.570725700E0,1.537113979E1
4.345756083E0,1.195301389E1,1.094009371E1,6.652077578E-2,1.620384573E1
4.355723083E0,1.529331185E1,1.045280547E1,3.404523187E0,1.883447126E1
4.365691083E0,1.701643601E1,9.439353771E0,7.071505081E0,2.070426715E1
4.375658083E0,1.551338701E1,8.785687686E0,7.174364621E0,1.921783006E1
4.385625083E0,1.325832293E1,8.195251052E0,6.185189980E0,1.676907397E1
4.395592083E0,1.185187343E1,7.515991704E0,4.913900047E0,1.486954770E1
4.405560083E0,1.072470567E1,6.643107657E0,4.217313645E0,1.330172641E1
4.415527083E0,8.940914304E0,4.926680306E0,4.412797174E0,1.112137160E1
4.425494083E0,5.647965932E0,5.869897002E-1,6.636968665E0,8.734610989E0
4.435462083E0,1.907797656E0,-7.164517910E0,1.072240187E1,1.303610028E1
4.445428458E0,-4.137331336E0,-1.878917498E1,1.575944837E1,2.486987776E1
4.455395458E0,-1.375296463E1,-3.269160028E1,2.010101067E1,4.076684185E1
4.465362458E0,-1.940312209E1,-4.255982451E1,1.886491045E1,5.043515298E1
4.475330458E0,-2.078654057E1,-4.760818889E1,1.188935292E1,5.329143112E1
4.485297458E0,-1.757861305E1,-4.451327635E1,3.567762246E0,4.799133605E1
4.495264458E0,-1.329578253E1,-3.501536096E1,-2.517571324E0,3.753919954E1
4.505231458E0,-9.994089060E0,-2.387318982E1,-5.167763931E0,2.639160458E1
4.515199458E0,-7.035624812E0,-1.188303208E1,-7.215807931E0,1.558121792E1
4.525166458E0,-4.069487262E0,-2.680287057E0,-9.966006052E0,1.109350900E1
4.535133458E0,-8.472221378E0,-3.053026589E0,-3.573130808E1,3.684868904E1
4.545101458E0,-7.133518311E0,-6.150323617E-1,-6.130066524E1,6.171739549E1
4.555068458E0,1.910690566E0,6.439702320E-1,-1.478723299E1,1.492406432E1
4.565035458E0,1.481750812E0,-9.575669324E-1,-7.903328226E0,8.097846438E0
4.575002458E0,1.446217867E0,-1.552783665E0,-5.351855330E0,5.757172805E0
4.584970458E0,3.117675744E0,-6.793593353E-1,-2.550367772E0,4.084826425E0
4.594937458E0,4.472867667E0,4.561348611E-1,-1.475336124E0,4.731936269E0
4.604904458E0,5.154874914E0,1.600560679E0,-9.939898235E-1,5.488401009E0
4.614872458E0,5.337676417E0,2.732400951E0,-4.391830520E-1,6.012460914E0
4.624839458E0,5.725166720E0,3.925061036E0,1.929791665E-1,6.944125508E0
4.634806458E0,5.906522791E0,5.215583045E0,7.492452568E-1,7.915218661E0
4.644773458E0,6.054995291E0,6.647846240E0,9.323437252E-1,9.040248472E0
4.654741458E0,6.665190836E0,7.855223182E0,8.303296195E-1,1.033531554E1
4.664708458E0,7.357711669E0,8.758092921E0,7.430939859E-1,1.146264809E1
4.674675458E0,8.177242212E0,9.494536284E0,2.473506707E-1,1.253294426E1
4.684642458E0,9.266001953E0,1.011301090E1,-6.718246132E-1,1.373255730E1
4.694610458E0,1.109800361E1,1.071023147E1,-5.998366177E-1,1.543484844E1
4.704577458E0,1.224150733E1,1.095113442E1,7.708051103E-1,1.644311367E1
4.714544458E0,1.368185547E1,1.110985241E1,2.950728967E0,1.786977311E1
4.724512458E0,1.487630948E1,1.097211774E1,5.405447985E0,1.925904513E1
4.734479458E0,1.568171782E1,1.091014427E1,7.839153280E0,2.064945147E1
4.744446458E0,1.342748872E1,1.104454135E1,7.973141057E0,1.912721426E1
4.754413458E0,9.515998489E0,1.136737314E1,5.311021884E0,1.574732844E1
4.764381458E0,7.694493749E0,1.157677129E1,3.241836691E0,1.427362507E1
4.774348458E0,7.328363909E0,1.137200882E1,1.978128258E0,1.367261839E1
4.784315458E0,7.988836738E0,1.092939564E1,1.074217715E0,1.358039562E1
4.794282458E0,9.571743504E0,1.078924256E1,7.633832395E-1,1.444329542E1
4.804250458E0,1.063184253E1,1.041578557E1,8.632004732E-1,1.490871490E1
4.814217458E0,1.025211148E1,9.465975559E0,1.095859430E0,1.399683504E1
4.824184458E0,8.413070945E0,8.253725547E0,1.227715897E0,1.184951621E1
4.834152458E0,6.033778669E0,5.662522575E0,1.873294113E0,8.484095578E0
4.844119458E0,3.836821581E0,3.446196878E-1,5.028275093E0,6.334312354E0
4.854086458E0,2.120049537E0,-6.849142486E0,9.712825708E0,1.207246230E1
4.864053458E0,-9.612160335E-1,-1.560556135E1,1.343462116E1,2.061423117E1
4.874021458E0,-7.870563937E0,-2.708547235E1,1.776751086E1,3.333546207E1
4.883988458E0,-1.346335788E1,-3.793603583E1,1.988092381E1,4.489605719E1
4.893955458E0,-1.564706138E1,-4.489645141E1,1.594573598E1,5.014766570E1
4.903922458E0,-1.248696525E1,-4.339248206E1,7.275816151E0,4.573586449E1
4.913890458E0,-7.410904375E0,-3.488063176E1,6.035782510E-1,3.566432787E1
4.923857458E0,-3.444374886E0,-2.515704191E1,-1.473201891E0,2.543444122E1
4.933824458E0,-1.905252070E0,-1.694049939E1,-3.289609612E0,1.736179820E1
4.943792458E0,-2.542522855E0,-1.040861455E1,-5.054708601E0,1.184709915E1
4.953759458E0,-4.412333782E0,-8.284958450E0,-8.283468579E0,1.251898868E1
4.963726458E0,-6.033193363E0,-8.545978156E0,-1.438416454E1,1.778587513E1
4.973693458E0,-3.799177499E0,-9.188725736E0,-5.961652679E1,6.044002562E1
4.983661458E0,-9.856028697E-1,-5.319140158E0,-3.540874760E1,3.581960457E1
4.993628458E0,1.509348501E0,-2.112946925E0,-1.052605471E1,1.084160990E1
5.003595458E0,3.386975108E0,-2.677641776E0,-6.977491209E0,8.205287895E0
5.013562458E0,3.240847342E0,-3.483125553E0,-4.099021841E0,6.279907258E0
5.023530458E0,3.877222041E0,-2.958225097E0,-2.363382148E0,5.419365429E0
5.033497458E0,4.338403634E0,-2.136579031E0,-9.587925088E-1,4.930111472E0
5.043464458E0,4.905357850E0,-9.654858166E-1,3.102876880E-1,5.009089433E0
5.053432458E0,5.732591515E0,4.157914120E-1,9.848291369E-1,5.831412899E0
5.063399458E0,6.429603009E0,1.961425686E0,1.165580460E0,6.822430900E0
5.073366458E0,6.955236121E0,3.722941502E0,1.356337684E0,8.004702046E0
5.083333458E0,7.186215758E0,5.339125941E0,1.608000677E0,9.095802818E0
5.093301458E0,7.176324023E0,7.085832514E0,1.708827724E0,1.022881914E1
5.103268458E0,7.174937063E0,8.543405966E0,1.789659049E0,1.129922063E1
5.113235458E0,7.676632844E0,9.466908774E0,1.831832092E0,1.232512322E1
5.123202458E0,1.132871837E1,1.063119115E1,3.041122828E0,1.583068265E1
5.133170458E0,1.435390403E1,1.180323045E1,5.264318419E0,1.931486107E1
5.143137458E0,1.663848837E1,1.284341152E1,7.454243352E0,2.230153041E1
5.153104458E0,1.660196900E1,1.342641166E1,9.721065019E0,2.346045630E1
5.163072458E0,1.302477227E1,1.291751913E1,9.800371975E0,2.079793942E1
5.173039458E0,9.790880774E0,1.272601112E1,7.342515925E0,1.765574257E1
5.183006458E0,7.263378539E0,1.253752496E1,4.485114952E0,1.516780986E1
5.192973458E0,5.122873687E0,1.214694265E1,2.586332241E0,1.343432786E1
5.202941458E0,3.094002707E0,1.209212617E1,1.197861183E0,1.253902865E1
5.212908458E0,1.901757774E0,1.199960217E1,2.879204071E-1,1.215277882E1
5.222875458E0,1.359173730E0,1.189748405E1,-2.718639346E-1,1.197795434E1
5.232842458E0,1.391893726E0,1.169974175E1,-6.461910045E-1,1.179995288E1
5.242810458E0,2.011060069E0,1.128753760E1,-4.741466608E-1,1.147508966E1
5.252777458E0,2.759374157E0,1.060478396E1,-2.442436796E-2,1.095792795E1
5.262744458E0,3.893108341E0,9.739625836E0,8.976540220E-1,1.052722123E1
5.272712458E0,5.011819859E0,8.074094989E0,2.548240555E0,9.838845365E0
5.282679458E0,4.559464054E0,3.892890825E0,5.318145547E0,8.014111522E0
5.292646458E0,2.570892961E0,-2.918978586E0,9.777125784E0,1.052245766E1
5.302613458E0,-2.632003966E0,-1.496309502E1,1.388456323E1,2.058161203E1
5.312581458E0,-7.909460785E0,-2.884251153E1,1.886323815E1,3.535918261E1
5.322548458E0,-1.358772582E1,-4.034286907E1,2.085844495E1,4.740514849E1
5.332515458E0,-1.484525491E1,-4.627853205E1,1.607389292E1,5.119037171E1
5.342482458E0,-9.122272714E0,-4.370555134E1,9.681080005E0,4.568494705E1
5.352450458E0,-2.107619380E0,-3.543105122E1,4.496098947E0,3.577731622E1
5.362417458E0,6.722871280E-1,-2.768649595E1,1.004852927E0,2.771288071E1
5.372384458E0,1.377680899E0,-2.071966012E1,-9.190196018E-1,2.078573831E1
5.382351458E0,1.010939732E-1,-1.350725059E1,-3.114611219E0,1.386206484E1
5.392319458E0,-2.136216796E0,-9.471789445E0,-4.500903896E0,1.070216583E1
5.402286458E0,-3.232455126E0,-7.166102505E0,-8.421638285E0,1.152066763E1
5.412253458E0,-2.787715611E0,-4.714891816E0,-5.277160307E1,5.305510017E1
5.422221458E0,-6.365468994E-1,-3.301803980E0,-3.785394092E1,3.800299915E1
5.432188458E0,2.303254498E0,-1.048612173E0,-1.181089147E1,1.207897868E1
5.442155458E0,4.244331874E0,-9.698706436E-1,-8.233811100E0,9.314002757E0
5.452122833E0,4.586602151E0,-1.517676398E0,-4.902016751E0,6.882588841E0
5.462090833E0,4.875988747E0,-7.873691028E-1,-2.494441493E0,5.533304142E0
5.472057833E0,5.498106472E0,5.497657406E-1,-8.161789191E-1,5.585478062E0
5.482024833E0,5.659822916E0,1.828709094E0,1.731794710E-1,5.950442296E0
5.491991833E0,5.354558498E0,3.046584712E0,5.439816749E-1,6.184568794E0
5.501959833E0,5.315271056E0,4.596195678E0,6.607562725E-1,7.057883532E0
5.511926833E0,5.294120507E0,6.214384543E0,9.001753414E-1,8.213196871E0
5.521893833E0,5.167346440E0,7.659890512E0,1.115681564E0,9.306993996E0
5.531861833E0,5.296622531E0,9.115079470E0,1.274036370E0,1.061894781E1
5.541828833E0,5.265034118E0,1.031250971E1,1.155491674E0,1.163630534E1
5.551795833E0,5.464847510E0,1.102988121E1,7.606689620E-1,1.233294187E1
5.561762833E0,8.331046203E0,1.189919612E1,4.706640226E-1,1.453336588E1
5.571730833E0,1.128870821E1,1.292167650E1,8.020877141E-1,1.717696136E1
5.581697833E0,1.145671509E1,1.348522764E1,5.700521437E-1,1.770402905E1
5.591664833E0,9.641853958E0,1.334789057E1,9.377208978E-1,1.649275147E1
5.601631833E0,8.201633288E0,1.279947788E1,2.215353890E0,1.536233106E1
5.611599833E0,7.737940900E0,1.283722283E1,3.926947348E0,1.549486801E1
5.621566833E0,6.324982873E0,1.343674019E1,4.751034041E0,1.559242507E1
5.631533833E0,4.684926006E0,1.408260725E1,3.403849003E0,1.522677073E1
5.641501833E0,4.151953468E0,1.443881379E1,2.590243444E0,1.524557058E1
5.651468833E0,4.474922963E0,1.442463897E1,2.695176407E0,1.534141847E1
5.661435833E0,4.981754061E0,1.406392891E1,2.739335164E0,1.516957241E1
5.671402833E0,5.384020863E0,1.323685195E1,2.675509881E0,1.453823522E1
5.681370833E0,5.625214416E0,1.231189260E1,2.780562127E0,1.381872868E1
5.691337833E0,6.401517663E0,1.134545778E1,3.325639570E0,1.344465393E1
5.701304833E0,8.721857725E0,1.041271930E1,4.870410211E0,1.442970620E1
5.711271833E0,1.353345196E1,8.558631531E0,8.463771567E0,1.811187248E1
5.721239833E0,1.545559781E1,1.718363948E0,1.308403614E1,2.032290038E1
5.731206833E0,8.520487804E0,-1.059898235E1,1.691287715E1,2.170213245E1
5.741173833E0,-2.294783929E0,-2.271987565E1,1.999954043E1,3.035523678E1
5.751141833E0,-1.072482145E1,-3.139791083E1,1.959826824E1,3.853495449E1
5.761108833E0,-1.357611676E1,-3.771620625E1,1.599248447E1,4.315764960E1
5.771075833E0,-1.021119969E1,-3.873685411E1,1.140223658E1,4.165121204E1
5.781042833E0,-4.215354243E0,-3.552020489E1,5.959971605E0,3.626258992E1
5.791010833E0,-8.807479674E-1,-3.232000037E1,9.553482065E-1,3.234610998E1
5.800977833E0,4.841101335E-1,-2.875034772E1,-9.901487875E-1,2.877146592E1
5.810944833E0,1.951291877E-1,-2.562698497E1,-2.120900453E0,2.571533886E1
5.820911833E0,6.179971924E-1,-2.091737553E1,-4.529061456E0,2.141099991E1
5.830879833E0,-2.882570897E0,-1.669737684E1,-7.335615626E0,1.846409665E1
5.840846833E0,-5.213468692E0,-1.561429007E1,-1.946519730E1,2.549274831E1
5.850813833E0,3.327158677E0,-1.658843035E1,-5.496096901E1,5.750612247E1
5.860781833E0,5.388639579E0,-1.024962876E1,-3.419701974E1,3.610441089E1
5.870748833E0,6.315161889E0,-3.931740310E0,-1.936899540E1,2.074844174E1
5.880715833E0,5.113123455E0,-3.529144310E0,-1.170875815E1,1.325495788E1
5.890682833E0,4.933131539E0,-3.894428058E0,-4.882132709E0,7.958490841E0
5.900650833E0,5.273416686E0,-3.645823159E0,-1.824821573E0,6.665652543E0
5.910617833E0,5.406120415E0,-3.070114492E0,-2.135650201E-1,6.220719488E0
5.920584833E0,6.224987884E0,-2.200041786E0,1.021168120E0,6.680826472E0
5.930551833E0,7.043076503E0,-9.671353161E-1,1.867202484E0,7.350287237E0
5.940519833E0,7.044732435E0,5.113390088E-1,2.515247056E0,7.497745689E0
5.950486833E0,6.795005456E0,2.450390325E0,3.099996103E0,7.860438138E0
5.960453833E0,6.376079936E0,4.786007407E0,3.406358628E0,8.669690961E0
5.970420833E0,5.872385577E0,7.202119015E0,3.319215235E0,9.867756606E0
5.980388833E0,5.375202677E0,8.871037738E0,3.223372353E0,1.086177903E1
5.990355833E0,5.634079964E0,9.907849646E0,2.794822317E0,1.173538979E1
6.000322833E0,6.033165296E0,1.051518473E1,2.233929909E0,1.232715037E1
6.010290833E0,6.303568615E0,1.100026039E1,2.047901913E0,1.284268695E1
6.020257833E0,8.469051602E0,1.162619898E1,3.846624731E0,1.488925315E1
6.030224833E0,1.003165625E1,1.215844529E1,8.213754566E0,1.777435465E1
6.040191833E0,9.999293082E0,1.249592553E1,8.869195865E0,1.829744934E1
6.050159833E0,8.567657293E0,1.264396884E1,8.109676466E0,1.729281793E1
6.060126833E0,6.928275195E0,1.303478621E1,6.228165261E0,1.602175681E1
6.070093833E0,5.672561660E0,1.327156102E1,4.640635686E0,1.516073175E1
6.080060833E0,4.896744024E0,1.344358611E1,4.032871413E0,1.486513240E1
6.090028833E0,4.674371197E0,1.365462849E1,4.065029930E0,1.499410196E1
6.099995833E0,5.108645657E0,1.375411536E1,4.352764395E0,1.530426436E1
6.109962833E0,5.357685589E0,1.352310356E1,4.833145906E0,1.532770120E1
6.119929833E0,5.324589763E0,1.278579540E1,4.863531547E0,1.467929696E1
6.129897833E0,4.987895392E0,1.176725721E1,4.399638015E0,1.351681387E1
6.139864833E0,4.675788562E0,1.088904635E1,4.109499759E0,1.254281935E1
6.149831833E0,5.618145717E0,1.024744424E1,4.690748663E0,1.259272797E1
6.159799833E0,7.741162131E0,9.355626320E0,6.518410521E0,1.378198138E1
6.169766833E0,1.100444816E1,6.954294720E0,9.336893011E0,1.601991465E1
6.179733833E0,1.078341523E1,-4.402111387E-1,1.219771987E1,1.628681061E1
6.189700833E0,2.575493842E0,-1.268215467E1,1.602857349E1,2.060061610E1
6.199668833E0,-6.919747031E0,-2.393339743E1,1.828675414E1,3.090462406E1
6.209635833E0,-1.257716440E1,-3.327900689E1,1.787147202E1,3.981289836E1
6.219602833E0,-1.133670099E1,-3.645011566E1,1.484670970E1,4.095798469E1
6.229569833E0,-7.132686253E0,-3.532149545E1,9.969762304E0,3.738822561E1
6.239537833E0,-1.947415465E0,-3.251894603E1,4.130074942E0,3.283796274E1
6.249504833E0,1.242311570E0,-3.030146668E1,-2.947750980E-1,3.032835494E1
6.259471833E0,1.287559810E0,-2.959411497E1,-2.009391127E0,2.969018531E1
6.269439833E0,3.744551057E-1,-2.799952313E1,-4.279920075E0,2.832721709E1
6.279406833E0,1.053454837E-1,-2.186180611E1,-6.898366102E0,2.292459637E1
6.289373833E0,2.101185250E-1,-1.531442848E1,-8.923171513E0,1.772565540E1
6.299340833E0,8.835154545E-1,-1.166940054E1,-2.509979767E1,2.769395876E1
6.309308833E0,3.625219618E0,-7.935436456E0,-4.288327845E1,4.376172917E1
6.319275833E0,4.716215918E0,-4.001263120E0,-2.827313540E1,2.894171703E1
6.329242833E0,4.770107951E0,-2.943132849E0,-1.774376415E1,1.860798557E1
6.339209833E0,4.562392631E0,-3.219336020E0,-8.974947438E0,1.057020494E1
6.349177833E0,4.649833941E0,-3.243563958E0,-3.531234105E0,6.679167398E0
6.359144833E0,4.460266332E0,-2.729931672E0,-1.414211378E0,5.417240673E0
6.369111833E0,4.570859400E0,-1.744265360E0,-4.800637141E-2,4.892598687E0
6.379079833E0,4.745188872E0,-1.637600452E-1,5.708757971E-1,4.782210154E0
6.389046833E0,5.009970385E0,1.728075004E0,7.682994322E-1,5.355028524E0
6.399013833E0,5.171432474E0,3.498794337E0,9.648788756E-1,6.317932169E0
6.408980833E0,4.954296121E0,4.871677303E0,9.397854035E-1,7.011525255E0
6.418948833E0,5.151977034E0,6.272641522E0,7.597731686E-1,8.152677737E0
6.428915833E0,5.629463003E0,7.661198534E0,6.832711226E-1,9.531614559E0
6.438882833E0,6.378527580E0,9.026388903E0,8.378381022E-1,1.108437113E1
6.448849333E0,7.662068015E0,1.004446750E1,1.140371359E0,1.268459934E1
6.458817333E0,1.056154964E1,1.097122078E1,9.744718176E-1,1.525986932E1
6.468784333E0,1.321348881E1,1.237498873E1,7.998219180E-1,1.812115747E1
6.478751333E0,1.394566663E1,1.365442267E1,2.027982203E0,1.962237468E1
6.488719333E0,1.352664230E1,1.418387869E1,5.323752442E0,2.030996816E1
6.498686333E0,1.213769469E1,1.375733600E1,7.622882899E0,1.986696429E1
6.508653333E0,9.325533625E0,1.321104351E1,7.177577081E0,1.769222600E1
6.518620333E0,6.356974159E0,1.339118804E1,4.427776571E0,1.547062516E1
6.528588333E0,4.079923373E0,1.405371850E1,2.410598268E0,1.483117536E1
6.538555333E0,2.394403966E0,1.420883812E1,1.618447897E0,1.449978016E1
6.548522333E0,1.231585292E0,1.379248713E1,1.074739287E0,1.388900889E1
6.558489333E0,8.981740587E-1,1.319658451E1,8.702235639E-1,1.325571004E1
6.568457333E0,1.171132757E0,1.251513129E1,9.980752730E-1,1.260937022E1
6.578424333E0,1.635283493E0,1.167838655E1,1.540577602E0,1.189252890E1
6.588391333E0,1.692468969E0,1.067252278E1,2.488280282E0,1.108867587E1
6.598359333E0,2.091298047E0,9.815309272E0,3.660293849E0,1.068230194E1
6.608326333E0,3.264972369E0,8.303019914E0,5.763839035E0,1.062177126E1
6.618293333E0,3.767957169E0,4.511451981E0,9.348200941E0,1.104262473E1
6.628260333E0,1.393495424E0,-4.260395930E0,1.509130341E1,1.574294260E1
6.638228333E0,-6.658318604E0,-2.238749418E1,2.308084532E1,3.283684704E1
6.648195333E0,-1.174832509E1,-4.211812584E1,2.804268026E1,5.194565991E1
6.658162333E0,-1.331989761E1,-5.555611266E1,2.201853254E1,6.122676785E1
6.668129333E0,-7.809018484E0,-5.686379800E1,1.367576384E1,5.900422704E1
6.678097333E0,-2.442624637E-1,-4.785446893E1,6.764582977E0,4.833083326E1
6.688064333E0,2.190488021E0,-3.648232680E1,1.761993533E0,3.659047728E1
6.698031333E0,2.001000081E0,-2.664006420E1,-2.047458694E0,2.679345273E1
6.707998333E0,1.671493545E0,-1.765144013E1,-4.798989395E0,1.836838394E1
6.717966333E0,-1.292424694E-2,-1.201795307E1,-5.913771000E0,1.339417972E1
6.727933333E0,1.216086954E0,-8.946177968E0,-1.003493303E1,1.349862395E1
6.737900333E0,9.096529178E0,-7.871328169E0,-4.134697165E1,4.306131344E1
6.747868333E0,1.382426908E1,-8.922776826E0,-4.088839090E1,4.407478727E1
6.757835333E0,1.252495929E1,-3.273894635E0,-2.020192192E1,2.399397092E1
6.767802333E0,8.471545440E0,-1.278435230E-1,-1.549563370E1,1.766063673E1
6.777769333E0,5.730421028E0,2.838986921E-1,-8.657227281E0,1.038585133E1
6.787737333E0,5.114885221E0,3.076588529E-1,-3.762319283E0,6.357023768E0
6.797704333E0,4.832430207E0,8.053586465E-1,-1.413538218E0,5.098928764E0
6.807671333E0,4.870831211E0,1.809372352E0,-3.630186827E-1,5.208704979E0
6.817638333E0,4.935535330E0,3.233357059E0,-3.357120395E-2,5.900443533E0
6.827606333E0,4.672165919E0,4.773118975E0,-1.123257436E-1,6.680150911E0
6.837573333E0,4.606490285E0,6.137227609E0,-7.302894607E-2,7.674024283E0
6.847540333E0,4.784499410E0,7.543953089E0,4.107201219E-2,8.933328032E0
6.857508333E0,4.872736233E0,8.960435818E0,3.721029170E-1,1.020644057E1
6.867475333E0,4.908943362E0,1.000214886E1,4.940885532E-1,1.115279473E1
6.877442333E0,5.491792064E0,1.096077882E1,4.893955779E-1,1.226939120E1
6.887409333E0,7.330979369E0,1.179532735E1,7.840239108E-2,1.388809392E1
6.897377333E0,9.487948226E0,1.324671737E1,8.291110598E-2,1.629427988E1
6.907344333E0,1.135723407E1,1.433586771E1,5.732685874E-1,1.829842905E1
6.917311333E0,1.124362618E1,1.422720188E1,1.234252499E0,1.817569207E1
6.927279333E0,1.005126898E1,1.399945283E1,2.938066236E0,1.748270348E1
6.937246333E0,8.651623895E0,1.451000597E1,4.761118734E0,1.755161306E1
6.947213333E0,6.496903292E0,1.515611278E1,4.342886109E0,1.705221882E1
6.957180333E0,4.244592075E0,1.494165445E1,4.008325971E0,1.604170430E1
6.967148333E0,2.792194870E0,1.409021448E1,4.018973751E0,1.491585218E1
6.977115333E0,2.633717785E0,1.330597306E1,4.098104120E0,1.416968051E1
6.987082333E0,3.483522579E0,1.261623082E1,4.628375244E0,1.388258143E1
6.997049333E0,4.398474711E0,1.190086842E1,5.286223258E0,1.374486833E1
7.007017333E0,5.049937273E0,1.096786798E1,6.074444300E0,1.351646655E1
7.016984333E0,5.928812962E0,9.704509798E0,7.743115686E0,1.375805851E1
7.026951333E0,7.384484900E0,7.636677650E0,1.038449712E1,1.485554588E1
7.036918333E0,7.675997837E0,2.994735112E0,1.278290804E1,1.520829113E1
7.046886333E0,2.679244206E0,-5.794891258E0,1.439986665E1,1.575167527E1
7.056853333E0,-3.970465250E0,-1.812444011E1,1.758439712E1,2.556307778E1
7.066820333E0,-8.834283310E0,-3.170847751E1,2.009956758E1,3.856766423E1
7.076788333E0,-7.987135198E0,-4.074194388E1,1.826330447E1,4.535690256E1
7.086755333E0,-1.688312768E0,-4.299633554E1,1.349334474E1,4.509551665E1
7.096722333E0,3.048678015E0,-4.046994544E1,8.424496989E0,4.144976563E1
7.106689333E0,2.498171432E0,-3.461013722E1,3.479447362E0,3.487418835E1
7.116657333E0,8.398355842E-3,-2.891143149E1,-4.963525951E-1,2.891569310E1
7.126624333E0,-2.345633363E0,-2.389231489E1,-2.882412438E0,2.417959901E1
7.136591333E0,-3.353637208E0,-1.905428422E1,-4.274493859E0,1.981373078E1
7.146558333E0,-3.222782369E0,-1.530778838E1,-5.231538928E0,1.649496017E1
7.156526333E0,-1.703142623E0,-1.256115823E1,-5.930726171E0,1.399488849E1
7.166493333E0,-2.289708254E-1,-1.229391358E1,-1.969725341E1,2.322013202E1
7.176460333E0,4.789535033E0,-1.360142585E1,-4.882790404E1,5.091269629E1
7.186428333E0,9.208455411E0,-5.922002125E0,-2.636410837E1,2.854701333E1
7.196395333E0,9.306479303E0,-2.143901500E0,-1.820564039E1,2.055850707E1
7.206362333E0,7.556005955E0,-2.493396011E0,-1.178651910E1,1.422083972E1
7.216329333E0,5.839337699E0,-3.141182721E0,-5.884409207E0,8.865165839E0
7.226297333E0,6.109790719E0,-2.411103467E0,-2.744740915E0,7.118747449E0
7.236264333E0,6.891847626E0,-9.472489357E-1,-1.008355263E0,7.029340266E0
7.246231333E0,7.056188300E0,6.377675056E-1,9.533534288E-2,7.085593097E0
7.256198333E0,7.075889323E0,2.322864305E0,6.804765920E-1,7.478432770E0
7.266166333E0,7.231141085E0,4.079678375E0,1.128109602E0,8.378890637E0
7.276133333E0,7.702104485E0,5.790949650E0,2.281241924E0,9.902604509E0
7.286100333E0,7.649598827E0,7.467548107E0,3.227690522E0,1.116685377E1
7.296068333E0,7.018145730E0,8.643635429E0,2.691501431E0,1.145473626E1
7.306035333E0,7.500865542E0,9.402168403E0,2.174377772E0,1.222258865E1
7.316002333E0,9.238192011E0,1.036749459E1,2.988835271E0,1.420430470E1
7.325969333E0,1.164997142E1,1.160397371E1,4.116491860E0,1.695050280E1
7.335937333E0,1.403121491E1,1.320205985E1,3.664226686E0,1.961111759E1
7.345904333E0,1.556551611E1,1.464695478E1,6.177680401E0,2.224819793E1
7.355871333E0,1.412544747E1,1.573690385E1,9.969617293E0,2.337887246E1
7.365838333E0,8.680414415E0,1.595480151E1,9.707913462E0,2.059487483E1
7.375806333E0,4.024757524E0,1.595196444E1,6.648571880E0,1.774450198E1
7.385773333E0,1.906657156E0,1.536435786E1,4.748983423E0,1.619418653E1
7.395740333E0,7.429287290E-1,1.389197399E1,3.199120442E0,1.427491703E1
7.405708333E0,2.644446950E-1,1.271406175E1,2.279034162E0,1.291941539E1
7.415675333E0,-1.861826737E-1,1.171675130E1,2.048997827E0,1.189602106E1
7.425642333E0,-3.800795059E-1,1.097434904E1,1.996640689E0,1.116097537E1
7.435609333E0,-1.917846169E-1,1.048663512E1,2.243017652E0,1.072555013E1
7.445577583E0,-2.483102719E-1,9.962118824E0,3.059266738E0,1.042423054E1
7.455544583E0,-3.571948560E-1,9.148392227E0,4.347203693E0,1.013503076E1
7.465511583E0,-4.056912240E-1,7.891236768E0,5.865830848E0,9.840943788E0
7.475478583E0,-4.770508631E-1,5.718176374E0,7.776851782E0,9.664602537E0
7.485446583E0,-1.646476964E0,1.231751645E0,9.727088821E0,9.942049861E0
7.495413583E0,-4.797795102E0,-7.068583812E0,1.212229780E1,1.483016584E1
7.505380583E0,-9.567511874E0,-2.198202954E1,1.594157511E1,2.879028869E1
7.515348583E0,-1.312328265E1,-3.983907297E1,1.829210551E1,4.575995418E1
7.525315583E0,-1.302614403E1,-5.340778014E1,1.679007392E1,5.748023999E1
7.535282583E0,-7.926953900E0,-5.650815163E1,1.205245983E1,5.832040455E1
7.545249583E0,-8.576593593E-1,-4.846549361E1,5.657005727E0,4.880206312E1
7.555217583E0,1.380715896E0,-3.414064089E1,-1.285565910E-1,3.416879078E1
7.565184583E0,-3.373609543E-2,-2.251785201E1,-2.255803759E0,2.263058656E1
7.575151583E0,-1.484657902E0,-1.574183539E1,-3.408094959E0,1.617481690E1
7.585118583E0,-2.518279714E0,-1.149697083E1,-4.702552730E0,1.267422870E1
7.595086583E0,-2.897599119E0,-9.054113476E0,-1.121114373E1,1.469907464E1
7.605053583E0,-2.281869769E0,-8.042946287E0,-2.951949514E1,3.068055586E1
7.615020583E0,7.454838014E0,-7.383582675E0,-3.082277169E1,3.255971679E1
7.624988583E0,1.175577327E1,-3.790932925E0,-2.231795208E1,2.550804506E1
7.634955583E0,9.898657823E0,-1.989772403E-1,-1.405313144E1,1.719050674E1
7.644922583E0,7.779738552E0,4.450988263E-1,-9.527915114E0,1.230868032E1
7.654889583E0,7.135480637E0,6.398561311E-1,-5.306205533E0,8.915173411E0
7.664857583E0,6.990745677E0,1.091168209E0,-2.841698275E0,7.624724406E0
7.674824583E0,6.396449296E0,1.776558947E0,-1.500564082E0,6.806057439E0
7.684791583E0,6.040020572E0,2.929661449E0,-6.491315693E-1,6.744341073E0
7.694758583E0,5.861801532E0,4.264635161E0,-1.590846115E-1,7.250733630E0
7.704726583E0,5.492941627E0,5.478017194E0,2.158698463E-1,7.760649450E0
7.714693583E0,4.822408079E0,6.663491051E0,3.643015619E-1,8.233495509E0
7.724660583E0,5.028776200E0,8.504422579E0,2.136490738E-1,9.882279059E0
7.734628583E0,5.725069072E0,1.023505516E1,2.943424040E-1,1.173112984E1
7.744595583E0,7.235317751E0,1.154572842E1,2.473220193E-1,1.362772307E1
7.754562583E0,8.549181846E0,1.289967343E1,1.471247751E0,1.554524541E1
7.764529583E0,9.963271894E0,1.474083885E1,2.999145082E0,1.804311470E1
7.774497583E0,1.122516301E1,1.632105238E1,2.916414582E0,2.002215047E1
7.784464583E0,1.160093667E1,1.670932621E1,2.873124136E0,2.054356727E1
7.794431583E0,1.170838276E1,1.707360775E1,4.983578392E0,2.129390434E1
7.804398583E0,9.259160711E0,1.700841831E1,7.442095177E0,2.074615943E1
7.814366583E0,4.822784932E0,1.594923145E1,5.206125759E0,1.745683201E1
7.824333583E0,2.641788696E0,1.454903029E1,3.369542220E0,1.516598644E1
7.834300583E0,2.277532597E0,1.379897052E1,2.725807046E0,1.424881631E1
7.844268583E0,2.837225155E0,1.335424884E1,2.551441905E0,1.388868836E1
7.854235583E0,3.418181406E0,1.264794378E1,2.593407372E0,1.335590535E1
7.864202583E0,4.202602635E0,1.199659670E1,3.267316518E0,1.312461651E1
7.874169583E0,5.520293148E0,1.127815633E1,4.497097067E0,1.333770327E1
7.884137583E0,6.804008998E0,9.900342990E0,5.967589942E0,1.341355507E1
7.894104583E0,6.042550077E0,6.267714658E0,7.528483111E0,1.150976613E1
7.904071583E0,1.390423297E0,-9.410105413E-1,9.682902582E0,9.827379111E0
7.914038583E0,-4.195507624E0,-1.066492374E1,1.275995889E1,1.715107674E1
7.924006583E0,-7.734188157E0,-2.180628797E1,1.650847202E1,2.842290467E1
7.933973583E0,-8.959535932E0,-3.301804799E1,1.990779762E1,3.958263739E1
7.943940583E0,-8.304851847E0,-4.119981829E1,1.999492581E1,4.654237477E1
7.953908583E0,-3.896307353E0,-4.477444107E1,1.365244514E1,4.697149181E1
7.963875583E0,1.020090698E0,-4.322383900E1,7.090933040E0,4.381349306E1
7.973842583E0,1.771917135E0,-3.607602015E1,2.981595249E0,3.624236238E1
7.983809583E0,2.152758277E0,-2.620151835E1,-3.332551856E-1,2.629191874E1
7.993777583E0,7.757843068E-1,-1.794867866E1,-3.438622980E0,1.829155638E1
8.003744583E0,-1.559534714E0,-1.253531705E1,-5.062691220E0,1.360871649E1
8.013711583E0,-1.735697581E0,-8.732421305E0,-5.600407019E0,1.051819313E1
8.023678583E0,-1.056657357E0,-6.482593401E0,-4.752216933E0,8.107040628E0
8.033646583E0,-9.331129995E-1,-6.117883850E0,-1.483428905E1,1.607343567E1
8.043613583E0,3.468252283E0,-6.266759807E0,-3.417150483E1,3.491407732E1
8.053580583E0,5.558049788E0,-3.657807612E0,-2.186259665E1,2.285267176E1
8.063547583E0,7.002590382E0,4.885699511E-2,-9.330760451E0,1.166626545E1
8.073515583E0,8.146154321E0,1.002691650E0,-7.201548327E0,1.091913545E1
8.083482583E0,7.392645274E0,7.594100565E-1,-5.460229964E0,9.221822978E0
8.093449583E0,6.444865412E0,8.794276661E-1,-3.405278648E0,7.342043711E0
8.103417583E0,5.080553879E0,1.839454522E0,-1.704987858E0,5.665916012E0
8.113384583E0,4.763759921E0,3.136675687E0,-1.103580824E0,5.809477910E0
8.123351583E0,4.157190235E0,4.071854215E0,-6.696707913E-1,5.857532447E0
8.133318583E0,3.775673739E0,5.533726541E0,-4.158972466E-1,6.711990177E0
8.143286583E0,3.238285092E0,7.102989414E0,-3.590131938E-1,7.814591443E0
8.153253583E0,3.153781716E0,8.255524151E0,-3.505657214E-1,8.844371908E0
8.163220583E0,3.033353632E0,9.062962652E0,-4.502706885E-1,9.567720208E0
8.173188583E0,3.000228863E0,9.837894727E0,-5.910242790E-1,1.030217723E1
8.183155583E0,3.188515054E0,1.044634312E1,-8.588127226E-1,1.095583279E1
8.193122583E0,3.884559127E0,1.095940823E1,-8.655311733E-1,1.165965577E1
8.203089583E0,6.235648527E0,1.192988231E1,-1.171848748E0,1.351216614E1
8.213057583E0,8.468031263E0,1.306748384E1,-1.178520421E0,1.561587646E1
8.223024583E0,9.877859277E0,1.365974597E1,-8.117141314E-1,1.687660048E1
8.232991583E0,1.041220591E1,1.391269886E1,-1.002546054E-1,1.737778100E1
8.242958583E0,1.079342332E1,1.393006042E1,5.971270180E-1,1.763238869E1
8.252926583E0,1.168766725E1,1.474539383E1,1.605740143E0,1.888403045E1
8.262893583E0,1.188386823E1,1.563962021E1,2.433533387E0,1.979257763E1
8.272860583E0,1.050620224E1,1.547635192E1,2.683282000E0,1.889703036E1
8.282828583E0,8.557496586E0,1.449241872E1,2.606393453E0,1.703097869E1
8.292795583E0,6.976087877E0,1.303846177E1,2.421303935E0,1.498432515E1
8.302762583E0,5.862181016E0,1.147954262E1,2.475468448E0,1.312528130E1
8.312729583E0,5.533568666E0,9.947615390E0,2.989436949E0,1.176911923E1
8.322697583E0,5.045896847E0,7.492998113E0,4.141210964E0,9.937591457E0
8.332664583E0,2.734066238E0,2.755629015E0,6.226302338E0,7.337264494E0
8.342631583E0,-8.892289882E-1,-5.293331718E0,9.690178857E0,1.107743902E1
8.352598583E0,-5.571035870E0,-1.803440351E1,1.425699461E1,2.365455656E1
8.362566583E0,-8.603083819E0,-3.112153868E1,1.640170186E1,3.621572924E1
8.372533583E0,-8.947194214E0,-3.878169524E1,1.438796289E1,4.232121981E1
8.382500583E0,-7.490677353E0,-4.271661877E1,1.015114059E1,4.454060419E1
8.392468583E0,-4.743321564E0,-4.127814291E1,5.733942221E0,4.194356059E1
8.402435583E0,-1.876088790E0,-3.401932754E1,2.129970070E0,3.413753254E1
8.412402583E0,2.050741321E-1,-2.485415614E1,-1.179898829E0,2.488299207E1
8.422369583E0,5.122514668E-1,-1.775341206E1,-3.829098579E0,1.816887551E1
8.432337583E0,-1.015776257E0,-1.267113150E1,-5.458872825E0,1.383432931E1
8.442304583E0,-2.979028029E0,-9.648653101E0,-5.853832362E0,1.167212354E1
8.452271750E0,-4.061840858E0,-8.173827438E0,-7.499465718E0,1.181321261E1
8.462239750E0,-4.236824634E0,-8.448213295E0,-2.798092431E1,2.953396546E1
8.472206750E0,-1.739405446E0,-6.199282939E0,-3.386782618E1,3.447442952E1
8.482173750E0,-4.310698941E-1,-1.937730430E0,-1.401628229E1,1.415615731E1
8.492140750E0,1.825442255E0,-7.736965585E-1,-6.429019457E0,6.727788416E0
8.502108750E0,3.204748387E0,-1.231257555E0,-3.748911033E0,5.083378928E0
8.512075750E0,4.303434068E0,-1.505045827E0,-2.179403016E0,5.053167841E0
8.522042750E0,5.336474814E0,-4.741477937E-1,-1.436999293E0,5.546868174E0
8.532009750E0,5.069355292E0,9.299996495E-1,-1.099128608E0,5.269852571E0
8.541977750E0,4.728642713E0,2.434704584E0,-9.492404974E-1,5.402675804E0
8.551944750E0,4.627560727E0,3.977470799E0,-8.720158817E-1,6.164008755E0
8.561911750E0,4.967406748E0,5.724773203E0,-8.880448540E-1,7.631302751E0
8.571879750E0,4.764334702E0,7.136780473E0,-8.320238502E-1,8.621182307E0
8.581846750E0,4.390313460E0,8.571193689E0,-8.699469906E-1,9.669385777E0
8.591813750E0,3.710499212E0,1.000254413E1,-8.672192645E-1,1.070377330E1
8.601780750E0,3.389980285E0,1.102404686E1,-8.900621434E-1,1.156779089E1
8.611748750E0,3.469995630E0,1.157593865E1,-1.027031854E0,1.212839724E1
8.621715750E0,3.352720073E0,1.170021186E1,-1.281575770E0,1.223838739E1
8.631682750E0,3.699836229E0,1.209357160E1,-1.357432283E0,1.271950803E1
8.641649750E0,5.158198471E0,1.272018496E1,-7.669144461E-1,1.374766433E1
8.651617750E0,6.795956798E0,1.315343089E1,-2.055537499E-2,1.480534348E1
8.661584750E0,7.725982175E0,1.396843686E1,1.633706791E0,1.604609070E1
8.671551750E0,9.366353037E0,1.472942859E1,3.319976542E0,1.776814228E1
8.681518750E0,1.147655352E1,1.549842633E1,5.438571877E0,2.003722943E1
8.691486750E0,1.039172779E1,1.514773606E1,5.530235168E0,1.918398851E1
8.701453750E0,8.687700630E0,1.471757745E1,4.076107480E0,1.756980024E1
8.711420750E0,7.929857043E0,1.451429549E1,3.271324784E0,1.685968482E1
8.721388750E0,7.412639828E0,1.388778388E1,2.672070549E0,1.596739588E1
8.731355750E0,7.171807634E0,1.313729024E1,2.041655332E0,1.510601126E1
8.741322750E0,7.237806911E0,1.225862914E1,2.108158055E0,1.439111419E1
8.751289750E0,8.099002374E0,1.158737814E1,2.720365042E0,1.439658146E1
8.761257750E0,9.040771884E0,1.077543495E1,3.337010066E0,1.445618175E1
8.771224750E0,8.553505862E0,9.303216557E0,3.899980574E0,1.322581375E1
8.781191750E0,5.402821416E0,6.019509709E0,4.037361490E0,9.040202663E0
8.791159750E0,6.062773257E-2,-3.994086832E0,7.250464963E0,8.278021957E0
8.801126750E0,-6.894488813E0,-2.352499515E1,1.446742538E1,2.846516766E1
8.811093750E0,-1.283050671E1,-4.550636278E1,2.008871047E1,5.137126867E1
8.821060750E0,-1.411434594E1,-5.819239766E1,2.164509894E1,6.367165943E1
8.831028750E0,-1.043954632E1,-6.281843402E1,1.537964482E1,6.551086364E1
8.840995750E0,-2.042243709E0,-5.253523991E1,7.097393044E0,5.305181599E1
8.850962750E0,1.500492454E0,-3.701164015E1,2.603379799E0,3.713341582E1
8.860929750E0,8.214586625E-1,-2.214929733E1,-2.357920410E-1,2.216577913E1
8.870897750E0,-3.694238690E-1,-1.195093579E1,-2.950528992E0,1.231531411E1
8.880864750E0,-8.323314138E-1,-7.320249143E0,-4.634081542E0,8.703650662E0
8.890831750E0,-8.539664041E-1,-3.900092255E0,-7.648112465E0,8.627491090E0
8.900799750E0,-5.558871907E-1,-1.621499559E0,-2.866006905E1,2.871128401E1
8.910766750E0,2.335518265E-1,-1.401156592E0,-7.342169536E1,7.343543515E1
8.920733750E0,-2.188933246E0,-2.100378335E-1,-1.794277998E1,1.807702681E1
8.930700750E0,1.437819219E0,-1.072695100E-1,-1.495790854E0,2.077551716E0
8.940668750E0,2.989329653E0,-1.154777729E0,-1.659531603E0,3.608829245E0
8.950635750E0,3.184340727E0,-1.367459089E0,-1.553190047E-1,3.469019201E0
8.960602750E0,4.102152148E0,-8.492449236E-1,5.108279622E-1,4.220167579E0
8.970569750E0,4.979075451E0,-1.139973164E-1,1.122291183E0,5.105264463E0
8.980537750E0,5.727413805E0,7.663518709E-1,1.650438598E0,6.009535061E0
8.990504750E0,5.453706225E0,2.401529236E0,1.879690967E0,6.248479207E0
9.000471750E0,5.958347248E0,4.080483536E0,2.141818721E0,7.532571623E0
9.010439750E0,6.316865183E0,5.199251772E0,2.274509001E0,8.491666263E0
9.020406750E0,6.521397863E0,6.361283557E0,2.612103260E0,9.477216997E0
9.030373750E0,6.927220357E0,8.309039623E0,3.537632128E0,1.138162389E1
9.040340750E0,6.681613326E0,9.887592552E0,3.476797112E0,1.242966457E1
9.050308750E0,7.359958754E0,1.114594143E1,2.722149028E0,1.363125447E1
9.060275750E0,8.207536637E0,1.176592872E1,1.764693777E0,1.445388807E1
9.070242750E0,8.504405038E0,1.191346566E1,1.003657610E0,1.467184030E1
9.080209750E0,8.893339019E0,1.245934535E1,5.068717726E-1,1.531612498E1
9.090177750E0,8.753187107E0,1.306639626E1,-1.749200410E-1,1.572830546E1
9.100144750E0,8.108263779E0,1.346234280E1,-4.118054016E-1,1.572094778E1
9.110111750E0,7.320109980E0,1.358479403E1,2.989360132E-1,1.543437727E1
9.120079750E0,8.156309180E0,1.412717239E1,2.152107482E0,1.645399483E1
9.130046750E0,7.474753046E0,1.431492181E1,3.054719358E0,1.643533480E1
9.140013750E0,6.755432085E0,1.422657974E1,2.760915483E0,1.598918660E1
9.149980750E0,6.755861855E0,1.404018921E1,2.682663365E0,1.581028985E1
9.159948750E0,6.264837243E0,1.366048740E1,1.913677908E0,1.514989323E1
9.169915750E0,5.874828544E0,1.320728609E1,1.323667536E0,1.451544391E1
9.179882750E0,6.060049624E0,1.283902377E1,1.101801370E0,1.424003859E1
9.189849750E0,6.599295055E0,1.228023577E1,1.472301419E0,1.401865034E1
9.199817750E0,6.963743820E0,1.119944111E1,1.905954321E0,1.332493419E1
9.209784750E0,6.903688822E0,9.660939270E0,2.120293951E0,1.206193655E1
9.219751750E0,5.367531715E0,7.207412499E0,2.002056819E0,9.206813952E0
9.229719750E0,3.019236115E0,3.544172823E-1,4.433444277E0,5.375576851E0
9.239686750E0,-2.055698152E0,-1.642719806E1,1.396245516E1,2.165707471E1
9.249653750E0,-9.924798385E0,-4.088266063E1,2.184911999E1,4.740545968E1
9.259620750E0,-1.505513721E1,-6.064522978E1,2.236892109E1,6.636919227E1
9.269588750E0,-1.278360854E1,-6.692269760E1,1.536858773E1,6.984455304E1
9.279555750E0,-3.656045262E0,-5.498647691E1,7.251747258E0,5.558297534E1
9.289522750E0,1.036995071E0,-3.747558864E1,1.962605655E0,3.754126961E1
9.299489750E0,1.024683174E0,-2.228603096E1,-1.359202674E0,2.235094144E1
9.309457750E0,9.352907950E-1,-1.152172093E1,-3.223146066E0,1.200056218E1
9.319424750E0,8.045102155E-1,-5.291665261E0,-1.005841077E1,1.139388367E1
9.329391750E0,4.918217046E0,-2.023145387E0,-7.342736950E1,7.361970231E1
9.339359750E0,3.167959460E0,-1.800609130E0,-4.940020612E1,4.953441758E1
9.349326750E0,-7.847363940E-1,4.010371327E-2,-8.017170591E0,8.055584634E0
9.359293750E0,6.631575778E-1,-1.090564191E0,-4.584303610E0,4.758670804E0
9.369260750E0,1.680666511E0,-2.303490726E0,-2.263904637E0,3.640875396E0
9.379228750E0,2.587311065E0,-1.695617110E0,-9.881168801E-1,3.247409876E0
9.389195750E0,3.414995843E0,-7.597152811E-1,1.949948479E-1,3.503910231E0
9.399162750E0,3.965969326E0,2.325595540E-1,8.669520468E-1,4.066276244E0
9.409130750E0,4.553600466E0,1.374614326E0,1.411200355E0,4.961484474E0
9.419097750E0,5.008842457E0,2.867904326E0,1.573229039E0,5.982342985E0
9.429064750E0,5.447436841E0,4.524357371E0,1.403711826E0,7.219057046E0
9.439031750E0,5.594124770E0,6.159814233E0,1.335475404E0,8.427398050E0
9.448999333E0,5.358907657E0,7.608495240E0,1.415281126E0,9.413294416E0
9.458966333E0,4.806352209E0,8.967282323E0,1.886570216E0,1.034757561E1
9.468933333E0,3.914802388E0,1.057681789E1,2.627993068E0,1.158020302E1
9.478900333E0,4.456936051E0,1.216709683E1,1.575876074E0,1.305319538E1
9.488868333E0,4.949435331E0,1.275409881E1,1.045365214E0,1.372066817E1
9.498835333E0,5.766946830E0,1.279787808E1,3.732640278E-1,1.404217523E1
9.508802333E0,6.511066418E0,1.289353034E1,-2.519494693E-1,1.444647324E1
9.518770333E0,6.536830419E0,1.295361984E1,-6.393328053E-1,1.452360717E1
9.528737333E0,6.619196638E0,1.298622625E1,2.596373884E-1,1.457817712E1
9.538704333E0,7.255266112E0,1.351429765E1,2.264071137E0,1.550487490E1
9.548671333E0,7.630996495E0,1.430922896E1,4.119137140E0,1.673180898E1
9.558639333E0,6.548717809E0,1.456932481E1,3.858278816E0,1.643281004E1
9.568606333E0,5.839568079E0,1.431313022E1,3.088227997E0,1.576399075E1
9.578573333E0,6.275814221E0,1.394943926E1,3.162299355E0,1.561962986E1
9.588540333E0,6.900144240E0,1.342616140E1,2.550238549E0,1.530939310E1
9.598508333E0,7.492723294E0,1.293587003E1,2.302848701E0,1.512549993E1
9.608475333E0,8.143286262E0,1.245147148E1,2.497150508E0,1.508602048E1
9.618442333E0,8.778095076E0,1.186241012E1,2.620946589E0,1.498803149E1
9.628409333E0,7.483201688E0,1.067406294E1,2.589323092E0,1.329054255E1
9.638377333E0,4.361961189E0,9.242518365E0,2.221120414E0,1.045869146E1
9.648344333E0,1.877275921E0,6.990615869E0,2.750772902E0,7.743360167E0
9.658311333E0,-3.792891450E-2,1.186650317E0,6.327713522E0,6.438131406E0
9.668279333E0,-1.721237855E0,-1.018214487E1,1.303578959E1,1.663041022E1
9.678246333E0,-5.152271149E0,-2.852317637E1,2.034698666E1,3.541351938E1
9.688213333E0,-1.098361220E1,-4.683082262E1,2.358168975E1,5.357109085E1
9.698180333E0,-1.444879615E1,-5.965086164E1,2.004247770E1,6.456542355E1
9.708148333E0,-1.054005177E1,-5.825616506E1,1.228876803E1,6.046393370E1
9.718115333E0,-3.234343192E0,-4.385027226E1,5.204117240E0,4.427629377E1
9.728082333E0,-3.512554005E-2,-2.921653921E1,1.505513604E0,2.925532376E1
9.738049333E0,1.597164032E-1,-1.814405518E1,-9.160512628E-1,1.816786717E1
9.748017333E0,9.388194434E-1,-1.052455197E1,-3.636803244E0,1.117469973E1
9.757984333E0,1.178031521E0,-7.222823421E0,-6.739379724E0,9.948677072E0
9.767951333E0,3.477625077E0,-7.155303867E0,-5.444471601E1,5.502289842E1
9.777919333E0,8.083668051E0,-5.943708744E0,-5.871663563E1,5.956774851E1
9.787886333E0,2.657870001E0,-2.539270341E0,-1.558732973E1,1.601489978E1
9.797853333E0,2.123195924E0,-1.895529905E0,-9.115769441E0,9.549777330E0
9.807820333E0,3.021054891E0,-2.218811933E0,-4.539470669E0,5.886993546E0
9.817788333E0,4.298625903E0,-1.856385720E0,-1.670576994E0,4.971436421E0
9.827755333E0,5.793719476E0,-9.468735445E-1,-2.097190140E-1,5.874328638E0
9.837722333E0,6.886891526E0,1.966728526E-1,5.325262485E-1,6.910248860E0
9.847689333E0,7.648794250E0,1.208007857E0,9.936435952E-1,7.807090627E0
9.857657333E0,7.300568000E0,2.125600884E0,1.333892562E0,7.719827823E0
9.867624333E0,7.147548121E0,3.091563833E0,1.660196432E0,7.962503580E0
9.877591333E0,7.457694964E0,4.646658903E0,2.726699331E0,9.200192518E0
9.887559333E0,7.320200611E0,6.792177742E0,3.548239562E0,1.059759498E1
9.897526333E0,7.538834437E0,8.582157218E0,2.994047479E0,1.180896979E1
9.907493333E0,8.042250468E0,1.022089671E1,2.390219552E0,1.322337595E1
9.917460333E0,9.709164181E0,1.126795878E1,9.799834031E-1,1.490621118E1
9.927428333E0,1.047831687E1,1.201958444E1,3.787276296E-1,1.595020279E1
9.937395333E0,8.905487194E0,1.250710306E1,1.489717790E-1,1.535439747E1
9.947362333E0,6.387404823E0,1.270529444E1,5.535734475E-2,1.422063682E1
9.957329333E0,4.608465475E0,1.339502966E1,4.054576278E-2,1.416567745E1
9.967297333E0,4.107083690E0,1.423932784E1,4.359771333E-1,1.482621562E1
9.977264333E0,4.731335941E0,1.504624828E1,1.706878847E0,1.586469547E1
9.987231333E0,5.450677952E0,1.569782106E1,2.644230201E0,1.682627200E1
9.997199333E0,5.780805316E0,1.550345025E1,3.087741508E0,1.683178028E1
1.000716633E1,5.915297123E0,1.474126803E1,3.011036564E0,1.616669615E1
1.001713333E1,6.430956055E0,1.391589378E1,3.407694132E0,1.570419291E1
1.002710033E1,6.938316033E0,1.320533078E1,3.796042807E0,1.539256091E1
1.003706833E1,7.169269942E0,1.239804314E1,4.001335040E0,1.487012398E1
1.004703533E1,7.179876207E0,1.127375571E1,4.352718787E0,1.405682578E1
1.005700233E1,7.782787875E0,9.871150181E0,5.274777918E0,1.363211924E1
1.006696933E1,8.421007370E0,7.405645389E0,7.295946361E0,1.337863155E1
1.007693733E1,6.572108425E0,1.853868493E0,9.886288623E0,1.201532939E1
1.008690433E1,1.757784561E0,-7.578590825E0,1.299868550E1,1.514894948E1
1.009687133E1,-4.032810602E0,-1.943120042E1,1.693723197E1,2.609032269E1
1.010683933E1,-9.036297594E0,-3.160596880E1,1.833118713E1,3.763807062E1
1.011680633E1,-1.068463704E1,-3.867320600E1,1.628365476E1,4.330052821E1
1.012677333E1,-8.744052002E0,-4.117926415E1,1.241388207E1,4.388957405E1
1.013674033E1,-4.160479878E0,-4.001105596E1,6.931793464E0,4.081965154E1
1.014670833E1,-5.103688096E-1,-3.575089625E1,2.727313288E0,3.585840623E1
1.015667533E1,1.556557897E0,-2.981466493E1,5.387682974E-2,2.985531812E1
1.016664233E1,1.542774255E0,-2.322150594E1,-2.781650002E0,2.343834609E1
1.017660933E1,8.732582688E-1,-1.573226116E1,-5.831438695E0,1.680096123E1
1.018657733E1,-1.074144625E0,-1.070450705E1,-8.166710792E0,1.350686577E1
1.019654433E1,8.682708862E-1,-9.465158703E0,-4.966578665E1,5.056711864E1
1.020651133E1,3.483983340E0,-7.620592545E0,-5.360702050E1,5.425794152E1
1.021647833E1,1.322490492E0,-2.710762160E0,-1.181362212E1,1.219257480E1
1.022644633E1,2.802421066E0,-1.860578758E0,-6.368917097E0,7.202667709E0
1.023641333E1,3.997277073E0,-2.886745809E0,-3.337263835E0,5.953894126E0
1.024638033E1,4.203348155E0,-3.197927610E0,-1.936195536E0,5.625275981E0
1.025634833E1,4.394707643E0,-2.531036292E0,-4.055079138E-1,5.087635664E0
1.026631533E1,4.558195208E0,-1.293346800E0,5.497082917E-1,4.769912861E0
1.027628233E1,4.697647208E0,3.398401737E-1,8.425409447E-1,4.784689737E0
1.028624933E1,4.495651635E0,2.141482506E0,8.903251219E-1,5.058607493E0
1.029621733E1,4.082694368E0,3.822626004E0,8.069138597E-1,5.650838243E0
1.030618433E1,3.752177580E0,5.353836951E0,6.408975202E-1,6.569106204E0
1.031615133E1,3.667202041E0,7.250661430E0,4.411203077E-1,8.137262999E0
1.032611933E1,3.707989587E0,9.337460191E0,1.431712680E-1,1.004777824E1
1.033608633E1,3.403222474E0,1.131898977E1,-2.048612934E-1,1.182131215E1
1.034605333E1,2.981048826E0,1.231224109E1,-2.894845372E-1,1.267129568E1
1.035602033E1,3.134301425E0,1.319318962E1,2.310369390E-1,1.356235510E1
1.036598833E1,4.563277315E0,1.416236678E1,2.043660343E-1,1.488078957E1
1.037595533E1,7.666849868E0,1.519582356E1,2.352311468E-1,1.702201440E1
1.038592233E1,1.041076282E1,1.569402504E1,2.573780608E0,1.900817590E1
1.039588933E1,1.396610382E1,1.630222318E1,6.416465485E0,2.240503439E1
1.040585733E1,1.639839468E1,1.611489125E1,9.403415029E0,2.483991309E1
1.041582433E1,1.461852211E1,1.509481291E1,9.000144260E0,2.285950923E1
1.042579133E1,1.116347021E1,1.462825889E1,5.962415156E0,1.934320087E1
1.043575833E1,8.569634821E0,1.353829346E1,4.160079929E0,1.655386045E1
1.044572633E1,6.759666638E0,1.221508844E1,3.452683779E0,1.438132483E1
1.045569421E1,4.999935978E0,1.160357259E1,2.880463561E0,1.295914067E1
1.046566121E1,3.765226811E0,1.058248385E1,2.477273483E0,1.150229461E1
1.047562921E1,3.287459299E0,9.269941222E0,2.432672676E0,1.013198378E1
1.048559621E1,3.899588810E0,7.695102444E0,3.384358479E0,9.266891433E0
1.049556321E1,5.061677898E0,5.073432555E0,5.113994690E0,8.804160535E0
1.050553021E1,5.745157766E0,1.208385587E0,6.910327751E0,9.067505892E0
1.051549821E1,4.462734150E0,-4.716360637E0,8.843536529E0,1.097124387E1
1.052546521E1,1.195561327E0,-1.355689111E1,1.144356587E1,1.778127845E1
1.053543221E1,-4.312760962E0,-2.464287051E1,1.451626834E1,2.892391780E1
1.054539921E1,-7.462290875E0,-3.465175537E1,1.607810876E1,3.892217255E1
1.055536721E1,-7.578928210E0,-4.026004443E1,1.318070465E1,4.303536110E1
1.056533421E1,-7.640996404E0,-4.167060802E1,7.464789975E0,4.301799029E1
1.057530121E1,-6.656855630E0,-3.849664114E1,2.834957605E0,3.917067896E1
1.058526921E1,-4.955925740E0,-3.147192021E1,-3.096214709E-1,3.186124334E1
1.059523621E1,-3.034781522E0,-2.404104233E1,-2.232894952E0,2.433449065E1
1.060520321E1,-1.503473218E0,-1.694535492E1,-3.204353700E0,1.731107645E1
1.061517021E1,-1.435438233E0,-1.188846999E1,-4.415733353E0,1.276302874E1
1.062513821E1,-2.047199662E0,-9.208587558E0,-1.377760596E1,1.669765065E1
1.063510521E1,-1.957296968E-2,-8.113299401E0,-5.984841333E1,6.039584910E1
1.064507221E1,-5.750026157E-1,-5.358295453E0,-3.102782184E1,3.149234330E1
1.065503921E1,6.663902110E-1,-2.414988357E0,-1.376857084E1,1.399463425E1
1.066500721E1,1.829306679E0,-2.736595159E0,-8.149427592E0,8.789111791E0
1.067497421E1,2.183832720E0,-3.127263424E0,-4.021377541E0,5.542596792E0
1.068494121E1,2.277011610E0,-2.400848621E0,-2.078485190E0,3.907551235E0
1.069490821E1,2.748617619E0,-1.405375358E0,-8.463873893E-1,3.200992084E0
1.070487621E1,3.822683306E0,-1.493525058E-1,2.038924098E-3,3.825600344E0
1.071484321E1,4.512447470E0,1.227154564E0,5.133076201E-1,4.704420815E0
1.072481021E1,5.084572086E0,2.775001425E0,8.548552539E-1,5.855278278E0
1.073477821E1,5.572067903E0,4.396581091E0,9.784730673E-1,7.164863959E0
1.074474521E1,5.978194453E0,6.071293235E0,9.934916407E-1,8.578253674E0
1.075471221E1,6.153747747E0,7.595224984E0,8.405085987E-1,9.811345912E0
1.076467921E1,5.855096530E0,8.737532356E0,6.305988193E-1,1.053680606E1
1.077464721E1,5.434630269E0,9.589091023E0,8.862998986E-1,1.105763991E1
1.078461421E1,5.578878155E0,1.034317017E1,1.315490790E0,1.182520895E1
1.079458121E1,8.538943956E0,1.161269659E1,1.422895371E0,1.448422995E1
1.080454821E1,1.079847882E1,1.290695906E1,2.964021442E0,1.708748548E1
1.081451621E1,1.193212062E1,1.363159982E1,5.288465080E0,1.887230455E1
1.082448321E1,1.383602900E1,1.468117737E1,9.507171532E0,2.230154654E1
1.083445021E1,1.117812801E1,1.506867001E1,1.088646538E1,2.169171478E1
1.084441821E1,6.838814549E0,1.509717402E1,8.141278328E0,1.846549378E1
1.085438521E1,4.905440295E0,1.549063550E1,5.963303933E0,1.730849867E1
1.086435221E1,3.980078073E0,1.526654329E1,4.723736315E0,1.646882055E1
1.087431921E1,3.815611976E0,1.440691255E1,4.103895203E0,1.545833043E1
1.088428721E1,4.314697852E0,1.344919008E1,3.786096693E0,1.462299078E1
1.089425421E1,4.546914759E0,1.278787233E1,3.586243540E0,1.403799328E1
1.090422121E1,4.696586815E0,1.233825419E1,3.640724387E0,1.369471862E1
1.091418821E1,5.106137202E0,1.192009758E1,3.917806395E0,1.354660734E1
1.092415621E1,5.914800110E0,1.118656437E1,4.349238524E0,1.338058140E1
1.093412321E1,6.835593318E0,9.681983984E0,5.287572795E0,1.297784943E1
1.094409021E1,6.499642128E0,6.597508730E0,6.918333174E0,1.156009529E1
1.095405721E1,3.498566880E0,7.701929069E-1,8.841179516E0,9.539372231E0
1.096402521E1,-9.121435685E-1,-7.780361280E0,1.175911788E1,1.412950392E1
1.097399221E1,-6.226444425E0,-1.988368136E1,1.520401785E1,2.579324627E1
1.098395921E1,-1.043439960E1,-3.487449920E1,1.901264503E1,4.106809054E1
1.099392721E1,-1.127323414E1,-4.775349453E1,1.883641931E1,5.255751840E1
1.100389421E1,-6.532305259E0,-5.456630067E1,1.391324850E1,5.668977566E1
1.101386121E1,-6.146533160E-1,-5.142647216E1,7.802252086E0,5.201860221E1
1.102382821E1,1.359440948E0,-4.112599836E1,2.330983749E0,4.121443080E1
1.103379621E1,7.462223925E-1,-2.958371161E1,-1.448870749E0,2.962856842E1
1.104376321E1,1.356340608E-1,-1.896807522E1,-3.522858261E0,1.929292109E1
1.105373021E1,1.418057969E-1,-1.214413832E1,-5.070202553E0,1.316081906E1
1.106369721E1,1.442284738E0,-9.633714634E0,-1.618664829E1,1.889169727E1
1.107366521E1,9.268742543E0,-8.860301666E0,-6.438936569E1,6.565367429E1
1.108363221E1,7.621309413E0,-4.116372576E0,-3.174448934E1,3.290503736E1
1.109359921E1,7.463894182E0,-9.987576431E-1,-1.854028239E1,2.001122946E1
1.110356721E1,5.993773774E0,-1.564566389E0,-1.085782572E1,1.250062284E1
1.111353421E1,3.834609872E0,-2.790652667E0,-3.884257411E0,6.130206425E0
1.112350121E1,3.544065527E0,-2.750991588E0,-1.232385045E0,4.652647427E0
1.113346821E1,4.066458989E0,-1.628311565E0,1.815946376E-1,4.384114948E0
1.114343621E1,4.156438867E0,-2.880905610E-1,1.050827537E0,4.296884772E0
1.115340321E1,4.320119975E0,1.197903868E0,1.301006067E0,4.668086017E0
1.116337021E1,4.542592205E0,2.876852905E0,1.428305799E0,5.563405795E0
1.117333721E1,4.969445672E0,4.300381529E0,1.640738652E0,6.773528985E0
1.118330521E1,5.283493778E0,5.658476887E0,1.864616845E0,7.963068702E0
1.119327221E1,5.339897189E0,6.806762452E0,1.800540717E0,8.836767732E0
1.120323921E1,5.304019843E0,7.789916800E0,1.729587679E0,9.581591924E0
1.121320621E1,5.529069818E0,8.832336187E0,2.209165782E0,1.065181623E1
1.122317421E1,7.394421659E0,9.795067381E0,2.742961607E0,1.257555784E1
1.123314121E1,1.106576908E1,1.108007839E1,3.230149276E0,1.598916029E1
1.124310821E1,1.351677103E1,1.251612181E1,4.283309999E0,1.891304176E1
1.125307521E1,1.515848909E1,1.385636445E1,6.937758794E0,2.167743352E1
1.126304321E1,1.432837976E1,1.481126388E1,1.147003973E1,2.358469452E1
1.127301021E1,9.096819200E0,1.519685618E1,1.072461796E1,2.070540962E1
1.128297721E1,4.312892232E0,1.546301676E1,6.862748373E0,1.745861512E1
1.129294521E1,2.250024371E0,1.553353301E1,4.668892940E0,1.637534179E1
1.130291221E1,1.677498197E0,1.481426350E1,3.476424644E0,1.530888408E1
1.131287921E1,2.095840018E0,1.365773219E1,3.246384655E0,1.419384400E1
1.132284621E1,2.765159392E0,1.271524640E1,3.347051489E0,1.343600949E1
1.133281421E1,2.918525426E0,1.209315060E1,3.414508477E0,1.290042442E1
1.134278121E1,2.806317943E0,1.155265387E1,3.615670238E0,1.242627470E1
1.135274821E1,3.241884346E0,1.127682784E1,4.051046898E0,1.241320431E1
1.136271521E1,4.230930641E0,1.092830338E1,5.190589707E0,1.281681748E1
1.137268321E1,5.251317719E0,9.838913312E0,6.966268648E0,1.314950386E1
1.138265021E1,4.555556359E0,6.959151417E0,8.885817161E0,1.217130350E1
1.139261721E1,6.660411322E-1,1.616268640E0,9.997637150E0,1.014931937E1
1.140258421E1,-4.595686970E0,-6.491453102E0,1.181485471E1,1.424254521E1
1.141255221E1,-1.073826069E1,-1.969589920E1,1.489505682E1,2.692770702E1
1.142251921E1,-1.445738571E1,-3.640127503E1,1.893256274E1,4.350299711E1
1.143248621E1,-1.373011371E1,-5.144924356E1,1.814377101E1,5.625599623E1
1.144245421E1,-7.079070793E0,-5.827392188E1,1.400908670E1,6.035078893E1
1.145242021E1,-1.450693619E0,-5.561049644E1,7.806771399E0,5.617452720E1
1.146238721E1,1.154253380E0,-4.477480594E1,1.116279515E0,4.480358945E1
1.147235421E1,1.631166760E0,-2.973893413E1,-2.925353220E0,2.992695440E1
1.148232221E1,1.088630225E0,-1.712486912E1,-4.538608789E0,1.774951346E1
1.149228921E1,1.523029523E0,-1.035835656E1,-5.966483649E0,1.205048118E1
1.150225621E1,2.979552231E0,-7.043150763E0,-1.736988617E1,1.897884743E1
1.151222321E1,9.692521251E0,-5.086077159E0,-5.814789801E1,5.916917434E1
1.152219121E1,8.520392495E0,-2.809526895E0,-2.562348132E1,2.714872602E1
1.153215821E1,7.427072511E0,-3.172769380E-1,-1.557292219E1,1.725624456E1
1.154212521E1,5.419453236E0,-2.540825701E-1,-8.023058152E0,9.685271986E0
1.155209221E1,4.422646516E0,-9.782362550E-1,-3.288016246E0,5.597124191E0
1.156206021E1,4.529266693E0,-4.188038975E-1,-1.493138557E0,4.787391381E0
1.157202721E1,4.494780692E0,6.844323796E-1,-4.027684933E-1,4.564397399E0
1.158199421E1,4.371542144E0,1.994350188E0,1.982024843E-1,4.809064110E0
1.159196221E1,4.213332860E0,3.393775420E0,4.621900915E-1,5.429871552E0
1.160192921E1,4.115155478E0,4.826532120E0,5.491364340E-1,6.366432890E0
1.161189621E1,4.258981488E0,6.198656702E0,5.391295823E-1,7.540088125E0
1.162186321E1,4.412147548E0,7.449842738E0,5.191175598E-1,8.673908338E0
1.163183121E1,4.445969598E0,8.588675110E0,4.195085601E-1,9.680287869E0
1.164179821E1,4.050464516E0,9.477560062E0,2.749454355E-1,1.031048023E1
1.165176521E1,3.473860348E0,1.023271042E1,-1.888065934E-2,1.080631412E1
1.166173221E1,4.861703122E0,1.128894444E1,-5.337753965E-1,1.230289966E1
1.167170021E1,6.563338187E0,1.273665306E1,1.130442202E-1,1.432873052E1
1.168166721E1,8.134501405E0,1.363345455E1,1.391319237E0,1.593665477E1
1.169163421E1,1.038368553E1,1.436667786E1,4.477143443E0,1.828297490E1
1.170160121E1,1.334184689E1,1.533938440E1,8.436811810E0,2.201093787E1
1.171156921E1,1.270477287E1,1.554644600E1,8.948887568E0,2.198148825E1
1.172153621E1,1.084922564E1,1.551974410E1,6.871691104E0,2.014418756E1
1.173150321E1,9.642410613E0,1.540885517E1,5.661622689E0,1.903845770E1
1.174147121E1,8.674727998E0,1.519873080E1,5.289138680E0,1.828188479E1
1.175143821E1,7.398069736E0,1.462327707E1,4.876205971E0,1.709821782E1
1.176140521E1,5.867713652E0,1.374451891E1,4.291958030E0,1.554872237E1
1.177137221E1,4.713503395E0,1.281098052E1,3.529937192E0,1.409960258E1
1.178134021E1,4.325911642E0,1.207053357E1,3.165632268E0,1.320729041E1
1.179130721E1,4.551094934E0,1.133385340E1,3.403374209E0,1.267878756E1
1.180127421E1,5.095458432E0,1.036739636E1,4.025530819E0,1.223321308E1
1.181124121E1,6.007861471E0,9.077178403E0,5.321257435E0,1.211632568E1
1.182120921E1,4.972635913E0,6.334855896E0,6.815671270E0,1.055039724E1
1.183117621E1,1.532278064E0,1.223411762E0,8.366475652E0,8.593167475E0
1.184114321E1,-2.185523735E0,-6.681372421E0,1.115127643E1,1.318211733E1
1.185111021E1,-8.782629592E0,-2.227386407E1,1.481091071E1,2.815355536E1
1.186107821E1,-1.254384463E1,-4.118033069E1,1.821869840E1,4.674493176E1
1.187104521E1,-1.121938947E1,-5.722070736E1,1.785254809E1,6.098194425E1
1.188101221E1,-4.051326395E0,-6.322961022E1,1.133213782E1,6.436469686E1
1.189098021E1,3.883109602E-1,-5.796080582E1,5.141162608E0,5.818966704E1
1.190094721E1,9.424580196E-1,-4.341465002E1,-8.168165579E-2,4.342495521E1
1.191091421E1,-1.429559442E-1,-2.563260064E1,-3.716048804E0,2.590095887E1
1.192088121E1,-4.772371700E-1,-1.427707863E1,-5.497443398E0,1.530635860E1
1.193084921E1,-3.111031553E-1,-9.260310273E0,-7.850127919E0,1.214391370E1
1.194081621E1,2.201710582E-2,-5.166488069E0,-3.874985832E1,3.909276920E1
1.195078321E1,1.418891782E0,-1.525832094E0,-6.516787333E1,6.520117432E1
1.196075021E1,1.155479395E0,-1.380287880E-1,-1.631852873E1,1.635996835E1
1.197071821E1,3.027811056E0,-7.326783407E-1,-7.954362139E0,8.542618708E0
1.198068521E1,4.318870133E0,-2.268722597E0,-3.643225241E0,6.088746308E0
1.199065221E1,5.031959424E0,-1.921958735E0,-1.959396703E0,5.731821391E0
1.200062021E1,5.762540953E0,-5.966902310E-1,-1.230679412E0,5.922625202E0
1.201058721E1,5.890322496E0,7.769844478E-1,-5.317399442E-1,5.965094409E0
1.202055421E1,5.696521211E0,2.081070244E0,-1.019004504E-1,6.065607221E0
1.203052121E1,5.393899734E0,3.400050067E0,1.468393725E-1,6.377778344E0
1.204048921E1,5.234036273E0,4.793560840E0,1.951995005E-1,7.100103104E0
1.205045621E1,5.265579663E0,6.272616963E0,7.857839227E-2,8.190129872E0
1.206042321E1,5.028477407E0,7.493745387E0,-4.462777711E-2,9.024621687E0
1.207039021E1,4.722334152E0,8.552322385E0,-1.383118663E-1,9.770454862E0
1.208035821E1,4.500903019E0,9.653923196E0,-5.874120153E-2,1.065175157E1
1.209032521E1,4.083735173E0,1.051598580E1,2.234477647E-1,1.128329647E1
1.210029221E1,3.392012192E0,1.104644053E1,9.023961139E-1,1.159068220E1
1.211025921E1,4.112321041E0,1.180865549E1,6.142616987E-2,1.250437132E1
1.212022721E1,4.518977932E0,1.234515624E1,4.974612272E-1,1.315566463E1
1.213019421E1,5.598101462E0,1.268874097E1,2.478179217E0,1.408844419E1
1.214016121E1,8.923691915E0,1.372613292E1,6.256341823E0,1.752657455E1
1.215012821E1,1.037050357E1,1.410520324E1,9.054287138E0,1.971000300E1
1.216009621E1,1.115574604E1,1.369556602E1,1.010733325E1,2.035134845E1
1.217006321E1,1.134589281E1,1.387931828E1,1.075535444E1,2.090555928E1
1.218003021E1,1.121156824E1,1.424608488E1,9.051382241E0,2.026271742E1
1.218999721E1,9.956982629E0,1.425733375E1,7.042731518E0,1.876201311E1
1.219996521E1,7.870285025E0,1.394636713E1,5.099516984E0,1.680617791E1
1.220993221E1,5.905042861E0,1.366477809E1,3.407604085E0,1.527113149E1
1.221989921E1,4.903753374E0,1.334417642E1,2.794689585E0,1.448875880E1
1.222986721E1,4.717916873E0,1.278656021E1,3.332746861E0,1.403075420E1
1.223983421E1,5.404810054E0,1.220557151E1,4.209347398E0,1.399666221E1
1.224980121E1,6.375115730E0,1.128685932E1,5.433723950E0,1.405562698E1
1.225976821E1,6.027043262E0,9.386087390E0,6.364192547E0,1.284238427E1
1.226973621E1,3.140790665E0,6.074865299E0,6.931114018E0,9.736985978E0
1.227970321E1,-2.118223306E0,-1.547646886E-1,9.119404070E0,9.363458372E0
1.228967021E1,-9.322134054E0,-1.018568594E1,1.315596040E1,1.907169829E1
1.229963721E1,-1.704661817E1,-2.739011696E1,1.892981571E1,3.740512827E1
1.230960521E1,-2.038172380E1,-4.903335649E1,2.271660823E1,5.775577030E1
1.231957221E1,-1.857138958E1,-6.701837208E1,1.842494256E1,7.194329166E1
1.232953921E1,-8.699116734E0,-7.312478311E1,1.061192107E1,7.440108470E1
1.233950621E1,-7.323067501E-1,-6.434906668E1,2.399828866E0,6.439796452E1
1.234947421E1,2.600821349E0,-4.153462986E1,-3.781799574E0,4.178745933E1
1.235944121E1,4.474274799E-1,-1.978520489E1,-5.748904662E0,2.060835823E1
1.236940821E1,-7.034486943E-1,-1.117737957E1,-8.133353596E0,1.384124614E1
1.237937621E1,1.144445114E1,-6.813627668E0,-6.017390210E1,6.163034543E1
1.238934321E1,1.393434525E1,-3.204670034E0,-5.102884279E1,5.299413820E1
1.239931021E1,9.172102686E0,-5.003006351E-1,-1.486684050E1,1.747571786E1
1.240927721E1,7.359535416E0,-1.125485517E0,-1.108664130E1,1.335451589E1
1.241924521E1,5.865119242E0,-9.476424533E-1,-5.598866277E0,8.163636049E0
1.242921221E1,4.946648548E0,-8.967640758E-2,-2.160523379E0,5.398632696E0
1.243917921E1,4.328819170E0,6.285429382E-1,-7.132686545E-1,4.431985312E0
1.244914621E1,4.230737390E0,1.728155696E0,-7.680332378E-2,4.570728577E0
1.245911500E1,4.076509768E0,2.955202087E0,3.223657697E-1,5.045301869E0
1.246908200E1,3.998276362E0,4.280065379E0,7.375443935E-1,5.903316461E0
1.247904900E1,4.161570384E0,5.813647372E0,8.466068061E-1,7.199576856E0
1.248901600E1,4.411506986E0,7.399909270E0,7.253943910E-1,8.645591253E0
1.249898400E1,4.607679609E0,8.796179345E0,6.466389743E-1,9.950960979E0
1.250895100E1,4.899063030E0,1.002162243E1,6.978124901E-1,1.117679189E1
1.251891800E1,4.914139783E0,1.105220120E1,1.110699078E0,1.214633993E1
1.252888600E1,4.522841772E0,1.176185204E1,1.603046331E0,1.270303187E1
1.253885300E1,5.005219522E0,1.225078218E1,4.151534808E-1,1.324032624E1
1.254882000E1,6.191220213E0,1.291212449E1,6.398046756E-1,1.433399863E1
1.255878700E1,7.696561909E0,1.377200433E1,2.155510561E0,1.592329722E1
1.256875500E1,1.169349926E1,1.528109000E1,6.869955651E0,2.043149351E1
1.257872200E1,1.498980276E1,1.663741716E1,1.075527141E1,2.484298089E1
1.258868900E1,1.157519488E1,1.626492262E1,8.917807277E0,2.186458623E1
1.259865600E1,8.701209453E0,1.603884003E1,8.184919606E0,1.999870857E1
1.260862400E1,7.049000902E0,1.553317516E1,6.742257138E0,1.834191854E1
1.261859100E1,5.794225261E0,1.458874809E1,5.054155455E0,1.649087943E1
1.262855800E1,4.779415841E0,1.381211389E1,4.344209919E0,1.524760524E1
1.263852500E1,3.805743046E0,1.305451238E1,3.745424631E0,1.410433193E1
1.264849300E1,2.963242300E0,1.223876732E1,3.541272604E0,1.308085785E1
1.265846000E1,2.353614666E0,1.164280039E1,3.215499662E0,1.230584174E1
1.266842700E1,2.335387580E0,1.119469785E1,3.225945128E0,1.188200392E1
1.267839400E1,3.108836801E0,1.073530784E1,3.822848783E0,1.181210708E1
1.268836200E1,3.870551245E0,9.776032940E0,5.183948439E0,1.172285411E1
1.269832900E1,3.598766229E0,7.309982602E0,6.910525972E0,1.068374154E1
1.270829600E1,1.940346182E0,2.841627524E0,8.964079803E0,9.601797593E0
1.271826400E1,-6.806685269E-2,-2.640441790E0,1.153350774E1,1.183209055E1
1.272823100E1,-5.276129209E0,-1.364705284E1,1.282815263E1,1.945870218E1
1.273819800E1,-8.525925130E0,-2.767105930E1,1.671819995E1,3.343466960E1
1.274816500E1,-8.898840664E0,-4.282475484E1,1.925663648E1,4.779086775E1
1.275813300E1,-4.675079294E0,-5.640000621E1,1.827470537E1,5.947084935E1
1.276810000E1,6.608347714E-2,-6.213923548E1,1.249313991E1,6.338270662E1
1.277806700E1,1.858766852E0,-5.670482858E1,4.669946609E0,5.692715520E1
1.278803400E1,2.789099647E0,-4.068398160E1,-1.827768277E0,4.082041367E1
1.279800200E1,1.357204096E0,-2.286142972E1,-5.494743739E0,2.355162799E1
1.280796900E1,8.480830818E-2,-1.278804073E1,-7.500488396E0,1.482560300E1
1.281793600E1,-7.670713708E-1,-8.170811445E0,-9.264956471E0,1.237699384E1
1.282790300E1,-1.459950346E-1,-5.754318014E0,-3.637183079E1,3.682449682E1
1.283787100E1,3.156671118E0,-3.665597273E0,-5.066941678E1,5.089981309E1
1.284783800E1,3.968904628E0,-8.384568107E-1,-1.649965208E1,1.699098974E1
1.285780500E1,5.211079520E0,-6.045424569E-1,-1.116083078E1,1.233227331E1
1.286777200E1,4.886468712E0,-1.792816545E0,-6.000419719E0,7.943349699E0
1.287774000E1,3.815946437E0,-1.634387407E0,-4.054702870E0,5.802868667E0
1.288770700E1,3.464315645E0,-5.172172147E-1,-2.526403543E0,4.318762716E0
1.289767400E1,3.477864228E0,6.559500074E-1,-1.096113053E0,3.705033580E0
1.290764200E1,3.445142625E0,2.034298950E0,-2.755143696E-1,4.010397498E0
1.291760900E1,3.626533780E0,3.526769755E0,1.846141398E-1,5.062008943E0
1.292757600E1,3.726779906E0,5.081571295E0,4.756481892E-1,6.319612052E0
1.293754300E1,3.824814032E0,6.673774549E0,4.931817962E-1,7.707898377E0
1.294751100E1,3.819172930E0,8.181253987E0,4.011548080E-1,9.037694609E0
1.295747800E1,3.989140672E0,9.451578544E0,3.692681868E-1,1.026557058E1
1.296744500E1,3.949235472E0,1.046719546E1,2.625809133E-1,1.119051341E1
1.297741200E1,3.773023781E0,1.112510897E1,2.858243264E-2,1.174753484E1
1.298738000E1,4.087962125E0,1.170017795E1,8.561427377E-2,1.239406827E1
1.299734700E1,3.613762291E0,1.199968637E1,7.357206470E-1,1.255360648E1
1.300731400E1,4.467240891E0,1.248361597E1,2.323847588E-1,1.326087899E1
1.301728100E1,7.365564480E0,1.332903214E1,5.437980723E-1,1.523844986E1
1.302724900E1,1.065873037E1,1.446102970E1,3.885526841E0,1.838007703E1
1.303721600E1,1.386777120E1,1.519867232E1,7.940553939E0,2.205373246E1
1.304718300E1,1.467790643E1,1.521300385E1,8.823889300E0,2.290714835E1
1.305715000E1,1.154044605E1,1.490368848E1,7.941425174E0,2.045404750E1
1.306711800E1,7.648736948E0,1.450584977E1,5.689614480E0,1.735783879E1
1.307708500E1,5.285012299E0,1.412713965E1,4.147354048E0,1.564314467E1
1.308705200E1,3.798464724E0,1.359340814E1,3.162070144E0,1.446401628E1
1.309702000E1,3.155608971E0,1.298455746E1,2.892246870E0,1.367193082E1
1.310698700E1,3.452329730E0,1.239687369E1,2.838629072E0,1.317796923E1
1.311695400E1,4.509458665E0,1.195366176E1,2.882337009E0,1.309706508E1
1.312692100E1,6.080337124E0,1.152929658E1,3.654298114E0,1.353695216E1
1.313688900E1,8.498926781E0,1.099454064E1,5.021663647E0,1.477595297E1
1.314685600E1,9.433365052E0,9.127210688E0,6.469562881E0,1.463385100E1
1.315682300E1,5.537393330E0,4.267130168E0,7.666293797E0,1.037512339E1
1.316679000E1,4.895973068E-1,-3.127151157E0,1.000919710E1,1.049775244E1
1.317675800E1,-4.124166915E0,-1.231320939E1,1.256101790E1,1.806662805E1
1.318672500E1,-8.330154503E0,-2.701232368E1,1.480061493E1,3.190791919E1
1.319669200E1,-9.865854943E0,-4.457714198E1,1.755325017E1,4.891393741E1
1.320665900E1,-8.249234886E0,-5.996888937E1,1.831462899E1,6.324352301E1
1.321662700E1,-2.476191748E0,-6.592348796E1,1.179926019E1,6.701686603E1
1.322659400E1,1.065588102E0,-5.668652913E1,3.530617223E0,5.680636690E1
1.323656100E1,1.215018230E0,-3.733692777E1,-2.761908925E-1,3.735771307E1
1.324652800E1,-1.452000179E0,-1.963905491E1,-2.466256744E0,1.984649099E1
1.325649600E1,-2.145288751E0,-1.127868492E1,-4.389862348E0,1.229153728E1
1.326646300E1,-1.402623074E0,-7.303521429E0,-1.628396116E1,1.790184816E1
1.327643000E1,8.526992247E0,-3.080237777E0,-8.252893021E1,8.302542853E1
1.328639800E1,6.117992023E0,-1.914612293E-2,-2.865677824E1,2.930257893E1
1.329636500E1,3.720476900E0,1.538700061E0,-9.257834562E0,1.009539732E1
1.330633200E1,3.505303457E0,-3.167220372E-1,-6.357005734E0,7.266291150E0
1.331629900E1,3.450381438E0,-6.941750103E-1,-3.242064148E0,4.785184526E0
1.332626700E1,3.434714408E0,-3.359932905E-1,-2.025655596E0,4.001679042E0
1.333623400E1,3.714180619E0,3.871096498E-1,-7.822397791E-1,3.815349344E0
1.334620100E1,3.838733036E0,1.304817283E0,-9.977864206E-2,4.055659656E0
1.335616800E1,3.814734017E0,2.320028406E0,5.014877661E-1,4.492907455E0
1.336613600E1,3.875204751E0,3.542022218E0,8.910338044E-1,5.325136101E0
1.337610300E1,3.813465756E0,5.000668049E0,1.134492568E0,6.390326705E0
1.338607000E1,3.440540282E0,6.648550830E0,1.096540119E0,7.565906806E0
1.339603700E1,3.641410266E0,8.273488551E0,9.579798190E-1,9.090005878E0
1.340600500E1,4.055362728E0,9.677671078E0,1.001937359E0,1.054073825E1
1.341597200E1,4.674480247E0,1.053232409E1,8.320617110E-1,1.155304908E1
1.342593900E1,5.251168031E0,1.108925618E1,1.447150206E0,1.235478094E1
1.343590600E1,6.064870069E0,1.166514845E1,2.698486515E0,1.342163056E1
1.344587400E1,7.785679908E0,1.193750825E1,2.091922091E0,1.440475799E1
1.345584058E1,9.510572273E0,1.210688688E1,3.992789919E0,1.590503273E1
1.346580758E1,1.360263622E1,1.304039603E1,8.654896581E0,2.073622134E1
1.347577558E1,1.381173850E1,1.369428197E1,1.037191976E1,2.204255427E1
1.348574258E1,1.019106538E1,1.337791720E1,7.697468812E0,1.849533747E1
1.349570958E1,7.181915715E0,1.336239401E1,5.146832653E0,1.601946857E1
1.350567658E1,5.444453006E0,1.346171481E1,3.631996833E0,1.496834110E1
1.351564458E1,4.806139371E0,1.349420194E1,2.472766449E0,1.453640381E1
1.352561158E1,4.735528395E0,1.353649369E1,1.791766970E0,1.445241569E1
1.353557858E1,4.673399682E0,1.341464824E1,1.590849624E0,1.429420352E1
1.354554558E1,4.467822981E0,1.316393951E1,1.677978984E0,1.400236977E1
1.355551358E1,4.273794824E0,1.283146332E1,1.756035805E0,1.363801433E1
1.356548058E1,4.422864325E0,1.239338408E1,1.899156933E0,1.329528092E1
1.357544758E1,5.269620089E0,1.182880500E1,2.071251014E0,1.311409945E1
1.358541458E1,5.925459584E0,1.075550647E1,2.475166147E0,1.252670899E1
1.359538258E1,5.403682126E0,8.870593350E0,3.113001480E0,1.084333828E1
1.360534958E1,2.453326504E0,5.487256964E0,4.634282101E0,7.589820190E0
1.361531658E1,-9.274983568E-1,-5.802484453E-2,8.405683572E0,8.456898746E0
1.362528358E1,-5.275308260E0,-1.109315042E1,1.338630327E1,1.816810334E1
1.363525158E1,-8.547435282E0,-3.029359633E1,1.975735811E1,3.716333984E1
1.364521858E1,-8.785179563E0,-5.279455223E1,2.392715027E1,5.862552895E1
1.365518558E1,-7.026325400E0,-6.711088439E1,2.127326046E1,7.075161950E1
1.366515358E1,-1.952123643E0,-6.484977077E1,1.269329244E1,6.610917658E1
1.367512058E1,-5.945112661E-2,-4.901889281E1,3.708550627E0,4.915901479E1
1.368508758E1,3.810074955E-2,-3.124876473E1,-1.351426023E0,3.127799708E1
1.369505458E1,-5.065152021E-1,-1.767589669E1,-4.412097555E0,1.822527054E1
1.370502258E1,-1.070082857E0,-1.104772107E1,-6.547907969E0,1.288690486E1
1.371498958E1,-1.572992812E0,-8.460553259E0,-1.624088121E1,1.837992085E1
1.372495658E1,6.518969514E0,-7.753310891E0,-7.994620102E1,8.058539477E1
1.373492358E1,6.214849981E0,-4.366356248E0,-3.473267148E1,3.555345124E1
1.374489158E1,4.354188777E0,-9.564395893E-1,-1.087606085E1,1.175425183E1
1.375485858E1,5.244519162E0,-1.473747436E0,-7.264602361E0,9.080273135E0
1.376482558E1,6.561696289E0,-1.128584542E0,-4.084173129E0,7.810891844E0
1.377479258E1,6.264123883E0,-1.168299415E0,-2.010662897E0,6.681836336E0
1.378476058E1,6.593018653E0,-6.237148923E-1,-5.817700370E-1,6.647959958E0
1.379472758E1,6.967632219E0,5.444383425E-1,4.590087676E-1,7.003927533E0
1.380469458E1,7.055824603E0,2.022267720E0,1.040759216E0,7.413326332E0
1.381466158E1,6.392267368E0,3.758667989E0,1.095159518E0,7.495868297E0
1.382462958E1,5.580803643E0,5.575408418E0,1.321323388E0,7.998527604E0
1.383459658E1,5.173132260E0,7.240768526E0,1.733970167E0,9.066238402E0
1.384456358E1,4.990823092E0,8.965386071E0,1.804254869E0,1.041833951E1
1.385453058E1,5.319898542E0,1.036993873E1,1.645376079E0,1.177048054E1
1.386449858E1,5.844263978E0,1.120363006E1,1.533269168E0,1.272900869E1
1.387446558E1,6.178357508E0,1.118773265E1,1.885035322E0,1.291862305E1
1.388443258E1,6.711373315E0,1.119888680E1,3.051636706E0,1.340783666E1
1.389440058E1,8.427925211E0,1.159529761E1,2.319462395E0,1.452104527E1
1.390436758E1,9.571497336E0,1.208277530E1,2.069912002E0,1.555286327E1
1.391433458E1,1.080541830E1,1.266413355E1,3.825460149E0,1.708131987E1
1.392430158E1,1.296438106E1,1.378728778E1,7.207835838E0,2.025135497E1
1.393426958E1,1.086415709E1,1.427255990E1,7.026623608E0,1.926419774E1
1.394423658E1,7.425019553E0,1.433140394E1,4.430561600E0,1.673767996E1
1.395420358E1,5.158245249E0,1.428851929E1,3.293506197E0,1.554401688E1
1.396417058E1,4.296889865E0,1.387761440E1,2.903063049E0,1.481483105E1
1.397413858E1,4.621173813E0,1.331256170E1,2.605956666E0,1.433075562E1
1.398410558E1,5.196978375E0,1.285426161E1,2.882851564E0,1.416161922E1
1.399407258E1,5.360803324E0,1.222593853E1,3.387392600E0,1.377266183E1
1.400403958E1,5.539033474E0,1.156507452E1,3.737917975E0,1.335679121E1
1.401400758E1,5.870397524E0,1.078056646E1,4.276535414E0,1.299888209E1
1.402397458E1,5.982509698E0,9.393891084E0,5.270048690E0,1.232108052E1
1.403394158E1,4.639469166E0,6.966721222E0,6.242303828E0,1.044156290E1
1.404390858E1,8.311158507E-1,3.123721765E0,7.224520283E0,7.914675264E0
1.405387658E1,-3.687385753E0,-1.697247899E0,8.774632355E0,9.668073080E0
1.406384358E1,-7.159005155E0,-8.473289080E0,1.045651260E1,1.524423296E1
1.407381058E1,-8.861651788E0,-1.996260942E1,1.280659979E1,2.531883973E1
1.408377758E1,-7.568924208E0,-3.431166961E1,1.602938859E1,3.862020952E1
1.409374558E1,-6.818414783E0,-4.996040212E1,1.624462226E1,5.297565774E1
1.410371258E1,-3.552672336E0,-5.742796075E1,1.216184603E1,5.880903550E1
1.411367958E1,1.707565311E-1,-5.373651528E1,5.473700194E0,5.401484635E1
1.412364758E1,2.022617091E0,-4.207460385E1,-1.020432687E0,4.213554974E1
1.413361458E1,5.434372991E-1,-2.610321028E1,-5.117482554E0,2.660566742E1
1.414358158E1,-1.116450984E0,-1.463835704E1,-6.708126356E0,1.614084628E1
1.415354858E1,-2.116633886E0,-9.782553754E0,-7.740080981E0,1.265256300E1
1.416351658E1,-2.996866422E0,-7.433008604E0,-1.777890358E1,1.950180088E1
1.417348358E1,-1.507700171E0,-5.199536532E0,-5.534691799E1,5.561105709E1
1.418345058E1,-2.166422051E0,-1.480034362E0,-2.688215764E1,2.700989237E1
1.419341758E1,1.039221545E0,-7.010799873E-1,-8.638813230E0,8.729294851E0
1.420338558E1,2.846629525E0,-1.628944234E0,-6.774941905E0,7.527057644E0
1.421335258E1,3.285652509E0,-1.787698478E0,-4.609457747E0,5.936200719E0
1.422331958E1,3.746254351E0,-7.364918947E-1,-2.800134512E0,4.734722300E0
1.423328658E1,4.016546864E0,7.108442527E-1,-1.507464820E0,4.348608795E0
1.424325458E1,4.691564642E0,2.051355278E0,-4.910602802E-1,5.143926270E0
1.425322158E1,5.390117755E0,3.633158675E0,1.416166395E-1,6.501789495E0
1.426318858E1,5.360078269E0,5.010956225E0,3.760613358E-1,7.347213313E0
1.427315558E1,5.010452195E0,6.261315465E0,2.053885661E-1,8.021900462E0
1.428312358E1,4.794281510E0,7.413427448E0,2.081719869E-1,8.831046218E0
1.429309058E1,4.528015974E0,8.580449247E0,3.842084076E-1,9.709513584E0
1.430305758E1,3.948814765E0,9.754338600E0,6.411420800E-1,1.054283277E1
1.431302558E1,2.922143683E0,1.080338230E1,1.645612307E0,1.131194204E1
1.432299258E1,2.717576505E0,1.141126702E1,2.073217433E0,1.191219827E1
1.433295958E1,3.816764462E0,1.160766681E1,1.140202959E0,1.227215069E1
1.434292658E1,6.041666563E0,1.194550841E1,4.796173157E-1,1.339503411E1
1.435289458E1,1.078216041E1,1.295867768E1,4.035626621E0,1.733402990E1
1.436286158E1,1.593074840E1,1.451589646E1,1.084253759E1,2.412593244E1
1.437282858E1,1.412943410E1,1.477772425E1,1.057871707E1,2.302023668E1
1.438279558E1,9.994740440E0,1.480832741E1,9.056438913E0,2.002998959E1
1.439276358E1,6.244550328E0,1.474677377E1,6.015891452E0,1.710709488E1
1.440273058E1,4.231114243E0,1.408678451E1,3.370586532E0,1.508975411E1
1.441269758E1,3.537540911E0,1.355073282E1,2.418919441E0,1.421223864E1
1.442266458E1,3.399027682E0,1.319707919E1,2.192638042E0,1.380304133E1
1.443263258E1,3.155452558E0,1.277985696E1,2.093648189E0,1.332910303E1
1.444259958E1,2.727607696E0,1.225320994E1,1.810019639E0,1.268294795E1
1.445256663E1,2.220196993E0,1.170474813E1,1.569504948E0,1.201639502E1
1.446253363E1,1.776743427E0,1.112982650E1,1.384738780E0,1.135549896E1
1.447250163E1,2.266600496E0,1.054983767E1,1.768113813E0,1.093447663E1
1.448246863E1,3.399151058E0,9.784204423E0,2.880729024E0,1.075097595E1
1.449243562E1,3.141467480E0,7.777914805E0,4.350175248E0,9.449275175E0
1.450240262E1,1.336154850E0,3.984962837E0,6.366706849E0,7.628905210E0
1.451237062E1,-1.073816962E0,-1.497999932E0,9.276122314E0,9.457459059E0
1.452233763E1,-4.916167012E0,-1.307124009E1,1.221395408E1,1.855280814E1
1.453230463E1,-7.955750853E0,-3.265341562E1,1.687285880E1,3.760628787E1
1.454227163E1,-6.933274564E0,-5.284319170E1,2.101326987E1,5.728901043E1
1.455223963E1,-3.179722011E0,-6.492378249E1,1.935564972E1,6.782218915E1
1.456220663E1,2.724034170E0,-5.953616266E1,1.226498390E1,6.084738989E1
1.457217362E1,4.829553961E0,-4.351592380E1,2.744794124E0,4.386905641E1
1.458214162E1,9.743306074E-1,-2.820146725E1,-2.365909753E0,2.831730220E1
1.459210862E1,-9.658081444E-1,-1.733885149E1,-5.053957819E0,1.808621148E1
1.460207563E1,-8.414138938E-1,-1.093786475E1,-6.897256300E0,1.295827948E1
1.461204263E1,1.277382731E-2,-7.259003068E0,-7.623160642E0,1.052643657E1
1.462201063E1,1.151416311E0,-5.278356999E0,-1.848508585E1,1.925838028E1
1.463197763E1,3.662143323E0,-4.726689743E0,-4.835153840E1,4.871985381E1
1.464194463E1,4.483688524E0,-3.071060572E0,-2.547779911E1,2.605097164E1
1.465191162E1,6.087723327E0,-1.667935807E-1,-1.255634948E1,1.395528960E1
1.466187962E1,5.292372190E0,-5.047252232E-1,-7.667680757E0,9.330449032E0
1.467184662E1,4.577115336E0,-8.191744477E-1,-4.328724738E0,6.352864663E0
1.468181363E1,3.770500123E0,-5.367697191E-1,-2.251742575E0,4.424379903E0
1.469178063E1,3.936220154E0,7.158494693E-1,-9.568852933E-1,4.113623589E0
1.470174863E1,3.754390166E0,2.064289320E0,-5.357892872E-1,4.317847389E0
1.471171563E1,3.651583544E0,3.497308559E0,-2.320773049E-1,5.061530343E0
1.472168263E1,3.648002124E0,5.041997924E0,9.244447947E-4,6.223316111E0
1.473164962E1,3.386103873E0,6.488216084E0,2.006197232E-1,7.321399843E0
1.474161762E1,3.327852157E0,7.954369156E0,2.657619448E-1,8.626541489E0
1.475158462E1,3.116206924E0,9.183571415E0,1.780173111E-1,9.699506157E0
1.476155163E1,3.044844580E0,1.001188097E1,-3.236550808E-2,1.046469716E1
1.477151963E1,3.275150617E0,1.071019990E1,-1.742085079E-1,1.120113128E1
1.478148663E1,3.110824562E0,1.113119475E1,4.913795382E-1,1.156815369E1
1.479145363E1,4.339486538E0,1.146456556E1,-4.537147351E-1,1.226675442E1
1.480142063E1,7.113417338E0,1.259933354E1,2.238851913E-1,1.447045391E1
1.481138863E1,1.029566038E1,1.391693108E1,4.362664901E0,1.785257511E1
1.482135562E1,1.437364657E1,1.533121467E1,1.035678015E1,2.342884449E1
1.483132262E1,1.392678714E1,1.581175756E1,1.088838795E1,2.371758988E1
1.484128963E1,9.982063676E0,1.539846467E1,8.254471067E0,2.012189360E1
1.485125763E1,6.037524396E0,1.455904423E1,5.901970149E0,1.683005411E1
1.486122463E1,4.056736824E0,1.394462700E1,4.802433990E0,1.529617952E1
1.487119163E1,3.199724167E0,1.329914117E1,3.451602044E0,1.410740753E1
1.488115863E1,3.337737460E0,1.295921212E1,2.472713825E0,1.360867311E1
1.489112663E1,3.776393824E0,1.272392951E1,1.757366631E0,1.338834830E1
1.490109362E1,4.112830918E0,1.238037519E1,1.706792893E0,1.315683130E1
1.491106062E1,4.817286210E0,1.199377600E1,2.243228152E0,1.311826901E1
1.492102763E1,6.273305181E0,1.172463802E1,3.273325117E0,1.369438396E1
1.493099563E1,7.826543759E0,1.108346744E1,4.592702551E0,1.432448793E1
1.494096263E1,7.256985778E0,9.346349713E0,5.183943762E0,1.291864422E1
1.495092963E1,3.769572754E0,6.156008865E0,5.513646033E0,9.083304271E0
1.496089663E1,-4.294880761E-1,6.534713727E-1,7.692696315E0,7.732338678E0
1.497086463E1,-3.989248553E0,-7.802359675E0,1.147506833E1,1.443842491E1
1.498083162E1,-7.225871574E0,-2.279620053E1,1.639177212E1,2.899258822E1
1.499079862E1,-8.179834868E0,-4.212465601E1,2.072977113E1,4.765626668E1
1.500076563E1,-6.707405979E0,-6.030759752E1,2.234151402E1,6.466172641E1
1.501073363E1,3.026299551E-3,-6.926828711E1,1.590214031E1,7.107020244E1
1.502070063E1,4.074056861E0,-5.985042945E1,7.041766727E0,6.040081393E1
1.503066763E1,3.736804081E0,-3.948015684E1,1.292200161E0,3.967765455E1
1.504063563E1,8.575947475E-1,-2.123392741E1,-2.492855728E0,2.139695006E1
1.505060263E1,-1.936821480E-1,-1.201255726E1,-4.384935191E0,1.278931981E1
1.506056962E1,-4.037155961E-1,-7.951180669E0,-6.720316046E0,1.041858474E1
1.507053662E1,4.830008290E0,-5.416316205E0,-5.619438068E1,5.666104378E1
1.508050462E1,8.197943695E0,-2.767584817E0,-5.821146894E1,5.885100613E1
1.509047163E1,4.817395846E0,8.804608691E-1,-1.626424435E1,1.698552790E1
1.510043863E1,4.625505138E0,4.959713566E-1,-1.186738493E1,1.274661172E1
1.511040563E1,4.079823678E0,-8.529807097E-1,-5.927379225E0,7.246127366E0
1.512037363E1,4.610311441E0,-6.699289459E-1,-2.712593508E0,5.390912716E0
1.513034063E1,5.615125045E0,-2.595625806E-1,-1.215753517E0,5.751091950E0
1.514030762E1,6.031855520E0,4.589578968E-1,-3.457645726E-1,6.059164671E0
1.515027462E1,5.434444912E0,2.155059156E0,-3.598215714E-2,5.846260872E0
1.516024262E1,5.168577864E0,3.894261412E0,1.641136555E-1,6.473515457E0
1.517020963E1,5.106673391E0,5.404238781E0,3.447341470E-1,7.443302463E0
1.518017663E1,4.970344974E0,6.955201623E0,4.290691231E-1,8.559395953E0
1.519014363E1,4.693688935E0,8.038884811E0,5.142357194E-1,9.323026504E0
1.520011163E1,4.261244946E0,8.916872892E0,6.111229134E-1,9.901631274E0
1.521007863E1,3.884159762E0,9.861951342E0,7.452316549E-1,1.062544830E1
1.522004562E1,3.085301173E0,1.042653977E1,8.413995682E-1,1.090595105E1
1.523001262E1,4.251240360E0,1.133853117E1,-5.025776140E-1,1.211973258E1
1.523998062E1,6.019774003E0,1.277137850E1,-1.719923766E-1,1.412003432E1
1.524994763E1,8.607036536E0,1.379237018E1,1.943982857E0,1.637344260E1
1.525991463E1,1.289047459E1,1.537190661E1,6.332360889E0,2.103707780E1
1.526988163E1,1.273124087E1,1.619318781E1,8.075370267E0,2.212499561E1
1.527984963E1,1.031657002E1,1.591632332E1,6.655980302E0,2.010131933E1
1.528981663E1,8.409713473E0,1.554493742E1,6.418825421E0,1.880344861E1
1.529978362E1,6.884619298E0,1.500335661E1,5.145635144E0,1.729092980E1
1.530975162E1,5.678864958E0,1.443328583E1,3.304095504E0,1.585831940E1
1.531971862E1,4.934365886E0,1.392618137E1,2.278105624E0,1.494912237E1
1.532968563E1,4.349056384E0,1.322049612E1,2.105464243E0,1.407582284E1
1.533965263E1,3.866408493E0,1.247410606E1,1.861128981E0,1.319152143E1
1.534962063E1,3.516835336E0,1.150743033E1,1.778206108E0,1.216351514E1
1.535958763E1,4.130109148E0,1.099615915E1,2.069660718E0,1.192714606E1
1.536955463E1,5.316585510E0,1.046012852E1,3.060755439E0,1.212635947E1
1.537952163E1,6.016684334E0,9.229190807E0,4.060066813E0,1.174149036E1
1.538948962E1,5.326180206E0,6.772719378E0,5.229407033E0,1.007891965E1
1.539945662E1,1.610923407E0,-2.164580762E-2,8.828915566E0,8.974702939E0
1.540942363E1,-3.021667679E0,-1.113444697E1,1.380971068E1,1.799484632E1
1.541939063E1,-8.355979316E0,-2.724197424E1,1.807634325E1,3.374465493E1
1.542935863E1,-1.067597732E1,-4.129818249E1,2.142082782E1,4.773225568E1
1.543932563E1,-8.070101926E0,-4.936045441E1,1.964196682E1,5.373441974E1
1.544929263E1,-2.386184388E0,-4.876054411E1,1.330619993E1,5.059979738E1
1.545925950E1,1.069424606E0,-4.033649795E1,6.394637829E0,4.085423024E1
1.546922750E1,1.397282081E0,-3.030143160E1,1.059856954E0,3.035214080E1
1.547919450E1,1.513940027E0,-2.137508154E1,-2.077923272E0,2.152914049E1
1.548916150E1,1.907021146E-1,-1.532494996E1,-3.563133297E0,1.573487774E1
1.549912850E1,-1.718573133E0,-1.200813209E1,-4.490874752E0,1.293509512E1
1.550909650E1,-1.161832833E0,-9.886934155E0,-5.265502480E0,1.126174227E1
1.551906350E1,1.568047822E-2,-9.297417873E0,-1.366967922E1,1.653185879E1
1.552903050E1,2.465236405E0,-1.018297751E1,-4.970594065E1,5.079813931E1
1.553899750E1,4.668952874E0,-5.459320137E0,-2.858464932E1,2.947347068E1
1.554896550E1,4.647072009E0,-2.002631600E0,-1.278540363E1,1.375035845E1
1.555893250E1,3.823191429E0,-2.444620877E0,-8.332060695E0,9.487686724E0
1.556889950E1,4.374316063E0,-2.811475187E0,-4.870107910E0,7.124393644E0
1.557886650E1,6.008004143E0,-1.782055914E0,-2.339082727E0,6.689031699E0
1.558883450E1,7.242941351E0,-4.549730194E-1,-8.595012322E-1,7.307936934E0
1.559880150E1,7.545906644E0,5.570086867E-1,-7.003487930E-2,7.566760908E0
1.560876850E1,7.372245508E0,1.659784203E0,3.883463359E-1,7.566749653E0
1.561873650E1,6.499248025E0,2.806917867E0,4.492503494E-1,7.093718255E0
1.562870350E1,5.634308590E0,3.894797017E0,7.760379298E-1,6.893265697E0
1.563867050E1,5.078686278E0,5.594222419E0,1.530123950E0,7.709063373E0
1.564863750E1,4.934139599E0,7.184900134E0,1.505107954E0,8.844991434E0
1.565860550E1,4.021114417E0,8.257375379E0,8.080321397E-1,9.219898332E0
1.566857250E1,3.262645177E0,9.549409479E0,1.765835007E-1,1.009293103E1
1.567853950E1,3.036122289E0,1.034875777E1,-1.991304374E-1,1.078677333E1
1.568850650E1,2.652126866E0,1.075543396E1,-3.372212058E-1,1.108272777E1
1.569847450E1,2.893982908E0,1.101866859E1,-7.041527722E-1,1.141411520E1
1.570844150E1,3.962957425E0,1.154589215E1,-1.320203646E0,1.227825699E1
1.571840850E1,5.541011587E0,1.227235256E1,-1.033595427E0,1.350487935E1
1.572837550E1,6.962312422E0,1.258008918E1,-2.828532100E-2,1.437822096E1
1.573834350E1,8.034366667E0,1.314277727E1,1.721357723E0,1.549989401E1
1.574831050E1,1.014581378E1,1.442819407E1,4.255835686E0,1.814448839E1
1.575827750E1,9.806177675E0,1.482260748E1,4.931811238E0,1.844433721E1
1.576824450E1,7.915145448E0,1.441783398E1,4.403719956E0,1.702692613E1
1.577821250E1,6.610486625E0,1.369249974E1,3.651386200E0,1.563699791E1
1.578817950E1,6.922965338E0,1.337495617E1,3.754880748E0,1.552147000E1
1.579814650E1,8.224070808E0,1.316415001E1,3.928621405E0,1.601137884E1
1.580811350E1,9.406440963E0,1.254104264E1,3.721318899E0,1.611232747E1
1.581808150E1,1.027305153E1,1.176559894E1,4.212044134E0,1.617733668E1
1.582804850E1,9.824315153E0,1.049291035E1,4.912879708E0,1.519061298E1
1.583801550E1,7.988701667E0,8.711928568E0,5.166016198E0,1.289979756E1
1.584798250E1,4.930954036E0,5.278348228E0,5.908554114E0,9.332002970E0
1.585795050E1,1.089322974E0,-1.276593357E0,8.581025198E0,8.743586711E0
1.586791750E1,-3.217332472E0,-1.159296691E1,1.331279091E1,1.794375969E1
1.587788450E1,-9.229824060E0,-2.638065599E1,1.744104210E1,3.294417418E1
1.588785250E1,-1.285401018E1,-3.983524655E1,1.855743228E1,4.578701495E1
1.589781950E1,-1.187773918E1,-4.887053258E1,1.588139088E1,5.274114351E1
1.590778650E1,-5.800408106E0,-4.829699089E1,9.967552056E0,4.965476973E1
1.591775350E1,-6.024127547E-1,-4.085830815E1,4.281334809E0,4.108642201E1
1.592772150E1,9.341172588E-1,-3.209296702E1,1.940398514E-2,3.210656449E1
1.593768850E1,4.098374847E-1,-2.208947798E1,-2.837439748E0,2.227474059E1
1.594765550E1,-7.589251761E-1,-1.326940457E1,-5.463362902E0,1.437015655E1
1.595762250E1,-1.337914716E0,-8.711094171E0,-7.650557771E0,1.167065601E1
1.596759050E1,2.950535716E-1,-7.308333102E0,-3.417864779E1,3.495252143E1
1.597755750E1,3.932892212E0,-8.603707132E0,-6.985815422E1,7.049576674E1
1.598752450E1,-2.113485892E0,-4.993875924E0,-1.700514036E1,1.784882120E1
1.599749150E1,-5.345391525E-1,-2.378040386E0,-5.022202760E0,5.582412449E0
1.600745950E1,1.178748682E0,-3.036854945E0,-1.763564680E0,3.704334865E0
1.601742650E1,2.072538571E0,-2.568371349E0,-6.720513390E-1,3.368026205E0
1.602739350E1,2.464042404E0,-1.435366897E0,1.208897218E-2,2.851653773E0
1.603736050E1,2.715973198E0,-1.588951617E-1,2.258767712E-1,2.729977729E0
1.604732850E1,2.965503126E0,8.987749332E-1,4.372828531E-1,3.129412320E0
1.605729550E1,3.334579378E0,1.957843682E0,5.754570906E-1,3.909440162E0
1.606726250E1,3.626457181E0,3.520218535E0,5.482804017E-1,5.083674028E0
1.607722950E1,3.817530155E0,5.247431660E0,4.734497823E-1,6.506399174E0
1.608719750E1,3.943140042E0,6.757770386E0,6.153334203E-1,7.848213122E0
1.609716450E1,4.076070058E0,8.148486775E0,6.742529619E-1,9.136016687E0
1.610713150E1,4.161175404E0,9.325296228E0,4.706938434E-1,1.022243039E1
1.611709950E1,3.819890091E0,1.037966382E1,3.983837394E-1,1.106741573E1
1.612706650E1,3.341645154E0,1.113291617E1,4.508770448E-1,1.163235595E1
1.613703350E1,3.223178226E0,1.164705015E1,8.116753936E-2,1.208508350E1
1.614700050E1,3.488134863E0,1.210718743E1,-5.825113177E-2,1.259978037E1
1.615696850E1,4.439554617E0,1.272383362E1,-1.943690862E-1,1.347751337E1
1.616693550E1,6.634157909E0,1.349410839E1,-1.005194843E-2,1.503672549E1
1.617690250E1,9.164824657E0,1.453048526E1,1.365437121E0,1.723349737E1
1.618686950E1,1.262614887E1,1.563169373E1,5.201843843E0,2.075641258E1
1.619683750E1,1.343778216E1,1.593171553E1,6.333658386E0,2.178322239E1
1.620680450E1,9.051644781E0,1.514267705E1,3.954233379E0,1.807951612E1
1.621677150E1,5.397822046E0,1.449280581E1,2.760907881E0,1.570988591E1
1.622673850E1,4.097332873E0,1.424051716E1,1.985537850E0,1.495067979E1
1.623670650E1,3.800301334E0,1.355642217E1,1.097887244E0,1.412176436E1
1.624667350E1,4.381951942E0,1.290572881E1,6.969729030E-1,1.364716491E1
1.625664050E1,5.561421293E0,1.256710368E1,4.037467325E-1,1.374861859E1
1.626660750E1,6.968644956E0,1.220337296E1,6.709703350E-1,1.406892054E1
1.627657550E1,8.455029979E0,1.154974546E1,1.264897757E0,1.436955527E1
1.628654250E1,8.631430535E0,1.016576331E1,1.722721878E0,1.344663926E1
1.629650950E1,6.537499925E0,7.528005978E0,2.175494006E0,1.020502589E1
1.630647650E1,2.709641249E0,2.111628377E0,4.095129057E0,5.345204589E0
1.631644450E1,-7.718666723E-1,-7.213111196E0,9.538530734E0,1.198366888E1
1.632641150E1,-4.430813030E0,-2.272312904E1,1.575363507E1,2.800267336E1
1.633637850E1,-6.949374288E0,-4.312153612E1,2.029735549E1,4.816371373E1
1.634634550E1,-5.478758036E0,-5.876138320E1,2.113097900E1,6.268520733E1
1.635631350E1,1.478307314E-1,-6.195942191E1,1.498872454E1,6.374679349E1
1.636628050E1,4.120613854E0,-5.164312788E1,6.230307680E0,5.218054090E1
1.637624750E1,3.165200159E0,-3.645234695E1,6.288018237E-1,3.659491061E1
1.638621550E1,7.203278518E-1,-2.158738458E1,-2.962240380E0,2.180158053E1
1.639618250E1,-9.240675031E-1,-1.210866210E1,-5.149548100E0,1.319058164E1
1.640614950E1,-1.340799147E0,-8.315306668E0,-7.053444201E0,1.098604307E1
1.641611650E1,-1.686608305E0,-6.743283910E0,-1.551309816E1,1.699919821E1
1.642608450E1,3.009441151E0,-3.727735049E0,-7.077221436E1,7.093418830E1
1.643605150E1,-7.228325066E-1,-1.878367158E0,-3.044083624E1,3.050729848E1
1.644601850E1,-4.789433876E-1,-3.364938122E-1,-7.827330210E0,7.849185503E0
1.645598571E1,2.330325060E0,-1.020502853E0,-3.940855535E0,4.690648495E0
1.646595371E1,3.557166798E0,-6.561353642E-1,-2.723907285E0,4.528092330E0
1.647592071E1,4.152010186E0,-2.127135193E-1,-1.602997214E0,4.455786765E0
1.648588771E1,4.826732387E0,7.463222337E-1,-4.711569428E-1,4.906763830E0
1.649585471E1,5.227020199E0,1.687770731E0,2.256955075E-1,5.497385621E0
1.650582271E1,5.649933520E0,2.650602497E0,7.669577886E-1,6.287739389E0
1.651578971E1,5.968783944E0,3.852852600E0,1.200477812E0,7.204998397E0
1.652575671E1,5.618141624E0,5.015476708E0,1.559896949E0,7.691020765E0
1.653572371E1,5.004272273E0,6.388692380E0,1.559717293E0,8.263827766E0
1.654569171E1,4.736544056E0,7.902890854E0,1.328845246E0,9.308939957E0
1.655565871E1,4.168203173E0,9.061056460E0,1.180168605E0,1.004337890E1
1.656562571E1,4.015964482E0,1.016246782E1,9.991289413E-1,1.097278367E1
1.657559371E1,4.224049930E0,1.103081092E1,7.803185302E-1,1.183766381E1
1.658556071E1,5.205931631E0,1.171968543E1,7.036047419E-1,1.284320094E1
1.659552771E1,6.524372342E0,1.235112976E1,1.309883310E0,1.402974109E1
1.660549471E1,7.549745341E0,1.269352165E1,9.207633877E-1,1.479770090E1
1.661546271E1,8.344646827E0,1.300765981E1,3.886749494E-1,1.545908835E1
1.662542971E1,9.235592923E0,1.362044333E1,4.013874175E-1,1.646128078E1
1.663539671E1,8.717641883E0,1.399149477E1,3.016362208E-1,1.648788010E1
1.664536371E1,8.093730524E0,1.431820093E1,2.476342022E0,1.663284767E1
1.665533171E1,6.275965079E0,1.442036231E1,3.510510988E0,1.611391555E1
1.666529871E1,3.945073716E0,1.408024615E1,2.729059267E0,1.487496900E1
1.667526571E1,3.171231270E0,1.362976847E1,2.268647168E0,1.417653188E1
1.668523271E1,3.812543942E0,1.330109414E1,1.961549063E0,1.397505890E1
