"Time (s)","Linear Acceleration x (m/s^2)","Linear Acceleration y (m/s^2)","Linear Acceleration z (m/s^2)","Absolute acceleration (m/s^2)"
-3.203333472E-4,-4.660083233E-1,2.260469252E-1,4.226993126E-1,6.685324813E-1
9.646666644E-3,-4.122393747E-1,2.857224387E-1,3.367832494E-1,6.041535989E-1
1.961366663E-2,-1.953326708E-1,2.215504164E-1,1.463464522E-1,3.296311929E-1
2.958066663E-2,4.443167612E-2,9.000092804E-2,-3.795427680E-2,1.073073531E-1
3.954766667E-2,1.574371585E-1,-1.700955033E-2,-1.187358999E-1,1.979242219E-1
4.951466667E-2,1.549158391E-1,-4.803896964E-2,-1.124156445E-1,1.973421824E-1
5.948166666E-2,8.193250135E-2,-2.831631124E-2,-1.056428146E-1,1.366570618E-1
6.944866665E-2,5.095044449E-2,1.585764885E-3,-1.277622467E-1,1.375560036E-1
7.941566664E-2,6.492792115E-2,4.431604743E-2,-2.407532573E-1,2.532620735E-1
8.938266663E-2,4.328649893E-2,6.685823321E-2,-2.972046161E-1,3.076919371E-1
9.934966668E-2,4.026421934E-2,6.654950023E-2,-1.898947603E-1,2.052073666E-1
1.093166667E-1,8.133813187E-2,5.539535165E-2,-6.175770700E-2,1.161832650E-1
1.192836667E-1,1.855513023E-1,1.009989560E-2,-7.109044790E-3,1.859619106E-1
1.292506667E-1,2.253839971E-1,-1.951917529E-2,-1.763169408E-2,2.269136862E-1
1.392186666E-1,2.374975276E-1,-5.166482806E-2,-3.461727083E-2,2.455049603E-1
1.491856666E-1,2.056519832E-1,-4.356409550E-2,-2.208610296E-2,2.113725728E-1
1.591526666E-1,1.517801236E-1,-4.149242699E-2,-3.816126823E-2,1.619108082E-1
1.691196667E-1,1.127802184E-1,-3.293619633E-2,-7.740368664E-2,1.406964868E-1
1.790866667E-1,4.974650279E-2,-3.283094645E-2,-1.489192271E-1,1.604042449E-1
1.890536667E-1,-4.663943857E-2,-1.163829803E-2,-1.229821479E-1,1.320427806E-1
1.990206667E-1,-1.815345575E-1,7.342874944E-2,-3.530665755E-2,1.989802424E-1
2.089876666E-1,-2.503258802E-1,1.222167474E-1,1.042581940E-1,2.974386502E-1
2.189546666E-1,-2.410197441E-1,1.334036404E-1,1.647809690E-1,3.209981559E-1
2.289216666E-1,-2.220218481E-1,1.147054142E-1,5.977082312E-2,2.569505485E-1
2.388886667E-1,-2.034990384E-1,7.478530347E-2,8.990094066E-3,2.169919861E-1
2.488556667E-1,-1.550848237E-1,5.171102107E-2,2.806605041E-2,1.658705381E-1
2.588226667E-1,-5.786463082E-2,5.370959938E-2,5.835170388E-2,9.817310177E-2
2.687896666E-1,-9.828869842E-2,9.397352636E-2,1.308723807E-2,1.366124727E-1
2.787566666E-1,-1.803273998E-1,1.533075625E-1,-8.945479810E-2,2.530283398E-1
2.887236666E-1,-2.241546931E-1,2.625399828E-1,-2.090923387E-1,4.035990276E-1
2.986906667E-1,-3.915275136E-1,3.576572245E-1,-3.193608856E-1,6.190346189E-1
3.086576667E-1,-6.581008326E-1,5.140100169E-1,-3.016794902E-1,8.878702147E-1
3.186246667E-1,-6.821654141E-1,6.719193381E-1,-3.987935561E-1,1.037237461E0
3.285916667E-1,-6.173118257E-1,7.283882385E-1,-5.691732341E-1,1.111567131E0
3.385586666E-1,-4.920532836E-1,8.759719616E-1,-1.057953100E0,1.459009278E0
3.485256666E-1,-6.140646476E-1,8.718368107E-1,-1.578891483E0,1.905275080E0
3.584926666E-1,-8.315879403E-1,6.807001019E-1,-1.619456542E0,1.943587050E0
3.684596667E-1,-6.730745286E-1,7.994003338E-1,-1.561465026E0,1.878894154E0
3.784266667E-1,-4.632706204E-1,8.448279369E-1,-1.650433921E0,1.911095507E0
3.883936667E-1,-4.128784753E-2,8.887218153E-1,-1.893276388E0,2.091895464E0
3.983616667E-1,2.506757995E-1,8.442712820E-1,-2.456568493E0,2.609666859E0
4.083286666E-1,5.329666170E-1,5.424847877E-1,-2.751079881E0,2.854257114E0
4.182956666E-1,9.194278836E-1,6.087460202E-1,-2.470161515E0,2.705109473E0
4.282626666E-1,9.892044622E-1,2.287094548E-1,-1.483059711E0,1.797303422E0
4.382296667E-1,1.705256976E0,-2.694683486E-1,-9.732707995E-1,1.981860387E0
4.481966667E-1,2.323191311E0,-6.150057569E-1,-4.429452968E-1,2.443696070E0
4.581645000E-1,2.318973568E0,-1.817311994E0,5.155162597E-1,2.990989519E0
4.681315000E-1,4.434856964E0,-1.928876868E0,-1.129448760E0,4.966304136E0
4.780985000E-1,4.951608156E0,-3.321170543E0,-2.263215689E0,6.377361709E0
4.880655000E-1,5.537623125E0,-3.562015894E0,-2.788871605E0,7.150596614E0
4.980325000E-1,3.682016255E0,-1.219789704E0,-1.402303816E0,4.124510470E0
5.079995000E-1,-1.158318730E0,1.350224713E0,-1.368919138E0,2.244715720E0
5.179665000E-1,-2.649401186E0,2.795124033E-1,-8.849053377E-1,2.807224837E0
5.279335000E-1,-5.978640595E-1,-6.292212152E-1,-1.808029246E-1,8.865948731E-1
5.379005000E-1,7.226340667E-1,-9.265372208E-1,9.274245358E-1,1.496926012E0
5.478675000E-1,2.374609094E-1,-1.034488224E0,2.572032875E0,2.782428199E0
5.578345000E-1,2.841248332E-1,-9.448232183E-1,2.602535461E0,2.783273012E0
5.678015000E-1,8.898767135E-1,-7.910192272E-1,1.641094748E0,2.027506832E0
5.777685000E-1,1.498514780E0,-1.070124080E0,5.233088440E-1,1.914305158E0
5.877355000E-1,1.869342857E0,-1.428385029E0,-6.134892815E-1,2.431274482E0
5.977025000E-1,2.214095862E0,-1.506267603E0,-1.792971497E0,3.222702183E0
6.076695000E-1,2.632110677E0,-1.264769995E0,-2.580904856E0,3.897270793E0
6.176365000E-1,2.824496351E0,-1.065399822E0,-2.939647323E0,4.213594998E0
6.276035000E-1,3.237861169E0,-1.342106146E0,-2.781411728E0,4.474510594E0
6.375705000E-1,4.421197869E0,-1.974729856E0,-2.525711233E0,5.461297083E0
6.475375000E-1,5.549070804E0,-2.793612235E0,-2.688014737E0,6.769186017E0
6.575045000E-1,4.909125795E0,-3.467538338E0,-2.437214209E0,6.485626516E0
6.674725000E-1,4.027345210E0,-3.447547585E0,-1.599895266E0,5.537576966E0
6.774395000E-1,3.154118808E0,-2.847706874E0,-1.708656401E0,4.580109889E0
6.874065000E-1,3.055337116E0,-2.153259091E0,-2.187152769E0,4.330732830E0
6.973735000E-1,4.395829723E0,-1.564152114E0,-2.095888842E0,5.114942896E0
7.073405000E-1,4.808019835E0,-6.160962626E-1,-2.304688236E0,5.367328684E0
7.173075000E-1,4.939587450E0,2.751348853E-2,-2.998384944E0,5.778459435E0
7.272745000E-1,3.830916771E0,-6.117052960E-1,-3.887824212E0,5.492293126E0
7.372415000E-1,2.210117124E0,-1.427213539E0,-4.231387893E0,4.982589657E0
7.472085000E-1,1.180703114E0,-1.688118056E0,-3.751302837E0,4.279728424E0
7.571755000E-1,5.267633790E-1,-2.045880092E0,-2.352989160E0,3.162224375E0
7.671425000E-1,-2.737099189E-1,-2.739046604E0,3.135271186E-1,2.770485999E0
7.771095000E-1,-1.301258667E0,-3.247581580E0,3.600095594E-1,3.517053756E0
7.870765000E-1,-1.744729044E0,-3.514610763E0,3.171898144E-1,3.936645479E0
7.970435000E-1,-2.003198195E0,-3.204965903E0,1.014102491E0,3.913184549E0
8.070105000E-1,-1.958292164E0,-3.011399091E0,1.188190473E0,3.783547183E0
8.169775000E-1,-2.145220631E0,-2.831658021E0,9.576499629E-1,3.679314088E0
8.269445000E-1,-2.543808950E0,-2.590377930E0,2.506894308E-1,3.639212413E0
8.369115000E-1,-2.811889755E0,-2.163832026E0,-8.194668084E-1,3.641485807E0
8.468785000E-1,-2.972512769E0,-1.662525378E0,-1.632005251E0,3.776673660E0
8.568455000E-1,-3.282797021E0,-1.326888621E0,-1.759838249E0,3.954038487E0
8.668125000E-1,-3.343743719E0,-1.087997191E0,-1.472164010E0,3.812037096E0
8.767795000E-1,-2.888643231E0,-8.401003899E-1,-6.732180047E-1,3.082734316E0
8.867465000E-1,-2.203788682E0,-7.948978315E-1,8.514925933E-1,2.492706713E0
8.967135000E-1,-1.422369121E0,-9.887436285E-1,3.020021396E0,3.481562452E0
9.066805000E-1,-1.007998583E0,-1.315905796E0,5.371086237E0,5.621052978E0
9.166475000E-1,-9.696718383E-1,-2.086765870E0,7.226182061E0,7.583703743E0
9.266145000E-1,-1.363419247E0,-2.946927692E0,8.477835290E0,9.078380145E0
9.365825000E-1,-2.161244926E0,-3.351800306E0,8.958698026E0,9.806315069E0
9.465495000E-1,-3.022840923E0,-3.197510996E0,8.337954104E0,9.427784599E0
9.565165000E-1,-3.193536351E0,-2.722762985E0,6.839782264E0,8.024632958E0
9.664835000E-1,-2.401967193E0,-2.069034189E0,5.341124520E0,6.211115842E0
9.764505000E-1,-1.178424454E0,-1.455834052E0,4.517178159E0,4.890095654E0
9.864175000E-1,2.781684208E-1,-6.825869253E-1,4.606583256E0,4.665180798E0
9.963845000E-1,1.529298908E0,6.873964794E-2,5.088855756E0,5.314125817E0
1.006351500E0,2.204162319E0,4.300015347E-1,5.597483411E0,6.031173467E0
1.016318500E0,2.287095718E0,4.487733628E-1,6.133611106E0,6.561508176E0
1.026285500E0,1.932024132E0,4.094327112E-1,6.188718774E0,6.496198308E0
1.036252500E0,1.385407117E0,3.855696394E-1,5.745731378E0,5.922959217E0
1.046219500E0,8.724782503E-1,5.442997634E-1,4.913278488E0,5.019739638E0
1.056186500E0,6.593530869E-1,7.874477479E-1,3.853540525E0,3.988056548E0
1.066153500E0,8.517574722E-1,8.508567086E-1,3.004717478E0,3.236939149E0
1.076120500E0,1.273284418E0,1.042561328E0,2.638555771E0,3.109688712E0
1.086087500E0,2.026583549E0,1.696901305E0,2.301627510E0,3.504854365E0
1.096054500E0,2.701156939E0,2.384946240E0,1.899852605E0,4.073531306E0
1.106021500E0,3.188558031E0,2.646638669E0,1.661963460E0,4.464719600E0
1.115988500E0,3.539443595E0,2.531744682E0,1.692135093E0,4.669123395E0
1.125955500E0,3.371831405E0,2.431226660E0,1.765461516E0,4.516299864E0
1.135922500E0,2.966547439E0,2.480028691E0,1.614993947E0,4.190364121E0
1.145889500E0,2.587335624E0,2.516030875E0,1.217694354E0,3.808870769E0
1.155856500E0,2.254254246E0,2.619912508E0,5.582822102E-1,3.501040243E0
1.165823500E0,1.813356060E0,2.855706450E0,-4.574966776E-1,3.413593815E0
1.175790500E0,1.290590422E0,3.022602064E0,-1.569328946E0,3.642051650E0
1.185757500E0,7.677283055E-1,3.070892757E0,-2.320559479E0,3.924893039E0
1.195724500E0,3.057251787E-1,3.195229120E0,-2.554702898E0,4.102372961E0
1.205691500E0,-9.955644786E-2,3.189632457E0,-2.466100624E0,4.033028513E0
1.215658500E0,-3.470842892E-1,2.815107477E0,-2.350582593E0,3.683820861E0
1.225626500E0,-3.416995883E-1,2.320394734E0,-2.274927223E0,3.267458370E0
1.235593500E0,-9.184572458E-2,1.847901702E0,-2.218758724E0,2.888955973E0
1.245560500E0,2.819895762E-1,1.385947400E0,-2.104770178E0,2.535828429E0
1.255527500E0,6.627433026E-1,9.466004795E-1,-1.903619382E0,2.226891983E0
1.265494500E0,1.106848102E0,5.259368750E-1,-1.444354067E0,1.894170264E0
1.275461500E0,1.567684125E0,1.679913828E-1,-8.437982422E-1,1.788253364E0
1.285428500E0,1.953200993E0,-1.208467448E-1,-2.750693965E-1,1.976173380E0
1.295395500E0,2.135274518E0,-3.036473706E-1,1.624198633E-1,2.162863658E0
1.305362500E0,2.320005602E0,-5.240710285E-1,4.456759465E-1,2.419856087E0
1.315329500E0,2.690582249E0,-6.120476505E-1,6.416649672E-1,2.832943539E0
1.325296500E0,2.884457794E0,-5.195701343E-1,6.335694972E-1,2.998576362E0
1.335263500E0,2.877697243E0,-4.322331977E-1,5.548726988E-1,2.962406230E0
1.345230500E0,2.745672376E0,-4.841500407E-1,4.368039662E-1,2.822041063E0
1.355197500E0,2.351957127E0,-5.312084323E-1,3.662558475E-1,2.438857944E0
1.365164500E0,1.898231903E0,-4.533501247E-1,3.090151146E-1,1.975930423E0
1.375131500E0,1.542155766E0,-4.120991877E-1,1.840820432E-1,1.606846709E0
1.385098500E0,1.362897091E0,-2.992221978E-1,1.312927955E-1,1.401520675E0
1.395065500E0,1.334917579E0,-1.415847722E-1,6.257441685E-2,1.343862623E0
1.405032500E0,1.488766594E0,-9.190068841E-2,9.511651084E-2,1.494630007E0
1.414999500E0,1.810075772E0,-5.199227214E-2,2.245064762E-1,1.824686454E0
1.424966500E0,2.175020966E0,-7.855588049E-2,4.976055072E-1,2.232599039E0
1.434933500E0,2.623756176E0,-2.245781046E-1,1.075575439E0,2.844537628E0
1.444900500E0,2.944958349E0,-2.626885021E-1,1.694145951E0,3.407626070E0
1.454867500E0,3.086027690E0,-2.497512451E-1,2.216070759E0,3.807481082E0
1.464834250E0,2.981794639E0,-2.896678475E-1,2.749420441E0,4.066241445E0
1.474801250E0,2.751582157E0,-4.959909448E-1,3.416076701E0,4.414384601E0
1.484768250E0,2.376562210E0,-8.785324574E-1,3.797960694E0,4.565563782E0
1.494735250E0,1.890486681E0,-1.103668094E0,3.591269807E0,4.205858055E0
1.504702250E0,1.423383029E0,-1.150646086E0,3.116838423E0,3.614510675E0
1.514669250E0,8.796983922E-1,-1.368122894E0,2.740498760E0,3.186842162E0
1.524637250E0,3.825295258E-1,-1.614724682E0,2.531611074E0,3.026998392E0
1.534604250E0,-1.565884352E-3,-1.658480128E0,2.529156997E0,3.024432823E0
1.544571250E0,-1.949087477E-1,-1.680417565E0,2.683727558E0,3.172410160E0
1.554538250E0,-2.613851577E-1,-1.648449668E0,2.866195185E0,3.316742882E0
1.564505250E0,-5.970457417E-1,-1.645076994E0,2.921110480E0,3.405235436E0
1.574472250E0,-1.226433603E0,-1.942106486E0,2.631251721E0,3.492764322E0
1.584439250E0,-1.961879430E0,-2.265529578E0,2.043656834E0,3.627413462E0
1.594406250E0,-2.350792361E0,-2.247260246E0,1.370773290E0,3.529224101E0
1.604373250E0,-2.460211893E0,-1.935785500E0,3.763834443E-1,3.153025936E0
1.614340250E0,-2.764120342E0,-1.609436168E0,-8.554693577E-1,3.310962679E0
1.624307250E0,-3.161850874E0,-1.462808757E0,-1.689777496E0,3.872009607E0
1.634274250E0,-3.489173328E0,-1.448267317E0,-2.323405465E0,4.435089818E0
1.644241250E0,-3.643262663E0,-1.441711418E0,-2.800602289E0,4.816146575E0
1.654208250E0,-3.553271676E0,-1.533678180E0,-2.811615520E0,4.783627305E0
1.664175250E0,-3.116520334E0,-1.526342410E0,-2.357130743E0,4.195054885E0
1.674142250E0,-2.605154428E0,-1.307497061E0,-1.621844544E0,3.335679524E0
1.684109250E0,-2.136635749E0,-1.053627476E0,-1.057975320E0,2.606655896E0
1.694076250E0,-1.660070132E0,-7.866058950E-1,-9.344639987E-1,2.061020292E0
1.704043250E0,-1.169672341E0,-5.805364206E-1,-6.074882841E-1,1.440207602E0
1.714010250E0,-8.127506965E-1,-5.336470136E-1,-1.306549009E-1,9.810267749E-1
1.723977250E0,-7.559870964E-1,-5.142517993E-1,8.477817675E-2,9.182367572E-1
1.733944250E0,-7.808196366E-1,-2.461663172E-1,-6.159170455E-1,1.024514991E0
1.743911250E0,-8.676121974E-1,5.935216248E-2,-1.709053427E0,1.917586301E0
1.753878250E0,-1.060856243E0,2.617544094E-1,-2.610482411E0,2.829938119E0
1.763845250E0,-1.019634542E0,5.395325285E-1,-3.560211736E0,3.742440053E0
1.773812250E0,-1.055990775E0,6.288206810E-1,-4.051673720E0,4.233980621E0
1.783779250E0,-1.338053441E0,2.922461772E-1,-3.687409726E0,3.933546152E0
1.793746250E0,-1.011263083E0,2.437797761E-1,-4.009804147E0,4.142536772E0
1.803713250E0,-1.166949293E0,-9.354141712E-2,-2.473434201E0,2.736493632E0
1.813680250E0,-1.331813293E0,-4.180241713E-1,-1.032288501E0,1.736113592E0
1.823647250E0,-1.488247946E0,-7.480725977E-1,-5.308336258E-2,1.666527048E0
1.833615250E0,-2.085259774E0,-1.041298768E0,8.134424952E-1,2.468663635E0
1.843582250E0,-2.421327909E0,-1.099477687E0,7.673236050E-1,2.767754603E0
1.853549250E0,-2.535936844E0,-6.820741975E-1,-6.253187835E-2,2.626806259E0
1.863516250E0,-2.978406177E0,-3.077825215E-1,-5.633043838E-1,3.046792619E0
1.873483250E0,-3.246094633E0,-2.382924566E-1,-9.839203334E-1,3.400296000E0
1.883450250E0,-2.667115619E0,-7.246892899E-2,-1.272216716E0,2.955891209E0
1.893417250E0,-2.718648300E0,6.503945678E-1,-1.253131405E-3,2.795364599E0
1.903384250E0,-4.288246218E0,4.549057764E-1,3.124624575E0,5.325342583E0
1.913351250E0,-2.163096739E0,6.066886774E-1,1.159356683E0,2.528075666E0
1.923318250E0,-4.901381743E-1,7.711416176E-1,9.030918594E-1,1.284706087E0
1.933285250E0,1.492290126E0,8.804073671E-1,-7.412234616E-1,1.884531553E0
1.943252250E0,1.505877886E0,2.338748851E0,-1.243292879E0,3.046833041E0
1.953219250E0,2.726909831E0,2.605425155E0,-9.831210190E-1,3.897538248E0
1.963186250E0,4.204605306E0,2.489822778E0,-1.077445963E0,5.003879800E0
1.973153250E0,4.608245620E0,2.400726414E0,-8.396215761E-1,5.263494979E0
1.983120250E0,4.213484303E0,1.877898211E0,-3.321341282E-1,4.624961053E0
1.993087250E0,3.776297345E0,1.314235393E0,4.193549976E-3,3.998456438E0
2.003054250E0,3.373876176E0,9.099004304E-1,1.927832482E-1,3.499732079E0
2.013021250E0,3.253318868E0,6.850744039E-1,1.138868771E-1,3.326617023E0
2.022988250E0,3.403837894E0,7.643193787E-1,1.603255369E-2,3.488632047E0
2.032955250E0,3.833677826E0,1.055225666E0,-3.033506244E-1,3.987807478E0
2.042922250E0,4.044402707E0,1.494115042E0,-8.280476705E-1,4.390357157E0
2.052889250E0,3.876164864E0,1.826145382E0,-1.249138926E0,4.463161331E0
2.062856250E0,3.448293689E0,1.917477721E0,-1.260456212E0,4.142004351E0
2.072823250E0,2.969817202E0,2.061576211E0,-1.138600822E0,3.790293197E0
2.082790250E0,2.680805120E0,2.096205761E0,-1.138672743E0,3.588505302E0
2.092757250E0,2.592939010E0,1.804175639E0,-1.035389207E0,3.324216187E0
2.102724250E0,2.364897600E0,1.548572793E0,-7.178842273E-1,2.916534950E0
2.112691250E0,2.187649782E0,1.428305799E0,-4.130309415E-1,2.645082907E0
2.122658250E0,2.084984370E0,1.294072147E0,-4.076795697E-2,2.454270680E0
2.132625250E0,1.862809471E0,1.115014324E0,2.914994878E-1,2.190499491E0
2.142592250E0,1.610971647E0,1.030743959E0,2.285558923E-1,1.926110213E0
2.152560250E0,1.463760391E0,1.043163153E0,6.100692451E-2,1.798473156E0
2.162527250E0,1.305865104E0,1.087878565E0,-1.933158930E-1,1.710594773E0
2.172494250E0,8.596085286E-1,1.140769262E0,-3.278761858E-1,1.465532028E0
2.182461250E0,3.884375525E-1,1.092978799E0,-2.763745133E-1,1.192421594E0
2.192428250E0,1.289404607E-1,9.809685127E-1,-3.501441371E-1,1.049535984E0
2.202395250E0,-1.327376425E-2,6.370620391E-1,-1.511528635E-1,6.548827548E-1
2.212362250E0,-5.208992064E-2,2.995774162E-1,1.666573223E-1,3.467486859E-1
2.222329250E0,-2.382114726E-1,1.106364830E-1,1.790136401E-1,3.178537720E-1
2.232296250E0,-5.567894161E-1,-7.487944365E-3,2.839512805E-1,6.250590795E-1
2.242263250E0,-7.003391451E-1,-1.300368136E-1,4.516143421E-1,8.434097492E-1
2.252230250E0,-6.792429757E-1,-2.883072004E-1,5.349080022E-1,9.113828135E-1
2.262197250E0,-6.777279621E-1,-4.027699551E-1,6.897083223E-1,1.047490524E0
2.272164250E0,-5.822762597E-1,-3.028643554E-1,8.727753619E-1,1.092020738E0
2.282131250E0,-5.752812356E-1,-1.107448757E-1,1.038926260E0,1.192719876E0
2.292098250E0,-5.942770851E-1,1.938888471E-1,9.487224340E-1,1.136148052E0
2.302065250E0,-6.460348839E-1,4.172231393E-1,9.222941887E-1,1.200859188E0
2.312032250E0,-8.523375160E-1,3.602411822E-1,1.046939285E0,1.397259753E0
2.321999250E0,-1.151751795E0,4.328627966E-2,7.933361864E-1,1.399209850E0
2.331966250E0,-1.636652033E0,-8.092281877E-1,9.046882224E-1,2.037631203E0
2.341933250E0,-1.656082916E0,-1.412731740E0,1.738126953E0,2.785589147E0
2.351900250E0,-9.981436855E-1,-1.038724532E0,1.694861065E0,2.224363617E0
2.361867250E0,-1.789008254E-1,-1.857544748E-1,9.166095257E-1,9.521991666E-1
2.371834250E0,9.963713944E-2,6.948723639E-1,9.596918106E-2,7.085091710E-1
2.381801250E0,-5.200525296E-1,4.634731533E-1,-1.411423134E0,1.573968634E0
2.391768250E0,-1.016158372E0,-2.336275114E-1,-1.674842538E0,1.972880427E0
2.401735250E0,-1.004959200E0,3.651493350E-1,-1.941407744E0,2.216380170E0
2.411702250E0,6.826478094E-1,5.264979885E-1,-2.125526624E0,2.293702595E0
2.421669250E0,2.862762285E0,1.008529802E0,-8.341468281E-1,3.147751768E0
2.431636250E0,2.764481699E0,4.406952151E-1,-2.044478953E-2,2.799462329E0
2.441603250E0,1.375133559E0,-2.923936732E-1,6.819233394E-1,1.562531858E0
2.451570250E0,6.451730043E-1,-1.133750995E0,9.363614202E-1,1.605743514E0
2.461537042E0,2.911381298E-1,-1.943353843E0,3.836662245E-1,2.002145185E0
2.471505042E0,-5.060958105E-1,-2.824729948E0,-1.366635362E-1,2.872961742E0
2.481472042E0,-1.184862238E0,-3.207636911E0,-7.305891305E-1,3.496654623E0
2.491439042E0,-8.259700817E-1,-2.786584759E0,-9.043403131E-1,3.043864747E0
2.501406042E0,-5.331859607E-1,-2.297849624E0,-1.049636605E0,2.581886359E0
2.511373042E0,-7.965135634E-1,-2.360866091E0,-5.994290668E-1,2.562701263E0
2.521340042E0,-1.040798539E0,-3.080511426E0,2.872643495E-1,3.264250764E0
2.531307042E0,-5.318334997E-2,-3.260116549E0,2.845565404E-1,3.272943752E0
2.541274042E0,2.538153523E-1,-2.990521023E0,-2.310819626E-3,3.001273657E0
2.551241042E0,-4.551472664E-2,-2.392977391E0,2.198377669E-2,2.393511160E0
2.561208042E0,-5.285152048E-1,-2.013133784E0,7.489610821E-1,2.212007834E0
2.571175042E0,-6.353081667E-1,-1.876080896E0,1.385385482E0,2.417144789E0
2.581142042E0,-5.567321134E-1,-1.916636307E0,8.966290051E-1,2.188010272E0
2.591109042E0,-6.715725982E-1,-1.704333262E0,-6.409257330E-2,1.832994676E0
2.601076042E0,-1.010001839E0,-9.868989050E-1,-8.922441781E-1,1.670381045E0
2.611043042E0,-1.650002396E0,-5.866803825E-1,-1.631705874E0,2.393567596E0
2.621010042E0,-1.156971020E0,-2.490992805E-1,-1.861948761E0,2.206237879E0
2.630977042E0,-2.698606968E-1,-1.455684802E-1,-8.038863176E-1,8.603767720E-1
2.640944042E0,2.194372326E-1,-6.319831476E-1,4.968565520E-1,8.333197652E-1
2.650911042E0,1.179887427E0,-1.047626625E0,1.730429093E0,2.341802881E0
2.660878042E0,1.342659878E0,-1.678339757E0,2.926884606E0,3.631282609E0
2.670845042E0,5.024734604E-1,-1.994066014E0,2.166619102E0,2.987141975E0
2.680812042E0,-7.653753859E-1,-1.703393322E0,-1.727046040E-1,1.875413334E0
2.690779042E0,-1.698575801E0,-1.122981740E0,-6.577760929E-1,2.139840445E0
2.700746042E0,-2.198574720E0,-8.245655805E-1,-6.075508493E-1,2.425439595E0
2.710713042E0,-2.874004142E0,-5.609254441E-1,3.985625911E-1,2.955230837E0
2.720680042E0,-2.680888150E0,5.112396061E-1,1.897391074E0,3.323946464E0
2.730647042E0,-1.674231504E0,1.484849983E0,1.854425733E0,2.906325068E0
2.740614042E0,-1.385991839E0,1.737619122E0,1.874641896E0,2.907675331E0
2.750581042E0,-9.822515380E-1,2.086296485E0,1.709443875E0,2.870478962E0
2.760548042E0,-2.858890843E-1,2.572476094E0,1.110486825E0,2.816477732E0
2.770515042E0,7.867843813E-1,2.929542458E0,7.665069683E-1,3.128702863E0
2.780482042E0,1.546283315E0,3.226925122E0,3.148433268E-1,3.592097459E0
2.790449042E0,7.468829817E-1,3.013983268E0,-2.101129702E-1,3.112246261E0
2.800416042E0,5.327936125E-1,2.732578999E0,-7.387328401E-1,2.880379007E0
2.810384042E0,6.729864550E-1,1.606678036E0,-1.417421207E0,2.245753317E0
2.820351042E0,1.030059543E0,-1.441903280E-1,-1.754189254E0,2.039361040E0
2.830318042E0,1.775077263E0,-1.029218201E0,-1.596900615E0,2.600054032E0
2.840285042E0,7.776662332E-1,-8.534166927E-1,-7.588949168E-1,1.381667947E0
2.850252042E0,-3.604516089E-2,-1.247578011E0,-1.719025853E-1,1.259881204E0
2.860219042E0,-7.242150807E-1,-1.466778286E0,1.858154503E-1,1.646345469E0
2.870186042E0,-1.591566492E0,-1.214767969E0,9.668476331E-1,2.223407174E0
2.880153042E0,-1.240465751E0,-1.701539463E0,5.112238187E-1,2.166873696E0
2.890120042E0,-1.470475334E-1,-1.608933892E0,-5.578674965E-1,1.709241759E0
2.900087042E0,-1.693727875E-1,-9.376086313E-1,-6.196671572E-1,1.136566968E0
2.910054042E0,-5.174627978E-1,-2.810993376E-1,-1.632168388E-1,6.110845450E-1
2.920021042E0,-2.026644945E-1,-7.028090090E-2,2.111606450E-1,3.010002000E-1
2.929988042E0,-1.965576625E-1,-7.098315150E-2,3.678164694E-1,4.230395698E-1
2.939955042E0,-4.319735813E-1,1.894100261E-1,9.229479074E-2,4.806200800E-1
2.949922042E0,-5.335098964E-1,1.006033041E0,-9.445887449E-1,1.479521269E0
2.959889042E0,-3.558293849E-1,1.758759438E0,-6.790163961E-1,1.918570452E0
2.969856042E0,-1.079548037E-1,1.586004913E0,-1.064741425E-1,1.593236507E0
2.979823042E0,-2.085783684E-1,6.577357471E-1,-6.511313170E-3,6.900461187E-1
2.989790042E0,-1.383724873E0,-2.103068054E-1,2.887800939E-1,1.429096714E0
2.999757042E0,-2.573085374E0,-1.196759568E0,8.710496293E-1,2.968455703E0
3.009724042E0,-2.535732191E0,-2.047177151E0,4.885915858E-1,3.295389775E0
3.019691042E0,-1.866461642E0,-2.318893461E0,4.020612726E-1,3.003764174E0
3.029658042E0,-1.505021853E0,-2.497960055E0,4.467190897E-1,2.950331026E0
3.039625042E0,-1.963320184E0,-2.675090928E0,1.167311236E0,3.517577738E0
3.049592042E0,-2.119820911E0,-2.759893389E0,1.502023109E0,3.790346374E0
3.059559042E0,-1.617935681E0,-2.528972810E0,-1.372139785E-1,3.005369697E0
3.069526042E0,-5.963680494E-1,-1.560038306E0,-1.210331540E0,2.062589829E0
3.079493042E0,1.650494147E0,-5.046228969E-1,-1.173555770E0,2.087105254E0
3.089460042E0,3.824459690E0,5.069477499E-1,-1.096753761E0,4.010780069E0
3.099427042E0,3.712903002E0,7.516168875E-1,-1.514897216E0,4.079888506E0
3.109394042E0,2.680639644E0,4.898329496E-2,-1.278945107E0,2.970509864E0
3.119361042E0,1.634024295E0,-6.906935781E-1,-2.089560986E-1,1.786268643E0
3.129328042E0,5.545259589E-1,-1.089639162E0,3.473456597E-1,1.271008084E0
3.139295042E0,-9.876034945E-1,-1.244906126E0,1.608694741E-1,1.597194701E0
3.149262042E0,-1.413284887E0,-1.179369949E0,-6.948275596E-2,1.842041124E0
3.159230042E0,-1.047457348E0,-1.080803434E0,-5.569122076E-2,1.506122330E0
3.169197042E0,2.706910014E-2,-1.165843000E0,1.055492592E-1,1.170924115E0
3.179164042E0,1.322610945E0,-8.243813932E-1,5.384294513E-1,1.648881641E0
3.189131042E0,1.898399718E0,-4.312953043E-1,5.269025427E-1,2.016820126E0
3.199098042E0,1.941500130E0,1.756012416E-1,-3.124468455E-1,1.974305341E0
3.209065042E0,2.125212629E0,9.906709439E-1,-1.561976073E0,2.817397183E0
3.219032042E0,2.149409577E0,1.463430609E0,-2.064194887E0,3.320013736E0
3.228999042E0,1.593362757E0,1.030658298E0,-1.437160823E0,2.380439588E0
3.238966042E0,6.198837966E-1,3.464440191E-1,-5.531428000E-1,9.001368434E-1
3.248933042E0,3.232352507E-1,1.748568910E-1,2.888498220E-1,4.674293308E-1
3.258900042E0,-3.479251188E-1,-1.452150160E-1,5.465173200E-1,6.639431227E-1
3.268867042E0,-5.595855546E-1,-5.063910949E-1,8.149355087E-1,1.110715003E0
3.278834042E0,1.088955038E0,-2.798822397E-1,1.090772352E0,1.566506134E0
3.288801042E0,2.139268166E0,1.283855599E-1,1.037196362E0,2.380908950E0
3.298768042E0,1.883079136E0,7.269024611E-2,6.042457107E-1,1.978985544E0
3.308735042E0,1.659463776E0,-1.936018950E-1,1.066587684E-1,1.674120011E0
3.318702042E0,2.916373359E0,-3.728886366E-2,2.004343665E-1,2.923490715E0
3.328669042E0,2.793400274E0,-1.280610394E-1,4.413042757E-1,2.830942278E0
3.338636042E0,2.529362234E0,-5.219271469E-1,9.305881718E-1,2.745191360E0
3.348603042E0,3.632464610E0,-4.734987527E-1,1.695711543E0,4.036636948E0
3.358570042E0,5.177230573E0,-1.463645786E-1,2.429792630E0,5.720929227E0
3.368537042E0,5.178263776E0,-6.160836911E-1,2.634424421E0,5.842445283E0
3.378504042E0,3.989185696E0,-1.325286046E0,1.658069800E0,4.518758798E0
3.388471042E0,3.120551990E0,-8.363021117E-1,8.116558054E-1,3.331070562E0
3.398438042E0,2.814671860E0,-7.016337186E-1,-2.801088193E-1,2.914297257E0
3.408405042E0,2.340034069E0,-1.483190689E0,-1.721265629E0,3.261651335E0
3.418372042E0,-6.289072198E-1,-7.002157688E-1,-3.657138106E0,3.776305806E0
3.428339042E0,-4.680551704E0,1.095037896E0,-3.863475529E0,6.167099432E0
3.438306042E0,-6.542028009E0,9.443937403E-1,-4.478725115E0,7.984296379E0
3.448273042E0,-5.025569587E0,-9.672575229E-1,-5.157669883E0,7.265913253E0
3.458240042E0,-4.552145678E0,-1.963767496E0,-4.509001998E0,6.701455967E0
3.468207125E0,-4.634162818E0,-1.437540307E0,-2.222753249E0,5.336911014E0
3.478174125E0,-4.390622778E0,-1.294421518E-1,-1.193451798E-1,4.394151445E0
3.488141125E0,-3.577432371E0,5.701245761E-1,2.056903409E0,4.165803168E0
3.498108125E0,-1.895915236E0,4.323413712E-1,3.586544087E0,4.079793148E0
3.508076125E0,1.839428794E-1,1.625637048E-1,4.402461928E0,4.409300734E0
3.518043125E0,1.588463960E0,5.752590162E-1,4.338223832E0,4.655569428E0
3.528010125E0,2.056130115E0,1.344163197E0,4.131569782E0,4.806694770E0
3.537977125E0,1.877576029E0,1.601470506E0,3.071551445E0,3.940105051E0
3.547944125E0,1.298391193E0,1.848690199E0,1.910674778E0,2.958741836E0
3.557911125E0,1.122985248E0,1.854664299E0,1.076904511E0,2.420867377E0
3.567878125E0,1.004629417E0,1.756053931E0,5.324687997E-1,2.092015463E0
3.577845125E0,7.965603411E-1,1.427424039E0,2.810265398E-1,1.658621018E0
3.587812125E0,7.080691642E-1,1.075838563E0,2.513504586E-1,1.312237634E0
3.597779125E0,6.445976382E-1,6.205176347E-1,4.676838429E-1,1.009592208E0
3.607746125E0,1.250210136E0,-6.909561181E-1,-7.802056789E-2,1.430570847E0
3.617713125E0,2.399305540E-1,-1.100743024E0,-1.851817875E0,2.167586519E0
3.627680125E0,-1.384261063E0,-6.839593399E-1,-2.907467172E0,3.292012215E0
3.637647125E0,-6.012212384E-1,-4.444632339E-1,-5.052894210E0,5.107910967E0
3.647614125E0,3.252876234E-1,-7.246220469E-2,-4.611829086E0,4.623854488E0
3.657581125E0,-7.782760978E-2,-6.940510494E-1,-1.698817584E0,1.836775756E0
3.667548125E0,-2.196535796E-1,-2.570582181E-1,-6.190008670E-2,3.437415356E-1
3.677515125E0,-2.227227831E-1,-1.209145725E-2,1.059492087E0,1.082716549E0
3.687482125E0,-6.994556308E-2,1.442601657E-1,2.229026581E0,2.234784749E0
3.697449125E0,7.442382860E-1,4.724263734E-1,1.816167693E0,2.018797265E0
3.707416125E0,1.346449458E0,5.564707428E-1,7.350688286E-1,1.631843134E0
3.717383125E0,1.052995831E0,3.102836680E-1,-5.810378194E-2,1.099296240E0
3.727350125E0,2.434464848E-1,1.021327311E-1,-3.969171846E-1,4.766975321E-1
3.737317125E0,-1.613287729E-1,5.117126459E-1,-5.229736523E-1,7.492517908E-1
3.747284125E0,1.984369576E-2,1.962650678E0,-5.056486447E-1,2.026837933E0
3.757251125E0,-7.540335417E-1,2.943257979E0,-8.496847804E-1,3.154884838E0
3.767218125E0,-1.212151778E0,2.041433723E0,-2.863638783E-1,2.391394541E0
3.777185125E0,-7.865639412E-1,1.315220649E0,2.696288547E-1,1.556016680E0
3.787152125E0,-5.015162712E-1,8.616304958E-1,-9.196530014E-2,1.001190940E0
3.797119125E0,-4.051886559E-1,1.991421318E-1,-3.961526611E-1,6.006432938E-1
3.807086125E0,-4.253972179E-1,4.110651076E-1,-4.519324672E-1,7.444328516E-1
3.817053125E0,-3.600364566E-1,8.801878041E-1,-2.540033403E-1,9.843142371E-1
3.827020125E0,1.855631429E-1,1.467357599E0,-3.769159064E-2,1.479524470E0
3.836987125E0,1.129846371E0,1.951038108E0,2.807096207E-1,2.271981604E0
3.846954125E0,1.805602067E0,1.892860651E0,8.646793802E-1,2.755138962E0
3.856922125E0,1.734991091E0,1.522471114E0,1.007854156E0,2.518706490E0
3.866889125E0,1.063850017E0,1.238357245E0,5.586776282E-1,1.725522013E0
3.876856125E0,2.098565698E-2,2.710599607E-1,-6.252299058E-1,6.817817358E-1
3.886823125E0,-5.787439567E-1,-1.361024812E0,-2.863898107E0,3.223235249E0
3.896790125E0,-3.467697090E-1,-1.949506722E0,-3.349975097E0,3.891421185E0
3.906757125E0,3.034330702E-1,-1.485272883E0,-9.471940450E-1,1.787535656E0
3.916724125E0,4.776245481E-1,-2.793115515E-1,1.327907352E0,1.438568069E0
3.926691125E0,9.261346400E-2,5.164950836E-1,1.481122090E0,1.571326532E0
3.936658125E0,-1.469315831E0,1.100678120E0,3.802279886E-1,1.874821234E0
3.946625125E0,-7.067073476E-1,3.700848967E-1,9.095098364E-1,1.209795953E0
3.956592125E0,5.496511352E-1,6.159287399E-1,1.557821041E0,1.763034594E0
3.966559125E0,7.127963457E-1,9.176333731E-1,1.921964582E0,2.245902378E0
3.976526125E0,1.317515096E-1,6.401291960E-1,9.431722569E-1,1.147474511E0
3.986493125E0,-4.376149750E-1,1.368084741E-1,6.227916900E-1,7.733646708E-1
3.996460125E0,-1.300858425E0,-5.506907701E-1,4.379178607E-1,1.478940506E0
4.006427125E0,-1.935740915E0,-1.639333566E0,1.920015121E-1,2.543889151E0
4.016394125E0,-2.134277567E0,-2.529546422E0,-7.127171159E-2,3.310411680E0
4.026361125E0,-1.703283102E0,-2.348217832E0,-3.185959236E-1,2.918356331E0
4.036328125E0,-8.202067736E-1,-2.112511307E0,-6.684782517E-1,2.362690489E0
4.046295125E0,-8.142665872E-1,-2.553141691E0,-1.280825718E0,2.970198157E0
4.056262125E0,-5.410747316E-1,-1.455801746E0,-5.570898168E-1,1.649990804E0
4.066229125E0,3.740588106E-1,3.784885150E-1,2.275617926E-1,5.787554918E-1
4.076196125E0,4.212073955E-1,7.067207962E-1,-2.202283609E-1,8.516868467E-1
4.086163125E0,1.103660712E0,8.172115374E-1,-9.881794453E-2,1.376832107E0
4.096130125E0,1.246876346E0,5.625875151E-1,6.117171367E-1,1.498466946E0
4.106097125E0,1.385999440E0,3.068665552E-1,9.791605537E-1,1.724504833E0
4.116064125E0,1.427932601E0,3.346291351E-1,8.440736461E-1,1.692166803E0
4.126031125E0,1.273655424E0,-1.163882428E-1,2.178157997E-1,1.297377387E0
4.135998125E0,1.448558069E0,-5.310680991E-1,-1.821359436E-1,1.553553124E0
4.145965125E0,1.547089939E0,-5.981473571E-1,-1.903395872E-1,1.669579797E0
4.155932125E0,6.520581738E-1,-6.438462710E-1,-7.256663597E-1,1.168892445E0
4.165899125E0,-4.867607129E-1,-4.066340876E-1,-1.430997127E0,1.565260377E0
4.175866125E0,-1.221139826E0,7.162839174E-2,-1.666864450E0,2.067546903E0
4.185833125E0,-1.807054369E0,-5.335531658E-1,-1.714331124E0,2.547362494E0
4.195801125E0,-2.074476631E0,-1.083069230E0,-1.319682805E0,2.686643809E0
4.205768125E0,-1.633392795E0,-4.064534086E-1,-1.254650219E-1,1.687873772E0
4.215735125E0,-8.780731586E-1,1.653329462E-1,1.775607605E0,1.987744909E0
4.225702125E0,1.705720514E-2,1.921079314E-1,3.018075442E0,3.024231436E0
4.235669125E0,8.807689442E-1,-1.592179281E-1,2.872938194E0,3.009132458E0
4.245636125E0,1.900897357E0,-2.726094729E-1,1.918587230E0,2.714535622E0
4.255603125E0,2.673335302E0,-3.054427582E-1,1.257876566E0,2.970230693E0
4.265570125E0,2.738143209E0,-8.955338216E-1,-9.236378789E-2,2.882349758E0
4.275537125E0,2.273887881E0,-1.054420797E0,-5.591458440E-1,2.568075814E0
4.285504125E0,1.484692400E0,-8.814402777E-1,-2.279455161E-1,1.741610647E0
4.295471125E0,5.392053768E-1,-8.653113180E-1,8.903999662E-1,1.353631492E0
4.305438125E0,-3.136371924E-1,-1.351989695E0,1.017726449E0,1.721049549E0
4.315405125E0,-3.373157845E-1,-1.127872351E0,1.619785447E0,2.002394285E0
4.325372125E0,5.808069275E-1,-4.148669672E-1,2.769919610E0,2.860403107E0
4.335339125E0,5.776489925E-1,-1.303644916E0,2.115091245E0,2.550838960E0
4.345306125E0,-7.671674844E-1,-1.870804369E0,-2.074906401E0,2.897186827E0
4.355273125E0,-6.752268887E-1,-9.380734849E-1,-3.717740403E0,3.893264302E0
4.365240125E0,1.427844016E-1,1.959811270E-2,-2.055786152E0,2.060831913E0
4.375207125E0,1.608442580E-1,1.936597824E-3,-4.007412636E-1,4.318196222E-1
4.385174125E0,-4.038261084E-1,-1.239574635E-1,-2.740025720E-1,5.035060954E-1
4.395141125E0,-9.343233731E-1,-5.179481167E-1,-7.107416341E-1,1.283114994E0
4.405108125E0,-9.658937330E-1,-6.631572855E-1,-2.695785686E-1,1.202248266E0
4.415075125E0,-6.087593957E-1,8.116110742E-2,-5.549460813E-2,6.166480185E-1
4.425042125E0,-3.688694067E-2,6.661457974E-1,6.857234448E-2,6.706810242E-1
4.435009125E0,4.018879757E-1,1.233578900E0,3.492729020E-1,1.343585653E0
4.444976125E0,2.439147006E-1,1.792584411E0,6.101753721E-1,1.909232106E0
4.454943125E0,1.250732584E-1,2.000555838E0,5.155501735E-1,2.069700211E0
4.464910250E0,-4.713820606E-2,1.888867587E0,3.310706659E-1,1.918241528E0
4.474877250E0,-3.322434711E-1,1.335571298E0,1.729720411E-1,1.387103364E0
4.484844250E0,-2.394643117E-1,1.029002951E0,-1.671046525E-2,1.056631189E0
4.494811250E0,-1.266974688E-2,1.019888896E0,-4.142547637E-2,1.020808480E0
4.504778250E0,6.072932795E-2,1.035627261E0,2.758716345E-3,1.037409990E0
4.514745250E0,2.838125188E-1,9.765464097E-1,4.178274125E-2,1.017810510E0
4.524713250E0,1.223063560E-1,7.777925330E-1,1.814053340E-1,8.079777004E-1
4.534679250E0,-3.596465935E-1,5.201589489E-1,2.961826690E-1,6.983087982E-1
4.544647250E0,-8.508483763E-1,4.238880515E-2,3.606833048E-1,9.251120022E-1
4.554614250E0,-9.110004379E-1,-4.027199614E-1,2.555320948E-2,9.963724864E-1
4.564581250E0,-7.950447428E-1,-7.831632006E-1,-2.419706476E-1,1.141924050E0
4.574548250E0,-4.228241506E-1,-9.293693197E-1,2.558171466E-2,1.021353033E0
4.584515250E0,6.686867049E-1,-3.399056625E-1,7.995297034E-1,1.096323636E0
4.594482250E0,2.016417580E0,1.413692438E0,1.522584697E0,2.895294514E0
4.604449250E0,1.419358975E0,2.439310436E0,-8.396133900E-1,2.944446628E0
4.614416250E0,3.048960435E0,2.435013902E0,-2.022934302E0,4.395192331E0
4.624383250E0,9.567777045E-1,1.552260339E-2,-1.583677721E0,1.850324202E0
4.634350250E0,-6.229505150E-1,-1.474953132E0,-1.560900770E0,2.236060218E0
4.644317250E0,-3.494997740E-2,-1.021624934E0,5.172783181E-1,1.145650848E0
4.654284250E0,2.246780920E-1,-5.393933648E-1,2.494880911E0,2.562392673E0
4.664251250E0,5.663558994E-1,-8.167975545E-3,3.135089045E0,3.185845106E0
4.674218250E0,1.030961476E0,6.454051387E-1,2.367974697E0,2.662091945E0
4.684185250E0,1.068183681E0,8.906028646E-1,8.894535944E-1,1.650853578E0
4.694152250E0,9.301860295E-1,6.751540178E-1,-4.300866848E-1,1.227213736E0
4.704119250E0,7.334368707E-1,3.006065261E-1,-8.489864767E-1,1.161495572E0
4.714086250E0,-7.815446913E-2,-1.572035623E-1,-9.324084100E-1,9.487921396E-1
4.724053250E0,-1.129653997E0,-5.924966079E-1,-8.120759279E-1,1.512163251E0
4.734020250E0,-1.305023689E0,-1.230253004E0,-1.613363743E-2,1.793563374E0
4.743987250E0,-8.786622655E-1,-1.218497761E0,8.661784601E-1,1.734084570E0
4.753954250E0,-5.559675899E-1,-1.040441859E0,1.588226563E0,1.978404114E0
4.763921250E0,-9.539247018E-1,-1.380184969E0,1.706101460E0,2.392836199E0
4.773888250E0,-1.300737680E0,-1.598824056E0,1.430365481E0,2.508804952E0
4.783855250E0,-1.086223218E0,-1.119601464E0,1.168171946E0,1.948849408E0
4.793822250E0,-7.163394660E-1,-3.161677212E-1,5.943188927E-1,9.830153634E-1
4.803789250E0,-7.011030838E-1,1.077103901E-1,-7.465058362E-1,1.029766005E0
4.813756250E0,-9.744159767E-1,7.274345577E-2,-1.278561238E0,1.609191395E0
4.823723250E0,-8.711711052E-1,-2.041204512E-2,-1.705855877E0,1.915541704E0
4.833690250E0,-5.332166585E-1,-1.277406120E-1,-1.819335423E0,1.900162901E0
4.843657250E0,-1.852345294E-1,-1.883709759E-1,-1.524925776E0,1.547641456E0
4.853625250E0,4.090361238E-2,-3.480198437E-1,-1.075837686E0,1.131467032E0
4.863592250E0,9.054559618E-2,-5.373632115E-1,-7.740617171E-1,9.466410449E-1
4.873559250E0,-1.545044875E-1,-5.343536496E-1,-5.254603270E-1,7.651888752E-1
4.883526250E0,-5.039492977E-1,-2.766469753E-1,5.772371292E-2,5.777806423E-1
4.893493250E0,-4.872788858E-1,1.318880421E-1,6.488567501E-2,5.089649487E-1
4.903460250E0,-7.582756966E-1,1.122033906E-1,6.643840313E-2,7.694060660E-1
4.913427250E0,-1.144794193E0,-1.471978068E-2,1.510721719E-1,1.154813066E0
4.923394250E0,-1.270939246E0,-1.285182917E-1,1.251210594E-1,1.283533715E0
4.933361250E0,-1.243211749E0,-2.309720349E-1,2.418759227E-2,1.264716796E0
4.943328250E0,-1.430563409E0,1.440905964E-1,5.722918466E-2,1.438940217E0
4.953295250E0,-1.141132520E0,4.627913314E-1,-1.526633455E-1,1.240832520E0
4.963262250E0,-8.322720645E-1,1.038025789E0,-1.052694699E-1,1.334637026E0
4.973229250E0,-8.711690587E-1,1.383617869E0,2.526583345E-1,1.654439534E0
4.983196250E0,-5.529489648E-1,1.209925743E0,8.966442078E-2,1.333308880E0
4.993163250E0,-1.296731168E-1,9.692911845E-1,1.097955072E-1,9.840709177E-1
5.003130250E0,-1.176445171E-2,3.807829624E-1,7.441649035E-2,3.881647599E-1
5.013097250E0,3.133828385E-1,-1.489151341E-1,4.843074770E-1,5.957669452E-1
5.023064250E0,9.769687249E-1,7.169271111E-3,4.395176589E-1,1.071305307E0
5.033031250E0,1.216332391E0,1.863577795E-1,2.836931625E-1,1.262804624E0
5.042998250E0,1.197474975E0,5.346974659E-1,5.563850811E-1,1.424574341E0
5.052965250E0,1.790263359E0,7.201167673E-1,4.133662793E-1,1.973444383E0
5.062932250E0,1.899618863E0,1.048965345E0,2.333962905E-1,2.182510927E0
5.072899250E0,1.326276564E0,9.576441157E-1,3.330878091E-1,1.669442801E0
5.082866250E0,6.734225111E-1,3.070589286E-1,-5.927790284E-2,7.424937265E-1
5.092833250E0,-3.698529084E-1,-2.123018754E-1,9.504649043E-2,4.369177216E-1
5.102800250E0,-2.860237165E-1,-4.415712011E-1,-3.510456316E-1,6.324774522E-1
5.112767250E0,-7.751434520E-2,-5.158361024E-1,-1.013592614E0,1.139940939E0
5.122734250E0,-1.023716775E0,-9.191887325E-1,-1.767855220E0,2.240137505E0
5.132701250E0,-1.257968660E0,-5.776780093E-1,-1.950893097E0,2.392108047E0
5.142668250E0,-7.607958466E-1,1.093821090E-1,-1.557032837E0,1.736411823E0
5.152635250E0,-1.900995736E0,-2.951282698E-1,-5.328475530E-1,1.996199388E0
5.162602250E0,-2.867619275E0,-1.922205487E0,2.825887696E-1,3.463808692E0
5.172569250E0,-2.369878843E0,-3.000418020E0,7.993750446E-1,3.906127813E0
5.182537250E0,-1.793234037E0,-2.829530804E0,9.683995572E-1,3.487080524E0
5.192504250E0,-1.135570210E0,-2.174858413E0,5.109776509E-1,2.506117910E0
5.202471250E0,-6.611151454E-1,-1.346868119E0,8.698208369E-2,1.502894822E0
5.212438250E0,-3.337839201E-1,-6.207474303E-1,-2.501709290E-1,7.478800514E-1
5.222405250E0,-2.849649319E-1,-2.827310032E-1,-5.425116118E-1,6.748782716E-1
5.232372250E0,2.974311957E-1,5.161658853E-1,-6.137506521E-1,8.553259030E-1
5.242339250E0,1.928550886E0,2.311228931E0,-7.021571906E-1,3.090972729E0
5.252306250E0,5.302673814E0,6.111882268E0,-8.211992653E-1,8.133131172E0
5.262273250E0,3.696773750E0,4.344838495E0,1.074646974E0,5.805051578E0
5.272240250E0,2.017628246E0,9.633147454E-1,1.307819828E0,2.590210752E0
5.282207250E0,1.952175684E0,3.952951670E-2,1.391453869E0,2.397643917E0
5.292174250E0,1.550700887E0,-2.381448144E-1,1.004230198E0,1.862757226E0
5.302141250E0,1.195631640E0,-4.216368735E-2,5.594499723E-1,1.320718390E0
5.312108250E0,7.335291106E-1,-1.143615979E-1,2.545422343E-1,7.848154434E-1
5.322075250E0,7.259408864E-1,2.578183562E-1,-5.869318128E-2,7.725965085E-1
5.332042250E0,8.955651042E-1,8.216495740E-1,-2.780292571E-1,1.246773895E0
5.342009250E0,7.137842327E-2,4.722252291E-1,-5.845929265E-2,4.811538582E-1
5.351976250E0,-3.875496528E-1,3.677354854E-1,1.849860227E-1,5.653706299E-1
5.361943250E0,-3.136162886E-1,8.468060499E-1,2.589101044E-1,9.393987997E-1
5.371910250E0,-1.201895177E-1,1.043813363E0,9.057407943E-1,1.387212400E0
5.381877250E0,1.577160707E-1,1.203444690E0,1.307097112E0,1.783719804E0
5.391844250E0,1.802660041E-1,1.356520702E0,1.201608810E0,1.821128216E0
5.401811250E0,3.040632538E-1,1.565100240E0,5.835043942E-1,1.697784027E0
5.411778250E0,8.726393411E-1,2.076621682E0,-7.833923384E-1,2.384860706E0
5.421745250E0,1.179556621E0,2.587518057E0,-1.877455430E0,3.407556663E0
5.431712250E0,1.082085729E0,2.994407083E0,-1.888593353E0,3.701914120E0
5.441679250E0,8.470259053E-1,3.211245813E0,-1.422907065E0,3.613062008E0
5.451646250E0,9.530666229E-1,3.438566846E0,-1.077677951E0,3.727394225E0
5.461612500E0,1.115655032E0,3.612830830E0,-6.653239712E-1,3.839256274E0
5.471579500E0,1.274790076E0,3.705329103E0,-5.007555485E-3,3.918491876E0
5.481546500E0,1.489307023E0,3.573367386E0,5.307484026E-1,3.907516315E0
5.491513500E0,1.567667753E0,2.837196504E0,5.287392993E-1,3.284331200E0
5.501481500E0,1.675319670E0,1.542639331E0,-2.359351516E-2,2.277496159E0
5.511448500E0,1.708675404E0,8.203818977E-2,-3.137531134E-1,1.739178806E0
5.521415500E0,1.171153149E0,-1.447092903E0,-1.501404181E-1,1.867677626E0
5.531382500E0,-8.603739291E-3,-2.600711714E0,-1.877356759E-1,2.607493073E0
5.541349500E0,-6.672870277E-1,-3.491712189E0,-6.011846933E-1,3.605377792E0
5.551316500E0,-1.342096206E0,-5.445451126E0,-7.715784046E-1,5.661227202E0
5.561283500E0,-5.445050007E-1,-9.064793415E0,-1.089990872E0,9.146313217E0
5.571250500E0,-1.211907657E0,-1.284872781E1,-1.252032567E0,1.296634536E1
5.581217500E0,-2.043894670E0,-1.614817828E1,-1.178415975E0,1.631961493E1
5.591184500E0,-1.938193675E0,-1.801898792E1,-9.889091778E-1,1.814988875E1
5.601151500E0,-8.629931894E-1,-1.739553673E1,-8.547470073E-1,1.743789115E1
5.611118500E0,2.387739748E-1,-1.479954840E1,-8.902282043E-1,1.482822147E1
5.621085500E0,-1.660435291E-1,-1.188096450E1,-1.132677008E0,1.193598949E1
5.631052500E0,-5.046734753E-1,-9.656508835E0,-9.663680153E-1,9.717856005E0
5.641019500E0,-8.911941643E-1,-7.590308645E0,6.440006375E-2,7.642719394E0
5.650986500E0,-1.065777406E0,-6.281387787E0,1.586519176E0,6.565725939E0
5.660953500E0,-1.386787060E0,-4.932391866E0,2.462825306E-1,5.129553875E0
5.670920500E0,-2.440888161E0,-2.450271626E0,-5.162820987E-1,3.496900522E0
5.680887500E0,-3.926300645E0,-1.172507071E0,6.695343319E-1,4.151973725E0
5.690854500E0,-4.605601509E0,3.267131746E-2,7.945489720E-1,4.673750179E0
5.700821500E0,-4.371818132E0,1.809980462E0,3.906337667E-1,4.747780302E0
5.710788500E0,-3.860395508E0,3.506126745E0,4.423008605E-1,5.233661079E0
5.720755500E0,-3.194062892E0,5.003429689E0,4.794658363E-1,5.955353382E0
5.730722500E0,-2.700370781E0,6.271157498E0,7.295524923E-1,6.866707039E0
5.740689500E0,-2.089164983E0,6.927038509E0,1.306579049E0,7.352252827E0
5.750656500E0,-1.103464903E0,7.201945353E0,1.924578288E0,7.535891005E0
5.760623500E0,-1.174647152E-2,7.648883713E0,2.382984792E0,8.011502765E0
5.770590500E0,1.209450657E0,8.441080277E0,2.602200415E0,8.915495170E0
5.780557500E0,2.331942400E0,9.457301214E0,2.522602268E0,1.006190955E1
5.790524500E0,3.207605921E0,1.049826406E1,2.183260278E0,1.119235942E1
5.800491500E0,3.946409805E0,1.145005044E1,1.471518477E0,1.220013000E1
5.810458500E0,4.496220569E0,1.224274460E1,5.209483961E-1,1.305266953E1
5.820426500E0,4.955459717E0,1.272605088E1,-1.255116534E-1,1.365740478E1
5.830393500E0,5.255463980E0,1.296711872E1,-1.147725841E-1,1.399211358E1
5.840360500E0,5.285138015E0,1.304892478E1,6.243774549E-1,1.409244368E1
5.850327500E0,5.325851008E0,1.280299790E1,1.180983341E0,1.391675846E1
5.860294500E0,4.906177629E0,1.215322256E1,7.225766909E-1,1.312606241E1
5.870261500E0,3.845700578E0,1.104796080E1,-1.215191015E-1,1.169878702E1
5.880228500E0,2.926980208E0,9.873537015E0,-6.806907463E-1,1.032072121E1
5.890195500E0,2.366129901E0,9.091295335E0,-1.150440703E0,9.464340198E0
5.900162500E0,2.091737904E0,8.522584616E0,-1.385336366E0,8.884197929E0
5.910129500E0,2.033815093E0,7.980218527E0,-1.352405870E0,8.345615208E0
5.920096500E0,2.065395613E0,7.216012584E0,-1.248666032E0,7.608933139E0
5.930063500E0,2.072588565E0,5.911180099E0,-1.038481580E0,6.349497422E0
5.940030500E0,1.904896560E0,3.918520340E0,-7.025710273E-1,4.413279802E0
5.949997500E0,1.738154727E0,1.023347524E0,-6.940248831E-1,2.133094594E0
5.959964500E0,8.961597660E-1,-1.834068652E0,8.772158106E-1,2.221805060E0
5.969931500E0,-1.176497796E0,-5.111112013E0,3.387467152E0,6.243600466E0
5.979898500E0,-4.688431119E0,-1.133195539E1,1.232278187E0,1.232530360E1
5.989865500E0,-8.564793912E0,-1.961150867E1,-2.564517449E0,2.155327625E1
5.999832500E0,-9.479025375E0,-2.586011112E1,-5.332445498E0,2.805409496E1
6.009799500E0,-4.226703981E0,-2.701999756E1,-7.928417459E0,2.847463956E1
6.019766500E0,4.928690579E0,-2.321285908E1,-9.257976065E0,2.547231710E1
6.029733500E0,7.272341736E0,-2.065739663E1,-6.221073757E0,2.276657086E1
6.039700500E0,3.651492912E0,-1.971359053E1,-1.734922532E0,2.012384179E1
6.049667500E0,2.736394599E0,-1.856955472E1,1.073124432E0,1.880073972E1
6.059634500E0,1.713408433E0,-1.668961993E1,1.045763994E0,1.680990197E1
6.069601500E0,1.091860811E-1,-1.343105669E1,-7.185307100E-2,1.343169268E1
6.079568500E0,-2.706665016E0,-9.920811753E0,4.117142947E-1,1.029164953E1
6.089535500E0,-5.699810854E0,-7.316370685E0,1.126999435E0,9.342764660E0
6.099502500E0,-6.491150801E0,-5.175896239E0,4.376325166E-1,8.313631145E0
6.109469500E0,-5.502590702E0,-2.716132243E0,-9.411282165E-1,6.208188231E0
6.119436500E0,-4.145550182E0,-1.162196676E0,-1.397988717E0,4.526661008E0
6.129403500E0,-2.555790772E0,-4.465501052E-1,-7.660824604E-1,2.705245978E0
6.139371500E0,-1.201558085E0,9.120486975E-2,2.116190667E-1,1.223455267E0
6.149338500E0,-3.710058331E-3,1.267735995E0,1.349992432E0,1.851930853E0
6.159305500E0,9.504847848E-1,2.550319240E0,1.787354661E0,3.256099851E0
6.169272500E0,1.196182448E0,3.712692502E0,1.862787251E0,4.322605049E0
6.179239500E0,1.296930266E0,5.165940185E0,2.050444282E0,5.707301276E0
6.189206500E0,1.708495895E0,6.842698270E0,2.223428310E0,7.394938221E0
6.199173500E0,2.173608571E0,8.556711890E0,2.306375742E0,9.124760909E0
6.209140500E0,2.622238531E0,1.017273787E1,2.026253182E0,1.069889867E1
6.219107500E0,3.048207899E0,1.158450248E1,1.538887757E0,1.207726975E1
6.229074500E0,3.275907832E0,1.255436260E1,1.086559945E0,1.302014612E1
6.239041500E0,3.258393959E0,1.326917068E1,7.543936571E-1,1.368419276E1
6.249008500E0,3.034526876E0,1.376892402E1,6.732134000E-1,1.411541137E1
6.258975500E0,2.925494723E0,1.402727856E1,6.282085506E-1,1.434286266E1
6.268942500E0,3.068753845E0,1.407953396E1,4.909532031E-1,1.441844519E1
6.278909500E0,3.286627532E0,1.410977108E1,2.595999297E-1,1.448982238E1
6.288876500E0,3.685553528E0,1.404528799E1,-1.270553914E-1,1.452134851E1
6.298843500E0,4.042330454E0,1.358178856E1,-3.502400315E-1,1.417491037E1
6.308810500E0,3.430654394E0,1.255345394E1,-4.389855623E-2,1.301385886E1
6.318777500E0,2.376622437E0,1.153726049E1,3.835329811E-1,1.178574611E1
6.328744500E0,1.893497413E0,1.079552715E1,7.301511741E-1,1.098461923E1
6.338711500E0,1.824892909E0,1.023900320E1,1.135288374E0,1.046213651E1
6.348678500E0,1.835328142E0,9.781859105E0,1.600007533E0,1.008033834E1
6.358645500E0,1.797283233E0,9.249615716E0,1.855534365E0,9.603573590E0
6.368612500E0,1.622957854E0,8.539838580E0,1.779053954E0,8.872872598E0
6.378579500E0,1.317071439E0,7.672012374E0,1.493878376E0,7.926293185E0
6.388546500E0,6.978049618E-1,5.941090946E0,3.635368922E-1,5.992966916E0
6.398513500E0,-7.860166419E-1,2.436190361E0,-1.510746131E0,2.972406350E0
6.408480500E0,-2.981498185E0,-1.707654188E0,-7.810370068E-1,3.523554038E0
6.418447500E0,-5.849973784E0,-6.771579756E0,5.943074906E-1,8.968259979E0
6.428414500E0,-7.940247545E0,-1.321325259E1,-2.261299556E0,1.558047017E1
6.438381500E0,-7.220780988E0,-1.844303033E1,-8.073569325E0,2.138849148E1
6.448348500E0,-4.011816174E0,-1.909173915E1,-8.623840849E0,2.132978677E1
6.458316500E0,-2.992628945E0,-1.793303385E1,-1.618123376E0,1.825288619E1
6.468284042E0,-3.903167306E0,-1.966796354E1,4.872419022E0,2.063501810E1
6.478251042E0,-3.118358407E0,-2.550892735E1,2.240867923E0,2.579633739E1
6.488218042E0,-8.098377599E-1,-3.118227955E1,-5.139600817E0,3.161338153E1
6.498185042E0,3.094277526E0,-2.882692286E1,-9.600393691E0,3.054068751E1
6.508152042E0,2.449784115E0,-1.864034346E1,-6.263966593E0,1.981668801E1
6.518119042E0,7.528367628E-1,-1.255129983E1,-1.475563581E0,1.266014133E1
6.528086042E0,1.042977065E0,-9.815375930E0,-6.751649813E-1,9.893697669E0
6.538053042E0,1.096168601E0,-8.147779847E0,-1.246667308E0,8.315171761E0
6.548020042E0,9.843711537E-1,-7.155205050E0,-1.724890026E0,7.425711513E0
6.557987042E0,3.809387907E-1,-6.278368285E0,-1.503793938E0,6.467180134E0
6.567954042E0,-2.323709813E-1,-5.112158080E0,-1.000936754E0,5.214406092E0
6.577921042E0,-5.605892292E-1,-3.709097634E0,-7.203174730E-1,3.819754286E0
6.587888042E0,-3.577876174E-1,-1.946847408E0,-5.284022073E-1,2.048764433E0
6.597855042E0,1.281776914E-1,1.147282183E-2,-3.364696193E-1,3.602401296E-1
6.607822042E0,2.021739131E-1,1.843697262E0,-1.927454241E-1,1.864737162E0
6.617789042E0,8.390432864E-2,3.574454969E0,4.905097649E-2,3.575776036E0
6.627756042E0,2.235370079E-1,5.263337840E0,5.133282316E-1,5.293033146E0
6.637723042E0,4.973735189E-1,6.879885977E0,1.067165827E0,6.979903608E0
6.647690042E0,8.746510756E-1,8.233980669E0,1.633371745E0,8.439867027E0
6.657657042E0,1.552940955E0,9.449525587E0,2.099536189E0,9.803734576E0
6.667624042E0,2.282854148E0,1.066294036E1,2.389436610E0,1.116329376E1
6.677591042E0,3.008077288E0,1.181478104E1,2.257065003E0,1.239886778E1
6.687558042E0,3.640194629E0,1.281882398E1,1.803653190E0,1.344717182E1
6.697525042E0,4.134492221E0,1.355320620E1,1.232726376E0,1.422332726E1
6.707492042E0,4.607223234E0,1.399414122E1,5.692066363E-1,1.474403237E1
6.717459042E0,4.886655238E0,1.409930456E1,2.700163789E-1,1.492456691E1
6.727426042E0,4.814434231E0,1.411489090E1,2.186438385E-1,1.491498331E1
6.737393042E0,4.490187997E0,1.400828447E1,6.078297615E-2,1.471045603E1
6.747360042E0,3.991380740E0,1.368480948E1,-2.903610349E-2,1.425503328E1
6.757327042E0,3.618728039E0,1.318576483E1,2.645989336E-2,1.367334220E1
6.767294042E0,3.399598370E0,1.227309515E1,3.533249494E-1,1.274013235E1
6.777262042E0,2.917347505E0,1.096313875E1,6.216046321E-1,1.136167770E1
6.787229042E0,2.485911575E0,9.976100686E0,6.110632718E-1,1.029930772E1
6.797196042E0,2.421340480E0,9.197775471E0,5.551428401E-1,9.527336822E0
6.807163042E0,2.310332260E0,8.597479847E0,7.414631244E-1,8.933311952E0
6.817130042E0,2.089844868E0,7.984606862E0,8.966449387E-1,8.302130477E0
6.827097042E0,1.781817348E0,7.035269886E0,8.824476068E-1,7.310855573E0
6.837064042E0,1.304740684E0,5.552489086E0,5.733196409E-1,5.732467071E0
6.847031042E0,6.517672017E-1,3.042403952E0,-3.425858800E-1,3.130237592E0
6.856998042E0,-5.292922997E-1,-1.040256502E0,-1.430109665E0,1.845940840E0
6.866965042E0,-3.120796111E0,-6.590076919E0,-1.672603200E0,7.481048298E0
6.876932042E0,-7.168261882E0,-1.435602189E1,-2.045068206E0,1.617595892E1
6.886899042E0,-9.130638911E0,-2.225638792E1,-4.954335297E0,2.456136821E1
6.896866042E0,-8.591677070E0,-2.842072380E1,-8.193972266E0,3.080090320E1
6.906833042E0,-7.223850192E0,-3.022265323E1,-5.468030734E0,3.155142057E1
6.916800042E0,-5.407253605E0,-2.985871083E1,-4.832717890E0,3.072679883E1
6.926767042E0,-4.169513826E0,-2.553839732E1,-3.929342952E0,2.617316028E1
6.936734042E0,-2.745803061E0,-1.951017292E1,-1.105035027E0,1.973340782E1
6.946701042E0,-1.250386575E0,-1.575717497E1,9.500892207E-2,1.580699391E1
6.956668042E0,-4.288888827E-1,-1.251481671E1,-1.347752802E0,1.259448374E1
6.966635042E0,-6.636519599E-1,-1.013086011E1,-2.314323277E0,1.041301363E1
6.976602042E0,-1.488464585E0,-8.001387202E0,-8.488809344E-1,8.182806536E0
6.986569042E0,-1.991174273E0,-6.289103773E0,1.087383160E0,6.685806113E0
6.996536042E0,-2.197905799E0,-4.490490298E0,2.419879407E0,5.554377495E0
7.006503042E0,-2.045640502E0,-3.445363650E0,2.027078809E0,4.490459246E0
7.016470042E0,-8.678659666E-1,-1.910463694E0,1.077990485E0,2.359052002E0
7.026437042E0,6.888072664E-1,-7.224644244E-2,3.094394763E-1,7.585695671E-1
7.036404042E0,1.914320517E0,1.289374201E0,-4.159639049E-1,2.345236628E0
7.046371042E0,2.526925407E0,2.422051209E0,-4.699980247E-1,3.531654317E0
7.056338042E0,2.816771010E0,4.351103786E0,8.299246267E-1,5.249293092E0
7.066305042E0,2.794402487E0,6.114096023E0,1.875727286E0,6.979198256E0
7.076272042E0,2.866364170E0,7.602445126E0,2.018952494E0,8.371940314E0
7.086239042E0,3.155465714E0,9.160252719E0,1.916081114E0,9.876161227E0
7.096206042E0,3.572534158E0,1.074978321E1,1.741683229E0,1.146099035E1
7.106174042E0,4.074560599E0,1.209582395E1,1.456057270E0,1.284644324E1
7.116141042E0,4.648273904E0,1.327342511E1,1.065575457E0,1.410410279E1
7.126108042E0,5.191377912E0,1.406953990E1,5.471227992E-1,1.500672186E1
7.136075042E0,5.567506490E0,1.426374347E1,3.634207519E-1,1.531612160E1
7.146042042E0,5.676796213E0,1.402947010E1,6.406957182E-1,1.514802091E1
7.156009042E0,5.485186465E0,1.375206766E1,6.804721335E-1,1.482125763E1
7.165976042E0,5.074023709E0,1.351979988E1,4.502099506E-1,1.444760861E1
7.175943042E0,4.710968627E0,1.325045257E1,3.035968653E-1,1.406626780E1
7.185910042E0,4.474791401E0,1.284750223E1,2.831233513E-1,1.360743291E1
7.195877042E0,3.955961524E0,1.202667945E1,4.403924755E-1,1.266825149E1
7.205844042E0,3.384579504E0,1.108482399E1,6.231939054E-1,1.160676837E1
7.215811042E0,3.328182524E0,1.030066325E1,7.203395462E-1,1.084893319E1
7.225778042E0,3.409014141E0,9.676737278E0,1.298915688E0,1.034155712E1
7.235745042E0,3.378435835E0,9.162761759E0,2.113957908E0,9.991939240E0
7.245712042E0,3.196285127E0,8.581607580E0,2.511832867E0,9.495763878E0
7.255679042E0,2.819133578E0,7.855692129E0,2.523186113E0,8.719282145E0
7.265646042E0,2.174259074E0,6.902749175E0,2.221461307E0,7.570352636E0
7.275613042E0,1.025411299E0,4.744008027E0,2.279231505E-1,4.858912373E0
7.285580042E0,-8.320140561E-1,-5.567917550E-1,-5.334579731E0,5.427707192E0
7.295547042E0,-2.477148938E0,-6.987995147E0,-7.585948377E0,1.060730672E1
7.305514042E0,-3.193031151E0,-1.134140683E1,-3.457408329E0,1.227911353E1
7.315481042E0,-3.856887764E0,-1.489568364E1,-1.850102156E0,1.549773701E1
7.325448042E0,-4.852377398E0,-1.761183460E1,-1.187308713E0,1.830661045E1
7.335415042E0,-7.417150370E0,-2.236268562E1,2.785613537E-3,2.356064166E1
7.345382042E0,-9.964032032E0,-3.119080245E1,-2.037499862E0,3.280700379E1
7.355349042E0,-9.320352407E0,-3.872296814E1,-7.643265123E0,4.055560051E1
7.365316042E0,-5.135579102E0,-3.365955771E1,-9.428018943E0,3.533026379E1
7.375283042E0,-1.862670307E0,-2.098150779E1,-4.186288319E0,2.147599171E1
7.385250042E0,-1.446179276E0,-1.433017603E1,5.053865433E-1,1.441182830E1
7.395217042E0,-1.833272992E0,-1.075952233E1,-2.932871278E-1,1.091852683E1
7.405184042E0,-1.180694928E0,-7.768637613E0,-1.160543961E0,7.943087130E0
7.415151042E0,-1.939927813E0,-6.059581262E0,-6.923908786E-1,6.400097665E0
7.425119042E0,-2.725853239E0,-5.441415963E0,-5.714201729E-1,6.112757526E0
7.435086042E0,-2.347486638E0,-5.027706159E0,-1.140404688E0,5.664719375E0
7.445053042E0,-9.613989052E-1,-3.256831291E0,-1.499025826E-1,3.399074682E0
7.455020042E0,1.416493839E-1,-1.325076715E0,1.090160733E0,1.721726829E0
7.464987125E0,7.395953044E-1,2.281326270E-1,1.424724380E0,1.621383751E0
7.474954125E0,1.422938640E0,1.761053885E0,1.164970011E0,2.546216858E0
7.484921125E0,2.114800200E0,3.397456827E0,9.951795857E-1,4.123769536E0
7.494888125E0,2.645969748E0,5.254374644E0,1.093831469E0,5.983817852E0
7.504855125E0,2.946203514E0,6.824933844E0,1.110455250E0,7.516179082E0
7.514822125E0,3.334268014E0,8.442633882E0,1.898300900E0,9.273562226E0
7.524789125E0,4.295616633E0,1.040190312E1,3.451607891E0,1.177138512E1
7.534756125E0,5.280289503E0,1.221554218E1,4.024243262E0,1.390307383E1
7.544723125E0,5.375200923E0,1.354373254E1,3.252713681E0,1.493002419E1
7.554690125E0,5.037564565E0,1.453720021E1,1.695313640E0,1.547841513E1
7.564657125E0,4.685267775E0,1.506688310E1,-3.022285438E-1,1.578144615E1
7.574624125E0,4.652145638E0,1.518110495E1,-1.264320052E0,1.592817980E1
7.584591125E0,4.724611643E0,1.482615557E1,-8.112660885E-1,1.558188040E1
7.594558125E0,4.389192841E0,1.415852166E1,-1.202527408E-1,1.482373806E1
7.604525125E0,3.965704155E0,1.338040343E1,3.998361877E-1,1.396144242E1
7.614492125E0,3.552741918E0,1.250424144E1,8.920408411E-1,1.302972624E1
7.624459125E0,2.961771726E0,1.141091619E1,1.287779081E0,1.185915153E1
7.634426125E0,2.462896057E0,1.053262581E1,1.611359463E0,1.093611186E1
7.644393125E0,2.101977256E0,9.974873940E0,1.872087833E0,1.036441659E1
7.654360125E0,1.784463505E0,9.546664796E0,2.073813264E0,9.930952632E0
7.664327125E0,1.420191618E0,9.178943928E0,2.294868422E0,9.567464499E0
7.674294125E0,1.097639615E0,8.739572450E0,2.354462074E0,9.117479421E0
7.684261125E0,8.559703910E-1,8.169128616E0,1.952671674E0,8.442764613E0
7.694228125E0,3.635389388E-1,7.081216137E0,7.001515956E-1,7.125025950E0
7.704195125E0,-7.668211100E-1,4.277113119E0,-2.716877178E0,5.124756858E0
7.714162125E0,-1.639203174E0,1.822302300E-1,-6.349282147E0,6.559998375E0
7.724129125E0,-1.080700231E0,-3.219118504E0,-6.091139270E0,6.973708808E0
7.734096125E0,-7.082919431E-1,-6.079719073E0,-2.644669912E0,6.667753777E0
7.744063125E0,-1.870958151E0,-1.005505447E1,4.036903068E-1,1.023560309E1
7.754031125E0,-3.642223029E0,-1.446561859E1,1.551216173E0,1.499753918E1
7.763998125E0,-4.360541485E0,-1.829872105E1,5.711662576E-1,1.881977006E1
7.773965125E0,-3.886118580E0,-2.291021188E1,-2.463673737E0,2.336770023E1
7.783932125E0,-2.708003443E0,-2.727359131E1,-5.965489622E0,2.804940520E1
7.793899125E0,-2.224731655E0,-2.933373846E1,-7.505586584E0,3.036036022E1
7.803866125E0,-2.584903767E0,-2.636702730E1,-6.545025877E0,2.728991058E1
7.813833125E0,-1.712526235E0,-1.905832933E1,-4.210527074E0,1.959288649E1
7.823800125E0,-1.208871052E0,-1.341668073E1,-2.157917275E0,1.364277457E1
7.833767125E0,-2.347983359E0,-1.081431776E1,-1.932745532E0,1.123378831E1
7.843734125E0,-2.924401586E0,-8.540229759E0,-1.579241585E0,9.164150422E0
7.853701125E0,-3.505641426E0,-7.247043173E0,-1.217226577E0,8.141916058E0
7.863668125E0,-4.010602585E0,-6.555199447E0,-9.414039128E-1,7.742209905E0
7.873635125E0,-3.585653848E0,-5.493516408E0,-7.792686626E-2,6.560618008E0
7.883602125E0,-2.884181221E0,-4.064500172E0,7.599767978E-1,5.041450951E0
7.893569125E0,-1.800233738E0,-2.684934424E0,6.969740725E-1,3.306884823E0
7.903536125E0,-2.497430590E-1,-1.331029181E0,6.761990614E-1,1.513689349E0
7.913503125E0,1.490996137E0,1.230376965E-1,6.128093965E-1,1.616707491E0
7.923470125E0,3.383350712E0,1.839133510E0,8.620564654E-1,3.946215333E0
7.933437125E0,3.982602900E0,3.143281286E0,1.750943026E0,5.367228762E0
7.943404125E0,2.661834121E0,3.882871621E0,2.001310129E0,5.115397848E0
7.953371125E0,2.835837611E0,5.227867461E0,1.658609351E0,6.174427757E0
7.963338125E0,3.447679439E0,6.709529103E0,2.134483828E0,7.839661696E0
7.973305125E0,3.794232801E0,8.172498366E0,1.508876338E0,9.135788959E0
7.983272125E0,4.227089605E0,9.487427824E0,6.265817821E-1,1.040539177E1
7.993239125E0,4.517318200E0,1.077014322E1,1.487443954E0,1.177347180E1
8.003206125E0,4.782294425E0,1.186195169E1,1.861367401E0,1.292443138E1
8.013173125E0,4.810602258E0,1.249198684E1,1.923318797E0,1.352371194E1
8.023140125E0,4.792207502E0,1.280612383E1,1.419541408E0,1.374689630E1
8.033107125E0,4.830227560E0,1.296766017E1,4.230109692E-1,1.384450241E1
8.043074125E0,4.755419160E0,1.297673271E1,-4.364327411E-1,1.382751159E1
8.053041125E0,4.554592446E0,1.290010378E1,-6.963811648E-1,1.369824575E1
8.063008125E0,4.456674095E0,1.274194713E1,-5.213845984E-1,1.350892307E1
8.072976125E0,4.611626772E0,1.256102843E1,-4.280395746E-2,1.338089566E1
8.082943125E0,4.878377335E0,1.209045153E1,2.863299644E-1,1.304068895E1
8.092910125E0,4.567124198E0,1.113034573E1,3.994947103E-1,1.203755854E1
8.102877125E0,3.885219278E0,1.010836704E1,5.399060194E-1,1.084276310E1
8.112844125E0,3.443349869E0,9.247695490E0,8.815088363E-1,9.907249266E0
8.122811125E0,3.228044863E0,8.569550622E0,1.507342029E0,9.280600815E0
8.132778125E0,3.122621027E0,7.850731351E0,2.133600021E0,8.714183489E0
8.142745125E0,2.888178962E0,6.922818573E0,2.411623431E0,7.879271685E0
8.152712125E0,2.199870755E0,5.439548947E0,2.221519925E0,6.274015848E0
8.162679125E0,3.709602249E-1,1.734301119E0,4.305622096E-1,1.825046760E0
8.172646125E0,-2.713321194E0,-4.474384727E0,-2.426354760E0,5.767965673E0
8.182613125E0,-5.361916634E0,-1.024375347E1,-3.053787897E0,1.195868955E1
8.192580125E0,-6.089620163E0,-1.430095866E1,-3.208097964E0,1.587113055E1
8.202547125E0,-5.487324207E0,-1.553744596E1,-2.391760586E0,1.665062980E1
8.212514125E0,-4.646025357E0,-1.569340056E1,-2.157951482E0,1.650833509E1
8.222481125E0,-4.883392199E0,-1.730820740E1,-3.010951195E0,1.823423675E1
8.232448125E0,-6.767224749E0,-2.157384477E1,-3.959570718E0,2.295439630E1
8.242415125E0,-7.934708478E0,-2.547581808E1,-5.229804643E0,2.719058223E1
8.252382125E0,-5.535771897E0,-2.512338534E1,-5.083772771E0,2.622353918E1
8.262349125E0,-2.295593769E0,-2.114548243E1,-3.159369900E0,2.150308806E1
8.272316125E0,-1.016261283E0,-1.660753087E1,-1.777058738E0,1.673322462E1
8.282283125E0,-1.250512437E0,-1.205312407E1,-8.440316923E-1,1.214717954E1
8.292250125E0,-1.866926495E0,-8.234992238E0,2.408468127E-1,8.447397166E0
8.302217125E0,-2.948335994E0,-6.449054357E0,-1.411541247E-1,7.092454562E0
8.312184125E0,-2.888269009E0,-5.352275745E0,-5.074166965E-1,6.102984943E0
8.322151125E0,-1.783845162E0,-4.207152354E0,-4.251311696E-1,4.589441251E0
8.332118125E0,-6.685677141E-1,-2.774389222E0,-2.830274570E-1,2.867808028E0
8.342085125E0,1.030685779E-1,-1.656978709E0,-4.533005695E-1,1.720954090E0
8.352052125E0,8.064050058E-1,-4.021779245E-1,-2.120435746E-1,9.257421854E-1
8.362019125E0,1.773135402E0,1.281980397E0,5.446111277E-2,2.188709416E0
8.371986125E0,2.546899496E0,2.921666551E0,3.153638021E-1,3.888738459E0
8.381954125E0,2.649913695E0,4.558829046E0,8.957560158E-1,5.348583336E0
8.391921125E0,2.517389183E0,5.966523410E0,1.178383377E0,6.582190918E0
8.401888125E0,2.631965082E0,7.100413715E0,1.319993731E0,7.686709216E0
8.411855125E0,3.012297224E0,8.191066784E0,1.584534631E0,8.870076641E0
8.421822125E0,3.344345106E0,9.318285416E0,1.979561849E0,1.009622466E1
8.431789125E0,3.634501780E0,1.034881741E1,2.314433205E0,1.121000563E1
8.441756125E0,4.076328797E0,1.122311532E1,2.429011735E0,1.218502655E1
8.451723125E0,4.648872951E0,1.196953111E1,2.400700832E0,1.306311828E1
8.461690125E0,5.305231386E0,1.251237491E1,1.997930439E0,1.373669291E1
8.471656500E0,5.596702223E0,1.275350356E1,1.234125176E0,1.398205971E1
8.481623500E0,5.599256871E0,1.284733266E1,6.029146651E-1,1.402744239E1
8.491590500E0,5.494720935E0,1.283931145E1,3.504096007E-1,1.397006312E1
8.501557500E0,5.124049562E0,1.278648771E1,4.093459531E-1,1.378106367E1
8.511524500E0,4.466670203E0,1.254889078E1,4.756382489E-1,1.332861711E1
8.521491500E0,3.740454790E0,1.215796348E1,4.478826126E-1,1.272822363E1
8.531458500E0,3.160477655E0,1.164923350E1,3.268733883E-1,1.207477148E1
8.541425500E0,2.980263253E0,1.106884940E1,2.491601647E-1,1.146575234E1
8.551392500E0,2.884605144E0,1.047854023E1,4.133186245E-1,1.087619348E1
8.561359500E0,2.821547601E0,9.968805699E0,6.922297879E-1,1.038351578E1
8.571326500E0,2.889075925E0,9.518589390E0,1.017524428E0,9.999282956E0
8.581293500E0,2.929142508E0,8.928556214E0,1.538882056E0,9.521929945E0
8.591260500E0,2.363442228E0,7.775359572E0,1.663134073E0,8.295064230E0
8.601227500E0,8.728814158E-1,4.986010249E0,-5.960720341E-1,5.096814892E0
8.611194500E0,-1.787214620E0,-1.072536641E0,-4.997580135E0,5.414820232E0
8.621161500E0,-5.801208590E0,-9.219209025E0,-7.242495793E0,1.308058032E1
8.631128500E0,-8.926913731E0,-1.402276685E1,-2.201679007E0,1.676827866E1
8.641095500E0,-1.033335387E1,-1.738038075E1,1.170152982E0,2.025401430E1
8.651062500E0,-7.886941988E0,-1.844194392E1,-7.722177976E-1,2.007250532E1
8.661029500E0,-2.893897831E0,-1.845251803E1,-3.610713260E0,1.902386176E1
8.670996500E0,-1.973920602E-1,-2.050199401E1,-3.751147885E0,2.084326828E1
8.680963500E0,-6.615767831E-1,-2.479076063E1,-4.039596588E0,2.512643701E1
8.690931500E0,-2.249722070E0,-2.831022312E1,-5.395545141E0,2.890747118E1
8.700898500E0,-2.623397157E0,-2.730468446E1,-5.892393579E0,2.805616346E1
8.710865500E0,-1.870605564E0,-1.879163899E1,-4.118452431E0,1.932838616E1
8.720832500E0,-3.570719475E0,-1.157131584E1,-4.347097859E-1,1.211752287E1
8.730799500E0,-5.030510484E0,-9.338687521E0,-6.388816926E-1,1.062663118E1
8.740766500E0,-4.655122163E0,-6.858909675E0,-2.978170534E0,8.808195276E0
8.750733500E0,-3.838340980E0,-4.856935303E0,-3.334209834E0,7.031332536E0
8.760700500E0,-2.579316460E0,-3.758766223E0,-2.200433258E0,5.061926850E0
8.770667500E0,-1.498572959E0,-3.198983617E0,-1.014727997E0,3.675444191E0
8.780634500E0,-5.564800984E-1,-2.720218862E0,-3.619483499E-1,2.800047743E0
8.790601500E0,3.306524438E-1,-1.900886539E0,1.629257937E-1,1.936296849E0
8.800568500E0,1.401986312E0,-5.302296084E-1,6.125205441E-1,1.619225270E0
8.810535500E0,2.565927505E0,1.411874539E0,9.470549543E-1,3.078032937E0
8.820502500E0,4.211711720E0,3.788827928E0,1.721049575E0,5.920789163E0
8.830469500E0,3.937326740E0,5.278677426E0,2.594920632E0,7.078177047E0
8.840436500E0,2.966506509E0,6.200540090E0,2.645210195E0,7.365052291E0
8.850403500E0,2.915538669E0,7.151093287E0,2.457750800E0,8.104260603E0
8.860370500E0,3.390071209E0,8.245484481E0,2.328880506E0,9.214351933E0
8.870337500E0,3.260421189E0,9.306253601E0,2.077972827E0,1.007743387E1
8.880304500E0,3.005342546E0,1.042822143E1,1.976500393E0,1.103115769E1
8.890271500E0,2.958683519E0,1.161586227E1,1.838303790E0,1.212688852E1
8.900238500E0,3.107597483E0,1.247404758E1,1.288781294E0,1.291975164E1
8.910205500E0,3.616713966E0,1.300381351E1,7.266557086E-1,1.351694545E1
8.920172500E0,4.250032032E0,1.313946306E1,3.792479222E-1,1.381492276E1
8.930139500E0,4.664783809E0,1.303398865E1,4.263894904E-1,1.385015798E1
8.940106500E0,4.875904547E0,1.282823566E1,6.845043004E-1,1.374069217E1
8.950073500E0,4.952779938E0,1.273264654E1,7.991668837E-1,1.368535658E1
8.960040500E0,4.986835876E0,1.260725885E1,9.606472456E-1,1.359170155E1
8.970007500E0,4.922035278E0,1.238212935E1,1.051973445E0,1.336600938E1
8.979974500E0,4.496974275E0,1.184219278E1,8.230961752E-1,1.269400626E1
8.989941500E0,3.637735291E0,1.099393838E1,3.549949872E-1,1.158558676E1
8.999908500E0,2.613137047E0,1.025750612E1,9.315082312E-2,1.058553703E1
9.009875500E0,1.867972562E0,9.575495077E0,3.425836873E-1,9.762007532E0
9.019842500E0,1.645592426E0,8.913007298E0,1.007933679E0,9.119517741E0
9.029810500E0,1.623283837E0,8.061262690E0,1.319938767E0,8.328339866E0
9.039777500E0,1.436217375E0,6.681336168E0,7.647970963E-1,6.876618932E0
9.049744500E0,4.855478176E-1,3.540428267E0,-1.123244426E0,3.745940073E0
9.059711500E0,-1.869894542E0,-1.766647332E0,-1.346066758E0,2.903350497E0
9.069678500E0,-5.994737980E0,-8.846423884E0,5.690612599E-2,1.068640900E1
9.079645500E0,-1.123873440E1,-2.000355864E1,-2.637250965E0,2.309559702E1
9.089612500E0,-1.449041079E1,-3.085556755E1,-5.919785446E0,3.459887156E1
9.099579500E0,-1.476298459E1,-3.505007237E1,-2.358375031E0,3.810531748E1
9.109546500E0,-1.030190403E1,-3.571418509E1,-1.264487428E0,3.719181593E1
9.119513500E0,-4.082390021E0,-3.249837085E1,-5.271839107E0,3.317532673E1
9.129480500E0,-1.333551962E0,-2.104518163E1,-4.960094805E0,2.166288465E1
9.139447500E0,-5.188681760E-1,-1.251526578E1,-1.706557689E0,1.264173409E1
9.149414500E0,5.378877068E-1,-8.768955293E0,-1.680093191E0,8.944641594E0
9.159381500E0,5.268727219E-1,-6.161198854E0,-1.641227041E0,6.397780270E0
9.169348500E0,-1.080197078E-1,-4.321548450E0,-1.015087308E0,4.440478747E0
9.179315500E0,-5.621934128E-1,-3.259938501E0,5.970021799E-2,3.308598583E0
9.189282500E0,-1.344285403E0,-2.750658882E0,1.402825388E0,3.367661889E0
9.199249500E0,-1.525388875E0,-1.774901846E0,2.189320186E0,3.204716939E0
9.209216500E0,-1.035710584E0,-8.594898301E-1,1.762645351E0,2.217732584E0
9.219183500E0,7.649298280E-2,6.412050837E-1,1.130123090E0,1.301604139E0
9.229150500E0,1.250744571E0,2.420146186E0,2.717223041E-1,2.737755021E0
9.239117500E0,2.491203013E0,3.728748372E0,-3.165670129E-1,4.495539071E0
9.249084500E0,3.113436805E0,4.542271485E0,-2.830742347E-1,5.514149981E0
9.259051500E0,3.358331353E0,5.400201278E0,4.543486098E-1,6.375499665E0
9.269018500E0,4.619099221E0,6.997771107E0,2.040120292E0,8.629424598E0
9.278985500E0,4.457021128E0,7.969582441E0,2.786501144E0,9.546929886E0
9.288952500E0,3.727038938E0,8.728739898E0,2.304584009E0,9.766925151E0
9.298919500E0,3.723577971E0,9.799863852E0,1.542413482E0,1.059629198E1
9.308886500E0,3.910675423E0,1.093905992E1,9.643602276E-1,1.165703242E1
9.318853500E0,4.046590735E0,1.182008563E1,2.111955091E-1,1.249535611E1
9.328820500E0,4.009398643E0,1.232035937E1,-4.512916124E-1,1.296418901E1
9.338787500E0,4.156767481E0,1.261629748E1,-7.055250406E-1,1.330215936E1
9.348754500E0,4.433910300E0,1.265085803E1,-5.763506913E-1,1.341774756E1
9.358722500E0,4.761813675E0,1.250723872E1,-3.989965276E-1,1.338899130E1
9.368689500E0,5.103377316E0,1.222013692E1,-2.467010450E-1,1.324526587E1
9.378656500E0,5.376304293E0,1.171816164E1,1.762687013E-2,1.289264406E1
9.388623500E0,5.228134679E0,1.089332768E1,2.549994135E-1,1.208565285E1
9.398590500E0,4.668925977E0,1.001269256E1,4.971432117E-1,1.105893455E1
9.408557500E0,4.005483347E0,9.226583533E0,9.847658408E-1,1.010660696E1
9.418524500E0,3.525408524E0,8.483922826E0,1.463051563E0,9.303008742E0
9.428491500E0,3.197964155E0,7.830642073E0,1.795586371E0,8.646968279E0
9.438458500E0,2.776909664E0,7.080881091E0,1.908856294E0,7.841800601E0
9.448425500E0,2.295447588E0,6.166237984E0,1.656265934E0,6.784894056E0
9.458392500E0,1.600215401E0,4.420430714E0,6.012494512E-1,4.739451227E0
9.468359875E0,3.269432625E-1,9.553251100E-1,-1.884547080E0,2.138002727E0
9.478326875E0,-2.486043430E0,-3.735336429E0,-2.279340263E0,5.032746985E0
9.488293875E0,-6.004529142E0,-8.637766578E0,1.242999642E-1,1.052049581E1
9.498260875E0,-9.623386112E0,-1.536449936E1,-5.475249414E-1,1.813772820E1
9.508227875E0,-1.233875237E1,-2.136089152E1,-3.669359372E0,2.493986156E1
9.518194875E0,-1.186695340E1,-2.472265460E1,-8.884225549E0,2.882644094E1
9.528161875E0,-7.536780310E0,-2.353569321E1,-1.016355306E1,2.672133461E1
9.538128875E0,-4.116557933E0,-2.148186339E1,-4.205212832E0,2.227330956E1
9.548095875E0,-2.710525932E0,-2.038657933E1,1.765683711E-1,2.056673878E1
9.558062875E0,-1.245061077E0,-1.998271448E1,-1.933358320E0,2.011459494E1
9.568029875E0,-5.383768263E-1,-1.849049569E1,-5.150894129E0,1.920208298E1
9.577996875E0,4.324162155E-1,-1.468440503E1,-4.159820312E0,1.526836075E1
9.587963875E0,-1.050317806E-1,-1.128193480E1,-1.937637459E0,1.144759902E1
9.597930875E0,-2.221682624E0,-8.846449027E0,6.750742033E-2,9.121408407E0
9.607897875E0,-3.110340412E0,-7.002705572E0,1.579078594E-1,7.664009245E0
9.617864875E0,-2.176261745E0,-5.225690542E0,-3.472589748E-1,5.671379517E0
9.627831875E0,-8.792996120E-1,-3.307160615E0,2.988957039E-1,3.435086284E0
9.637798875E0,2.550751349E-1,-1.258596797E0,1.146071810E0,1.721223348E0
9.647765875E0,1.031637706E0,-9.798763990E-2,8.532863729E-1,1.342376835E0
9.657732875E0,1.537287374E0,9.074837762E-1,1.541536546E-1,1.791798712E0
9.667699875E0,1.980889898E0,2.331431061E0,-5.016340926E-2,3.059740503E0
9.677666875E0,2.140332359E0,3.931380122E0,3.924393868E-1,4.493415287E0
9.687634875E0,2.360480905E0,5.359432737E0,1.079011336E0,5.954800990E0
9.697601875E0,3.228272320E0,7.121201152E0,2.523112146E0,8.215798373E0
9.707568875E0,4.131245262E0,8.878885286E0,3.668203962E0,1.045741420E1
9.717535875E0,4.473712297E0,1.047409518E1,4.037648588E0,1.208401331E1
9.727502875E0,4.928864826E0,1.247814999E1,4.449380279E0,1.413488311E1
9.737469875E0,3.990435830E0,1.339717325E1,2.463219116E0,1.419419873E1
9.747436875E0,2.055036685E0,1.339878474E1,-6.153902113E-1,1.356942568E1
9.757403875E0,1.726476083E0,1.355560589E1,-1.777075256E0,1.378017298E1
9.767370875E0,2.878133445E0,1.323034283E1,-1.190785468E0,1.359204155E1
9.777337875E0,3.937983090E0,1.294857720E1,-2.232057631E-1,1.353599583E1
9.787304875E0,4.373848870E0,1.264754032E1,5.192444809E-1,1.339255185E1
9.797271875E0,4.540740100E0,1.228330907E1,1.110382817E0,1.314271480E1
9.807238875E0,4.437889623E0,1.186602253E1,1.417692518E0,1.274783146E1
9.817205875E0,4.099759175E0,1.109654181E1,1.244085177E0,1.189491544E1
9.827172875E0,3.625624245E0,1.018368386E1,9.037679438E-1,1.084755109E1
9.837139875E0,3.243936718E0,9.477617365E0,7.813037860E-1,1.004782524E1
9.847106875E0,2.919898645E0,9.021351526E0,9.091333488E-1,9.525603126E0
9.857073875E0,2.657394915E0,8.719329389E0,1.362933490E0,9.216617624E0
9.867040875E0,2.543560444E0,8.507392380E0,1.967976322E0,9.094963202E0
9.877007875E0,2.530628157E0,8.038958486E0,2.113583686E0,8.688853112E0
9.886974875E0,2.106195145E0,6.976122376E0,9.925262654E-1,7.354417025E0
9.896941875E0,1.072094007E0,4.588343452E0,-1.859431973E0,5.065547202E0
9.906908875E0,-3.764320493E-2,1.049585150E0,-5.071588343E0,5.179194370E0
9.916875875E0,-9.435265982E-1,-2.965190300E0,-7.398959098E0,8.026655075E0
9.926842875E0,-2.790591564E0,-6.000092275E0,-4.208559486E0,7.842224272E0
9.936809875E0,-4.050088540E0,-9.122128873E0,-5.314860289E-1,9.994945210E0
9.946776875E0,-4.925677509E0,-1.438184436E1,-8.285624447E-1,1.522452830E1
9.956743875E0,-7.680872076E0,-2.284184155E1,-1.656390772E0,2.415552011E1
9.966710875E0,-1.100284018E1,-3.368255364E1,-2.857378753E0,3.554914240E1
9.976677875E0,-9.377121270E0,-4.052601790E1,-5.955723603E0,4.202093733E1
9.986644875E0,-2.386882254E0,-3.432972581E1,-7.416456306E0,3.520271446E1
9.996611875E0,-6.535476789E-1,-2.137302800E1,-4.874346849E0,2.193154594E1
1.000657987E1,-1.263963079E0,-1.297283028E1,-2.762462071E0,1.332378043E1
1.001654688E1,-9.499345618E-1,-8.700400783E0,-3.942695653E0,9.599176968E0
1.002651387E1,-1.560998711E0,-6.184280738E0,-2.853277516E0,6.987362722E0
1.003648087E1,-3.073542715E0,-4.945523543E0,-5.052859712E-1,5.844671235E0
1.004644787E1,-3.962914740E0,-4.430427698E0,3.069694662E-1,5.952109969E0
1.005641487E1,-3.459669740E0,-3.960668240E0,1.122745074E0,5.377430996E0
1.006638187E1,-2.509766753E0,-3.190895748E0,2.068677070E0,4.556332917E0
1.007634888E1,-1.146056022E0,-2.307393742E0,2.814943171E0,3.815942261E0
1.008631587E1,1.620772165E-1,-1.178828496E0,2.705445871E0,2.955561370E0
1.009628287E1,1.352239371E0,4.410683405E-1,1.515125696E0,2.078147846E0
1.010624987E1,2.300420353E0,2.240535509E0,1.143868871E-1,3.213256530E0
1.011621687E1,2.591636835E0,4.057070115E0,-2.141987121E-1,4.818950144E0
1.012618387E1,2.258954238E0,5.587137347E0,3.517089251E-1,6.036777051E0
1.013615088E1,2.105936113E0,6.881244285E0,1.063151275E0,7.274392102E0
1.014611788E1,2.419595671E0,8.431243506E0,1.745261725E0,8.943503159E0
1.015608487E1,2.934704087E0,1.000365510E1,2.218264049E0,1.065862556E1
1.016605187E1,3.536023267E0,1.127401416E1,2.460175055E0,1.206894018E1
1.017601887E1,4.184393528E0,1.218368655E1,2.502685483E0,1.312306373E1
1.018598587E1,4.691202992E0,1.281542441E1,2.010402550E0,1.379435416E1
1.019595287E1,4.983005365E0,1.312386035E1,1.290551977E0,1.409721879E1
1.020591988E1,4.988789431E0,1.315267076E1,8.309115636E-1,1.409152873E1
1.021588687E1,4.823712885E0,1.326455489E1,5.386069143E-1,1.412468477E1
1.022585387E1,4.966892193E0,1.363206993E1,2.456134629E-1,1.451081234E1
1.023582087E1,5.398902612E0,1.381426333E1,8.489579715E-2,1.483203384E1
1.024578787E1,5.881174527E0,1.369868726E1,4.132170291E-1,1.491351718E1
1.025575487E1,5.914045819E0,1.297362667E1,1.294356029E0,1.431664362E1
1.026572188E1,4.746918771E0,1.149207788E1,1.998139915E0,1.259339728E1
1.027568888E1,3.615410914E0,1.024534392E1,2.459745870E0,1.113950707E1
1.028565587E1,2.943397143E0,9.286702850E0,2.577183688E0,1.007711826E1
1.029562287E1,2.444477620E0,8.477119591E0,2.490540816E0,9.167323543E0
1.030558987E1,1.980938430E0,7.763149416E0,1.896233325E0,8.233243999E0
1.031555687E1,1.352438761E0,6.635458914E0,3.747645696E-1,6.782245505E0
1.032552487E1,1.992742789E-1,4.704883722E0,-1.879335895E0,5.070260790E0
1.033549188E1,-1.825704795E0,1.420054209E0,-4.420865747E0,4.989369289E0
1.034545888E1,-4.333414205E0,-3.109918243E0,-4.843896304E0,7.205095527E0
1.035542587E1,-5.477745883E0,-7.308311468E0,-1.839184673E0,9.316636557E0
1.036539287E1,-5.232237670E0,-1.208641461E1,-1.680620756E0,1.327713129E1
1.037535987E1,-5.358998873E0,-1.721337959E1,-4.618315694E0,1.861043110E1
1.038532687E1,-6.831085700E0,-2.206263926E1,-4.869698020E0,2.360376541E1
1.039529387E1,-7.785245460E0,-2.681515790E1,-4.218666983E0,2.823933235E1
1.040526088E1,-5.946655741E0,-3.038333004E1,-3.509374874E0,3.115806751E1
1.041522787E1,-3.010048092E0,-2.966217890E1,-3.665342335E0,3.003897437E1
1.042519487E1,1.943892226E-1,-2.474355723E1,-5.442672529E0,2.533582633E1
1.043516187E1,2.638434441E0,-1.799788765E1,-5.342144859E0,1.895847589E1
1.044512887E1,2.590909734E0,-1.275657686E1,-3.924830071E0,1.359585810E1
1.045509587E1,1.252891376E0,-9.594836497E0,-2.061713182E0,9.893497130E0
1.046506288E1,-2.245035526E-1,-7.369780907E0,1.862020974E-1,7.375550399E0
1.047503042E1,-1.100885696E0,-5.803159221E0,1.593592991E0,6.117854598E0
1.048499742E1,-1.579694306E0,-4.231508346E0,2.355307435E0,5.093973900E0
1.049496442E1,-2.279907736E0,-2.883448564E0,2.032513357E0,4.200400630E0
1.050493142E1,-2.827382245E0,-1.587545947E0,1.406972379E0,3.534680151E0
1.051489842E1,-2.693753487E0,-1.278961480E-2,4.727136178E-1,2.734945993E0
1.052486542E1,-2.423249596E0,1.583473946E0,-6.012270125E-1,2.956518605E0
1.053483242E1,-1.856489800E0,3.177442474E0,-1.362658671E0,3.924223963E0
1.054479942E1,-8.053279486E-1,4.742264387E0,-1.104308803E0,4.935293563E0
1.055476642E1,6.146072692E-1,6.486111671E0,5.470000076E-1,6.538088077E0
1.056473342E1,2.132547961E0,8.068029673E0,2.357250173E0,8.671648746E0
1.057470042E1,2.917684597E0,9.100434533E0,3.136039510E0,1.005810797E1
1.058466742E1,3.415121850E0,1.043168766E1,3.917142152E0,1.165449130E1
1.059463442E1,3.624223837E0,1.144581939E1,3.682894506E0,1.255808472E1
1.060460142E1,4.176732799E0,1.229430418E1,2.945234338E0,1.331425617E1
1.061456842E1,4.768482425E0,1.307676454E1,2.395085020E0,1.412361950E1
1.062453642E1,5.226293975E0,1.340235037E1,1.875943487E0,1.450711233E1
1.063450342E1,5.537433676E0,1.321714683E1,1.086552928E0,1.437138613E1
1.064447042E1,5.640446413E0,1.289815432E1,3.973240777E-1,1.408314195E1
1.065443742E1,5.558290109E0,1.259662978E1,2.490785960E-1,1.377068302E1
1.066440442E1,5.169188313E0,1.212176571E1,4.816854393E-1,1.318672562E1
1.067437142E1,4.479715049E0,1.155344441E1,9.654432050E-1,1.242907902E1
1.068433842E1,3.806525988E0,1.081488494E1,1.472599043E0,1.155940848E1
1.069430542E1,3.497031109E0,1.012878084E1,1.779823594E0,1.086228337E1
1.070427242E1,3.376955320E0,9.634448460E0,1.832676576E0,1.037232509E1
1.071423942E1,3.293999702E0,9.200369296E0,1.714188452E0,9.921475257E0
1.072420642E1,3.063893055E0,8.865444292E0,1.594839764E0,9.514570774E0
1.073417342E1,2.675024562E0,8.373644924E0,1.538062276E0,8.924086580E0
1.074414042E1,2.260018432E0,7.552723913E0,1.080910438E0,7.957366976E0
1.075410742E1,1.454735214E0,5.935636663E0,-5.449730703E-1,6.135554807E0
1.076407442E1,-6.310730284E-1,2.347497455E0,-4.597899849E0,5.200930733E0
1.077404142E1,-3.538990436E0,-2.895837645E0,-8.071849658E0,9.277127027E0
1.078400842E1,-4.720647523E0,-5.767557864E0,-5.730468975E0,9.401463260E0
1.079397542E1,-5.058635591E0,-7.503533041E0,-6.320384037E-1,9.071508954E0
1.080394242E1,-6.161047411E0,-9.777718692E0,1.880323344E0,1.170888141E1
1.081390942E1,-8.288984842E0,-1.449771981E1,1.219105872E0,1.674447277E1
1.082387642E1,-8.765777332E0,-2.337595664E1,-2.324788478E0,2.507346889E1
1.083384342E1,-7.460475900E0,-3.435986704E1,-7.092655045E0,3.586871784E1
1.084381042E1,-2.212824969E0,-3.959148783E1,-9.095836283E0,4.068312599E1
1.085377742E1,1.423792041E0,-3.430989907E1,-6.053673820E0,3.486894499E1
1.086374442E1,1.245819169E0,-2.266591754E1,-4.129148158E0,2.307261901E1
1.087371142E1,1.122287090E0,-1.380070363E1,-3.864946104E0,1.437556112E1
1.088367842E1,-1.152489129E-1,-8.164599363E0,-3.122948763E0,8.742240791E0
1.089364542E1,-2.320992904E0,-5.709133070E0,-1.863470206E0,6.438457089E0
1.090361242E1,-3.021430575E0,-4.504255813E0,-1.075458494E0,5.529373755E0
1.091357942E1,-3.004641172E0,-3.342490076E0,6.592282489E-2,4.494936518E0
1.092354642E1,-3.010442487E0,-2.468677492E0,1.112908595E0,4.049160168E0
1.093351442E1,-2.484158287E0,-1.443850622E0,1.869793385E0,3.428100687E0
1.094348142E1,-1.424406291E0,-1.770028192E-1,2.511479695E0,2.892713871E0
1.095344842E1,-6.470771500E-1,1.070509411E0,2.755916698E0,3.026512198E0
1.096341542E1,9.113879621E-2,2.603607255E0,2.195747591E0,3.407107938E0
1.097338242E1,8.349090126E-1,4.342175673E0,1.192873947E0,4.579793760E0
1.098334942E1,1.655342951E0,5.983287377E0,8.396742741E-1,6.264578279E0
1.099331642E1,2.337523567E0,7.452176362E0,1.344293882E0,7.925028391E0
1.100328342E1,3.120949893E0,9.004855946E0,2.615337939E0,9.882699600E0
1.101325042E1,3.887549393E0,1.047299122E1,3.416445075E0,1.168198110E1
1.102321742E1,4.349589357E0,1.139295588E1,3.527714081E0,1.269500445E1
1.103318442E1,4.574989873E0,1.252195967E1,3.603420321E0,1.380994730E1
1.104315142E1,4.373168254E0,1.340190248E1,2.374676922E0,1.429596730E1
1.105311842E1,3.519104348E0,1.393689932E1,4.467342925E-1,1.438126662E1
1.106308542E1,3.011497617E0,1.408832349E1,-1.075426993E0,1.444667851E1
1.107305242E1,3.281940112E0,1.385155804E1,-1.228668408E0,1.428798156E1
1.108301942E1,3.778894385E0,1.355618711E1,-5.006280792E-1,1.408193453E1
1.109298642E1,4.052222773E0,1.330389028E1,3.043662127E-1,1.391066658E1
1.110295342E1,4.164777874E0,1.288641662E1,9.603337618E-1,1.357672085E1
1.111292042E1,3.899892865E0,1.218771411E1,1.550894430E0,1.289010524E1
1.112288742E1,3.349136606E0,1.119462067E1,1.785171165E0,1.182045194E1
1.113285442E1,2.999938841E0,1.019521457E1,2.144092119E0,1.084154805E1
1.114282142E1,2.787086743E0,9.485393577E0,2.539734610E0,1.020738927E1
1.115278842E1,2.484272893E0,8.963987417E0,2.581515597E0,9.653440060E0
1.116275542E1,2.198758323E0,8.482643455E0,2.412211369E0,9.088924130E0
1.117272242E1,1.875871566E0,7.792479635E0,1.827757606E0,8.220847332E0
1.118268942E1,1.384192358E0,6.608655862E0,2.471922112E-1,6.756583810E0
1.119265642E1,8.109289965E-1,4.084350885E0,-2.145866164E0,4.684471110E0
1.120262342E1,-4.950720549E-1,-3.812945938E-1,-4.229770553E0,4.275680161E0
1.121259042E1,-2.915339571E0,-4.846035508E0,-2.630640103E0,6.237269620E0
1.122255742E1,-5.214760927E0,-8.911669455E0,-1.572898087E-1,1.032648653E1
1.123252542E1,-6.119500605E0,-1.388435390E1,-2.182375301E0,1.532926394E1
1.124249242E1,-5.409429939E0,-1.779280826E1,-6.286010596E0,1.963058550E1
1.125245942E1,-4.227863484E0,-1.827723721E1,-5.307214762E0,1.949612162E1
1.126242642E1,-3.891018254E0,-1.620362626E1,6.793303916E-1,1.667809992E1
1.127239342E1,-3.026560922E0,-1.711585622E1,1.369339261E0,1.743524291E1
1.128236042E1,-2.878305061E0,-2.197218517E1,-4.279883530E0,2.256942543E1
1.129232742E1,-3.235605313E0,-2.685768587E1,-9.182721230E0,2.856793310E1
1.130229442E1,-3.389577704E0,-2.423333387E1,-8.238985301E0,2.581907408E1
1.131226142E1,-1.849809064E0,-1.641299868E1,-3.172092564E0,1.681875413E1
1.132222842E1,-1.452956491E0,-1.146676879E1,-1.265481601E0,1.162752393E1
1.133219542E1,-2.544008633E0,-9.150419456E0,-1.175325429E0,9.569929259E0
1.134216242E1,-2.822171206E0,-6.993558188E0,-6.738436568E-1,7.571563360E0
1.135212942E1,-3.177382540E0,-5.368239228E0,-8.988676116E-2,6.238736398E0
1.136209642E1,-3.898726931E0,-4.004876699E0,2.657758319E-1,5.595511223E0
1.137206342E1,-3.651634707E0,-2.680618594E0,7.908686614E-1,4.598437269E0
1.138203042E1,-2.859905335E0,-1.376031691E0,1.125302500E0,3.367317546E0
1.139199742E1,-1.676173656E0,1.565194380E-1,1.235440507E0,2.088149829E0
1.140196442E1,-3.977755558E-1,1.620151775E0,7.602489857E-1,1.833329127E0
1.141193142E1,5.613686630E-1,3.024840671E0,1.217154948E-1,3.078897615E0
1.142189842E1,1.421622140E0,4.340957113E0,2.281335041E-2,4.567870249E0
1.143186542E1,2.277086162E0,5.710386128E0,8.015866077E-1,6.199691300E0
1.144183242E1,2.962348261E0,6.886571683E0,1.594839910E0,7.664456348E0
1.145179942E1,3.615902957E0,7.931335219E0,1.914808906E0,8.924535041E0
1.146176642E1,4.345141380E0,9.027138516E0,1.935477351E0,1.020370305E1
1.147173367E1,5.014514841E0,1.010705844E1,1.807170875E0,1.142645421E1
1.148170067E1,5.512542078E0,1.089395450E1,1.551288532E0,1.230743113E1
1.149166767E1,5.699032590E0,1.133011235E1,1.076594024E0,1.272829419E1
1.150163467E1,5.731148422E0,1.159787039E1,7.126481187E-1,1.295625436E1
1.151160167E1,5.845574924E0,1.200385192E1,4.822760081E-1,1.336023193E1
1.152156867E1,5.819376474E0,1.241817627E1,9.294741310E-2,1.371440424E1
1.153153667E1,5.662219689E0,1.263094124E1,-1.107193673E-1,1.384245886E1
1.154150367E1,5.335139310E0,1.264269415E1,2.599203571E-1,1.372475812E1
1.155147067E1,4.733037481E0,1.238954129E1,5.324872915E-1,1.327350443E1
1.156143767E1,3.905768440E0,1.163957974E1,5.815091050E-1,1.229117556E1
1.157140467E1,3.277320227E0,1.054675151E1,8.362442974E-1,1.107583405E1
1.158137167E1,2.886425382E0,9.650397910E0,1.130584728E0,1.013606695E1
1.159133867E1,2.642452940E0,9.056440083E0,1.433806275E0,9.542403521E0
1.160130567E1,2.396256510E0,8.566501883E0,1.598048716E0,9.037740839E0
1.161127267E1,2.015538159E0,8.015543895E0,1.433069526E0,8.388386393E0
1.162123967E1,1.704682049E0,7.384209496E0,1.320079246E0,7.692535342E0
1.163120667E1,1.310118661E0,6.410666801E0,9.449053717E-1,6.611044237E0
1.164117367E1,6.980774420E-1,4.485911343E0,-1.721434906E-2,4.539934914E0
1.165114067E1,-6.830173534E-1,9.360357302E-1,-7.325742602E-1,1.370890455E0
1.166110767E1,-2.673196723E0,-2.978442430E0,-1.248438137E0,4.192337988E0
1.167107467E1,-3.966708122E0,-7.620067465E0,-4.362303543E0,9.634827123E0
1.168104167E1,-2.587932624E0,-1.273310146E1,-1.019160099E1,1.651357014E1
1.169100867E1,-2.338464969E0,-1.447653768E1,-9.812504947E0,1.764437063E1
1.170097567E1,-4.455839990E0,-1.227677656E1,2.122446603E0,1.323172447E1
1.171094267E1,-7.927400628E0,-1.635766765E1,6.345061626E0,1.925296805E1
1.172090967E1,-1.057797096E1,-2.593460933E1,1.920475150E0,2.807464435E1
1.173087667E1,-4.908855069E0,-3.109960928E1,-7.282351584E0,3.231586607E1
1.174084367E1,2.534236766E0,-2.544570725E1,-1.276833795E1,2.858210677E1
1.175081067E1,1.862341401E0,-1.686117607E1,-9.038493809E0,1.922139288E1
1.176077767E1,6.007151619E-1,-1.364692186E1,-2.343240975E0,1.385965776E1
1.177074467E1,-1.054504412E0,-1.220184332E1,-6.084334865E-1,1.226242844E1
1.178071167E1,-1.380567669E0,-9.265968039E0,-3.226797652E-1,9.373806752E0
1.179067867E1,-2.206103595E0,-6.118283215E0,1.225984536E0,6.618407712E0
1.180064567E1,-3.957759250E0,-4.428098752E0,1.694518418E0,6.176027001E0
1.181061267E1,-4.595886945E0,-3.489871486E0,1.157994282E0,5.885773573E0
1.182058067E1,-3.636036674E0,-2.449108615E0,4.169813204E-1,4.403722190E0
1.183054767E1,-2.396817550E0,-1.374160582E0,-3.382602561E-1,2.783428044E0
1.184051467E1,-1.083548117E0,-2.049911016E-1,-3.731763196E-1,1.164198626E0
1.185048167E1,1.941550416E-1,7.858657837E-1,-5.009419285E-2,8.110429325E-1
1.186044867E1,1.175835014E0,1.314815437E0,-1.900812133E-1,1.774107799E0
1.187041567E1,1.827686416E0,2.087525570E0,-2.130748773E-1,2.782732747E0
1.188038267E1,2.086376592E0,3.396697859E0,8.852830678E-3,3.986301795E0
1.189034967E1,1.973458672E0,4.988016429E0,5.737381554E-1,5.394814408E0
1.190031667E1,1.748448458E0,6.543394504E0,1.318296869E0,6.900071759E0
1.191028367E1,1.765258618E0,7.959834548E0,1.811110729E0,8.351959417E0
1.192025067E1,2.218257910E0,9.316489152E0,2.275529341E0,9.843559928E0
1.193021767E1,2.483409259E0,1.042418452E1,2.296056576E0,1.095914322E1
1.194018467E1,2.605053564E0,1.130249010E1,1.960074395E0,1.176326818E1
1.195015167E1,3.142285798E0,1.226858227E1,1.633514417E0,1.276951214E1
1.196011867E1,3.912196869E0,1.297011133E1,1.145109358E0,1.359560030E1
1.197008567E1,4.652207033E0,1.316192924E1,7.323124512E-1,1.397911632E1
1.198005267E1,5.160085952E0,1.297422192E1,7.041721411E-1,1.398044276E1
1.199001967E1,5.520294317E0,1.262695695E1,9.861576243E-1,1.381615714E1
1.199998667E1,5.740879943E0,1.220891027E1,1.265105917E0,1.355048654E1
1.200995367E1,5.877174447E0,1.177001943E1,1.376525635E0,1.322759841E1
1.201992067E1,5.953557794E0,1.096499583E1,1.313747735E0,1.254599207E1
1.202988767E1,5.230867667E0,9.845172172E0,1.184671765E0,1.121128177E1
1.203985467E1,4.064444916E0,9.067856187E0,1.360762711E0,1.002982569E1
1.204982167E1,3.317632686E0,8.548957897E0,1.840302515E0,9.352971780E0
1.205978867E1,2.752557473E0,7.987593035E0,2.032395243E0,8.689582588E0
1.206975567E1,2.299799086E0,7.061147908E0,1.703320963E0,7.619067392E0
1.207972267E1,1.696543601E0,5.323499258E0,5.341995755E-1,5.612777719E0
1.208968967E1,3.057813120E-1,2.493241645E0,-1.461477346E0,2.906143861E0
1.209965767E1,-1.898793528E0,-1.177087780E0,-4.591034340E0,5.105736854E0
1.210962467E1,-5.021648444E0,-7.176996453E0,-1.238570200E1,1.517009708E1
1.211959167E1,-6.286478373E0,-1.110028403E1,-1.207436934E1,1.756492274E1
1.212955867E1,-5.484685943E0,-8.854307685E0,9.156537983E-1,1.045557107E1
1.213952567E1,-6.127019539E0,-8.980065506E0,8.147084613E0,1.358517326E1
1.214949267E1,-8.833066505E0,-1.535847205E1,4.022950150E0,1.816837515E1
1.215945967E1,-9.908099906E0,-2.426227758E1,-3.342710809E0,2.641973264E1
1.216942667E1,-5.833480543E0,-3.039551564E1,-1.012328680E1,3.256374981E1
1.217939367E1,-1.971675271E-1,-2.784061452E1,-9.932089863E0,2.955985624E1
1.218936067E1,6.121938309E-1,-2.117186741E1,-3.797489408E0,2.151844968E1
1.219932767E1,-2.653700352E-1,-1.699950949E1,-2.695779839E-1,1.700371773E1
1.220929467E1,-8.834157595E-1,-1.332714465E1,-1.007669677E0,1.339434979E1
1.221926167E1,-2.843807951E-1,-9.235255539E0,-9.549687222E-1,9.288852597E0
1.222922867E1,-1.020674177E0,-6.737991595E0,-2.051323119E-1,6.817945862E0
1.223919567E1,-3.099956342E0,-5.971496467E0,-1.025706875E-1,6.728968727E0
1.224916267E1,-4.022264272E0,-5.210960237E0,-6.394025333E-1,6.613739643E0
1.225912967E1,-3.556438235E0,-4.134563849E0,-8.134413989E-1,5.514032830E0
1.226909667E1,-2.564457515E0,-3.042048442E0,-6.209988606E-1,4.026926949E0
1.227906367E1,-1.340214280E0,-1.641899325E0,-1.452223250E-1,2.124405148E0
1.228903067E1,-1.292986026E-1,-1.299672318E-1,3.217781246E-1,3.703387253E-1
1.229899767E1,7.375616428E-1,1.445866742E0,4.204066193E-1,1.676684090E0
1.230896467E1,1.448469630E0,3.184552104E0,5.367149015E-1,3.539420752E0
1.231893167E1,2.075311321E0,5.011323431E0,8.521813953E-1,5.490582185E0
1.232889867E1,2.544593062E0,6.332658513E0,1.000767331E0,6.897757095E0
1.233886567E1,2.818988859E0,7.109856969E0,1.282233582E0,7.755055593E0
1.234883267E1,3.073422554E0,8.101983869E0,2.023230171E0,8.898400370E0
1.235879967E1,3.387556322E0,9.389203371E0,2.917311544E0,1.039920114E1
1.236876667E1,3.778832697E0,1.068614679E1,3.407452058E0,1.183571034E1
1.237873467E1,4.163435938E0,1.182576211E1,3.270016762E0,1.295669162E1
1.238870167E1,4.502548718E0,1.262655583E1,2.715719429E0,1.367764560E1
1.239866867E1,4.799305145E0,1.318817622E1,1.944028466E0,1.416829448E1
1.240863567E1,4.980832540E0,1.361833365E1,1.112558054E0,1.454322831E1
1.241860267E1,4.919408709E0,1.394334061E1,3.156386212E-1,1.478908236E1
1.242856967E1,4.793019096E0,1.406466098E1,-9.560782313E-2,1.485923489E1
1.243853667E1,4.901266553E0,1.383394856E1,-2.321824817E-1,1.467836692E1
1.244850367E1,5.176250580E0,1.298892416E1,-1.435035360E-1,1.398307241E1
1.245847067E1,4.924564784E0,1.159853229E1,3.642406777E-1,1.260594942E1
1.246843650E1,4.359553013E0,1.040191949E1,9.815803508E-1,1.132118066E1
1.247840350E1,3.827789972E0,9.633749133E0,1.563952432E0,1.048365612E1
1.248837050E1,3.354115218E0,9.176958799E0,1.954342954E0,9.964241972E0
1.249833750E1,3.058291130E0,8.826935114E0,2.092709273E0,9.573262780E0
1.250830450E1,2.739992976E0,8.424440855E0,2.045985488E0,9.092019679E0
1.251827150E1,2.363799200E0,7.983243876E0,1.967247613E0,8.555103308E0
1.252823850E1,1.823306851E0,7.395740790E0,1.844863050E0,7.837407058E0
1.253820550E1,1.058936017E0,6.343212152E0,1.393359769E0,6.580208001E0
1.254817250E1,-3.465065843E-1,3.890592284E0,-2.336520770E0,4.551494748E0
1.255813950E1,-3.130762105E0,-1.356040646E0,-1.135914377E1,1.186046647E1
1.256810650E1,-6.275387374E0,-7.283662530E0,-1.717715024E1,1.968468230E1
1.257807350E1,-5.968762309E0,-1.114516959E1,-1.197287805E1,1.741237312E1
1.258804050E1,-4.305075382E0,-1.152597770E1,2.942496087E0,1.265069639E1
1.259800750E1,-5.832132175E0,-1.260936619E1,8.262823230E0,1.616428560E1
1.260797450E1,-8.618171974E0,-1.900552780E1,4.698759641E0,2.139068296E1
1.261794150E1,-1.032118932E1,-2.796449831E1,-1.179483969E0,2.983171629E1
1.262790850E1,-6.276645695E0,-3.361238706E1,-9.848194013E0,3.558336367E1
1.263787550E1,-8.190224200E-2,-2.999503984E1,-1.347790809E1,3.288408626E1
1.264784250E1,-1.647046629E-1,-2.164993108E1,-8.591588777E0,2.329296119E1
1.265781050E1,-3.651293814E-1,-1.640791862E1,-3.267820548E0,1.673414964E1
1.266777750E1,1.995198619E-1,-1.356482578E1,-2.550323041E0,1.380392895E1
1.267774450E1,4.261743128E-1,-1.128638453E1,-3.126629001E0,1.171921112E1
1.268771150E1,-3.161925718E-1,-9.519681650E0,-2.340519973E0,9.808279676E0
1.269767850E1,-7.852287295E-1,-8.086701586E0,-1.018258692E0,8.188295150E0
1.270764550E1,-7.187748313E-1,-6.824930921E0,-1.859858966E-1,6.865195560E0
1.271761250E1,-4.170263439E-2,-5.306276284E0,9.958729193E-2,5.307374562E0
1.272757950E1,2.575944078E-1,-3.818046464E0,-3.310693502E-2,3.826869445E0
1.273754650E1,2.167945835E-1,-2.575121375E0,-1.103648798E-1,2.586586630E0
1.274751350E1,4.527838218E-1,-1.347030087E0,4.502145553E-1,1.490703320E0
1.275748050E1,5.205390179E-1,8.529450417E-2,1.033469785E0,1.160299883E0
1.276744750E1,6.745277810E-1,1.799132123E0,1.069497989E0,2.199020253E0
1.277741450E1,8.154497713E-1,3.824418175E0,8.058139984E-1,3.992551679E0
1.278738150E1,6.793836012E-1,5.699196897E0,7.836556824E-1,5.792799286E0
1.279734850E1,5.375927147E-1,6.888974304E0,1.012025560E0,6.983635774E0
1.280731550E1,1.093017098E0,8.115174018E0,1.992696011E0,8.427429805E0
1.281728250E1,1.957379706E0,9.514610360E0,3.200903842E0,1.022765521E1
1.282724950E1,2.783416446E0,1.070264764E1,3.801136901E0,1.169370409E1
1.283721650E1,3.184450362E0,1.165636710E1,3.721390235E0,1.264358981E1
1.284718350E1,3.374427861E0,1.244957348E1,3.197705415E0,1.328924238E1
1.285715050E1,3.603548959E0,1.306902750E1,2.637443923E0,1.381090712E1
1.286711750E1,3.931820417E0,1.347846124E1,1.750372192E0,1.414891982E1
1.287708450E1,4.150830803E0,1.365144761E1,8.589735941E-1,1.429437840E1
1.288705150E1,4.171909138E0,1.363780020E1,3.698116855E-1,1.426643547E1
1.289701850E1,4.204125250E0,1.361147838E1,4.234422013E-2,1.424601017E1
1.290698550E1,4.173467129E0,1.345986242E1,-1.280880828E-1,1.409262682E1
1.291695250E1,4.152509246E0,1.305304356E1,1.336275887E-1,1.369828951E1
1.292691950E1,4.158361724E0,1.230201548E1,9.099577332E-1,1.301766416E1
1.293688750E1,3.941395233E0,1.124311280E1,1.827583651E0,1.205330841E1
1.294685450E1,3.620021151E0,1.038757393E1,2.644933037E0,1.131379318E1
1.295682150E1,3.400319916E0,9.776757410E0,3.060353150E0,1.079411517E1
1.296678850E1,3.262039990E0,9.247944582E0,3.103175819E0,1.028567373E1
1.297675550E1,3.085243870E0,8.715223475E0,2.969886199E0,9.710513580E0
1.298672250E1,2.871511766E0,8.177365589E0,2.811673115E0,9.111552749E0
1.299668950E1,2.542681899E0,7.628831272E0,2.627882556E0,8.459909251E0
1.300665650E1,2.118196555E0,6.857532656E0,2.450965983E0,7.584177281E0
1.301662350E1,1.495047965E0,5.346510390E0,1.404783182E0,5.726583410E0
1.302659050E1,1.627449685E-1,1.422650957E0,-3.948344064E0,4.199981252E0
1.303655750E1,-2.278467274E0,-3.875590083E0,-9.683936369E0,1.067662096E1
1.304652450E1,-5.090506425E0,-8.935258877E0,-1.435944719E1,1.766198829E1
1.305649150E1,-6.820808049E0,-1.096557587E1,-7.222540416E0,1.479636329E1
1.306645850E1,-7.022972606E0,-9.645625412E0,7.248720739E0,1.396080894E1
1.307642550E1,-9.016955005E0,-1.435484426E1,7.935477387E0,1.871734043E1
1.308639250E1,-1.345957239E1,-2.627427175E1,-1.124755200E0,2.954255438E1
1.309635950E1,-1.256216512E1,-3.515244776E1,-9.860888318E0,3.861009835E1
1.310632650E1,-1.845899616E0,-3.269153479E1,-1.091746966E1,3.451572013E1
1.311629350E1,2.122510338E0,-2.647559372E1,-9.880112793E0,2.833864396E1
1.312626050E1,3.675808266E-1,-2.198840768E1,-6.663375276E0,2.297881107E1
1.313622750E1,5.933465007E-1,-1.831846593E1,-2.644973675E0,1.851794102E1
1.314619450E1,1.396422394E0,-1.402689148E1,-2.803928186E0,1.437239344E1
1.315616150E1,8.992947507E-1,-1.008466945E1,-2.202889234E0,1.036156407E1
1.316612850E1,-1.131432720E0,-7.883891496E0,-7.438734198E-1,7.999327021E0
1.317609550E1,-2.517185408E0,-6.118462139E0,-1.163265547E-1,6.617048677E0
1.318606250E1,-2.353377416E0,-4.263689666E0,2.670179267E-1,4.877369517E0
1.319602950E1,-1.609491424E0,-2.708980513E0,5.256234643E-1,3.194576356E0
1.320599750E1,-1.752441814E0,-1.826450315E0,4.897262380E-2,2.531673632E0
1.321596450E1,-1.165953220E0,-7.942477673E-1,3.717555924E-1,1.458930652E0
1.322593150E1,-3.064940876E-1,3.926294214E-1,2.856060791E-1,5.741666314E-1
1.323589850E1,6.581128925E-1,1.808415163E0,-1.466795973E-1,1.930024063E0
1.324586550E1,1.722842916E0,3.711739991E0,-2.775800447E-1,4.101493893E0
1.325583250E1,2.097071442E0,5.580869717E0,-9.930545613E-2,5.962690417E0
1.326579950E1,2.054891967E0,7.162960796E0,5.594104305E-1,7.472852762E0
1.327576650E1,1.974274358E0,8.465363179E0,8.798505659E-1,8.736948553E0
1.328573350E1,2.008876426E0,9.549405386E0,8.798070042E-1,9.797999188E0
1.329570050E1,2.039900583E0,1.057481815E1,1.570698803E0,1.088370654E1
1.330566750E1,2.214779109E0,1.155671768E1,2.690422035E0,1.207068104E1
1.331563450E1,2.674699165E0,1.248307569E1,3.253823483E0,1.317454217E1
1.332560150E1,3.504655294E0,1.317058429E1,2.940051366E0,1.394241016E1
1.333556850E1,4.301921101E0,1.343919602E1,2.263125057E0,1.429126481E1
1.334553550E1,4.926371573E0,1.329785244E1,1.793702545E0,1.429403321E1
1.335550250E1,5.363676646E0,1.298294363E1,1.682972506E0,1.414772946E1
1.336546950E1,5.642070769E0,1.258073822E1,1.639838912E0,1.388513624E1
1.337543650E1,5.955476266E0,1.231405841E1,1.690389261E0,1.378263937E1
1.338540350E1,6.272193625E0,1.202797754E1,1.700922435E0,1.367134937E1
1.339537050E1,6.605798913E0,1.133654428E1,1.573893868E0,1.321480070E1
1.340533750E1,6.103327206E0,1.013209387E1,1.499356048E0,1.192300289E1
1.341530450E1,4.669886967E0,9.049173163E0,1.647917279E0,1.031557127E1
1.342527150E1,4.037070591E0,8.367513533E0,1.913584353E0,9.485516684E0
1.343523850E1,3.871122810E0,7.856221302E0,2.089910503E0,9.004084122E0
1.344520550E1,3.647267714E0,7.499315445E0,2.018033312E0,8.579903984E0
1.345517250E1,3.393980073E0,7.055230526E0,2.065366523E0,8.096981992E0
1.346513950E1,2.974745820E0,6.392836887E0,2.117003284E0,7.362009173E0
1.347510675E1,2.238789238E0,5.488629890E0,2.078527290E0,6.281521393E0
1.348507375E1,1.145191511E0,3.608610894E0,1.266273022E-2,3.785986863E0
1.349504175E1,-2.286805111E-1,-3.446641266E-2,-5.820835354E0,5.825427618E0
1.350500875E1,-2.745327683E0,-5.068674676E0,-1.388581687E1,1.503476629E1
1.351497575E1,-5.029960846E0,-9.880218043E0,-1.699872129E1,2.029472198E1
1.352494275E1,-3.363578352E0,-8.550388711E0,-8.140692437E-1,9.224181003E0
1.353490975E1,-4.364051861E0,-6.421196467E0,1.227011307E1,1.452006844E1
1.354487675E1,-8.434242543E0,-1.236289085E1,9.586221210E0,1.777282067E1
1.355484375E1,-1.257465361E1,-2.559019195E1,8.913928235E-1,2.852673165E1
1.356481075E1,-1.223656643E1,-4.056504923E1,-1.500389572E1,4.494856688E1
1.357477775E1,-4.024033639E0,-3.893777380E1,-1.824634637E1,4.318879751E1
1.358474475E1,6.788936046E-1,-2.505523253E1,-5.589153467E0,2.568003525E1
1.359471175E1,-3.518740359E-1,-1.807029372E1,4.463644561E-1,1.807923040E1
1.360467875E1,-4.771675882E-1,-1.396085302E1,-1.257967929E0,1.402553348E1
1.361464575E1,-5.573609814E-1,-1.074275252E1,-3.482316591E0,1.130680820E1
1.362461275E1,-1.451885281E0,-8.507466055E0,-2.222960825E0,8.912154867E0
1.363457975E1,-3.063572335E0,-6.841500176E0,4.499584472E-1,7.509598039E0
1.364454675E1,-3.905274350E0,-5.153678573E0,1.774778470E0,6.705326928E0
1.365451375E1,-3.036831848E0,-3.473388770E0,2.006558590E0,5.031208065E0
1.366448075E1,-1.897527021E0,-2.077358431E0,1.875373968E0,3.381279990E0
1.367444775E1,-8.876351103E-1,-6.425458503E-1,1.610220426E0,1.947709187E0
1.368441475E1,-1.156634805E-1,1.069926444E0,1.611524063E0,1.937815894E0
1.369438175E1,4.416901919E-1,2.853045967E0,1.352379119E0,3.188085757E0
1.370434875E1,1.106906282E0,4.747045071E0,8.410237384E-1,4.946412776E0
1.371431575E1,1.667420374E0,6.360093064E0,3.579760440E-1,6.584771927E0
1.372428275E1,2.057470881E0,7.154316857E0,1.659183986E-1,7.446137592E0
1.373424975E1,2.349641045E0,7.738594619E0,7.713798916E-1,8.124142210E0
1.374421675E1,2.722800700E0,8.562738615E0,2.040501531E0,9.213999280E0
1.375418475E1,3.318116250E0,9.678178031E0,3.332033501E0,1.076008702E1
1.376415175E1,3.927322154E0,1.079530963E1,3.978184744E0,1.215683031E1
1.377411875E1,4.478822764E0,1.175669947E1,3.764060876E0,1.313194541E1
1.378408575E1,4.819114342E0,1.243135472E1,2.828147353E0,1.362941161E1
1.379405275E1,5.068478794E0,1.292448433E1,1.371535767E0,1.395037214E1
1.380401975E1,5.245443606E0,1.334907405E1,-1.535822354E-2,1.434268777E1
1.381398675E1,5.256453913E0,1.347722982E1,-5.420600606E-1,1.447618252E1
1.382395375E1,5.032242429E0,1.339077172E1,-7.107910430E-1,1.432276003E1
1.383392075E1,4.778715345E0,1.313972385E1,-7.476740368E-1,1.400169560E1
1.384388775E1,4.650807795E0,1.258921434E1,-4.205784544E-1,1.342740545E1
1.385385475E1,4.470877859E0,1.157259638E1,1.414513095E-1,1.240700384E1
1.386382175E1,4.293145600E0,1.049072583E1,9.513628905E-1,1.137503929E1
1.387378875E1,4.105368701E0,9.708408136E0,1.790847642E0,1.069179012E1
1.388375575E1,3.686070714E0,9.145670348E0,2.531122831E0,1.018022525E1
1.389372275E1,3.253862952E0,8.537127226E0,2.997542067E0,9.615374347E0
1.390368975E1,3.056497789E0,7.954008967E0,3.189568430E0,9.098449547E0
1.391365675E1,3.065852164E0,7.252339581E0,2.902713093E0,8.391759183E0
1.392362375E1,2.998479961E0,5.992981476E0,2.027139327E0,7.001142971E0
1.393359075E1,2.310934231E0,3.471436969E0,-5.267510998E-1,4.203422222E0
1.394355775E1,8.486227798E-1,1.029460788E-2,-4.417185509E0,4.497976703E0
1.395352475E1,-7.210923752E-1,-3.153622087E0,-8.364555427E0,8.968338418E0
1.396349175E1,-2.443035404E0,-6.222384703E0,-1.027865667E1,1.226121023E1
1.397345875E1,-2.928827343E0,-5.401600517E0,2.975978413E-1,6.151738147E0
1.398342575E1,-4.249495258E0,-6.563942789E0,6.688978479E0,1.029009174E1
1.399339275E1,-9.031635609E0,-1.532453949E1,5.182955582E0,1.852768148E1
1.400335975E1,-1.722430921E1,-3.206131955E1,-2.207215151E0,3.646199169E1
1.401332675E1,-1.935281850E1,-4.790244884E1,-1.488129598E1,5.376457160E1
1.402329475E1,-8.444396233E0,-4.081190932E1,-1.266471125E1,4.355817583E1
1.403326175E1,-2.809400887E0,-2.237473088E1,-1.177540355E0,2.258114073E1
1.404322875E1,-2.589835601E0,-1.409686394E1,1.018041176E0,1.436889798E1
1.405319575E1,-5.006310028E-1,-8.698211585E0,-2.599567706E0,9.092154225E0
1.406316275E1,-2.398995638E-2,-5.404598384E0,-4.596682166E0,7.095050821E0
1.407312975E1,-2.271353551E0,-4.836605703E0,-2.876123465E0,6.068268935E0
1.408309675E1,-4.210946612E0,-4.789114618E0,-1.118432021E0,6.474455991E0
1.409306375E1,-4.524090445E0,-4.495916514E0,-2.850505936E-1,6.384505736E0
1.410303075E1,-3.141516597E0,-3.579698167E0,2.566493516E-1,4.769615748E0
1.411299775E1,-1.343633147E0,-2.636573272E0,3.538968801E-2,2.959412287E0
1.412296475E1,8.337433702E-1,-1.343955036E0,-4.121081047E-1,1.634373346E0
1.413293175E1,2.791156697E0,1.443677545E-3,-4.861608982E-2,2.791580434E0
1.414289875E1,4.859586723E0,1.621100194E0,6.886127003E-1,5.168920236E0
1.415286575E1,8.894156460E0,4.006192907E0,2.827789503E0,1.015637702E1
1.416283275E1,8.699329573E0,4.279329799E0,4.753716159E0,1.079763010E1
1.417279975E1,5.438936158E0,4.503834229E0,1.569912937E0,7.234029024E0
1.418276675E1,3.516870712E0,5.991914359E0,-4.088441889E-1,6.959782386E0
1.419273375E1,3.773507346E0,8.199193245E0,1.562717354E0,9.160142634E0
1.420270075E1,3.856923724E0,1.015642999E1,1.643221819E0,1.098767986E1
1.421266775E1,3.580342530E0,1.133824466E1,9.270222473E-1,1.192619029E1
1.422263475E1,3.133476090E0,1.200067572E1,9.214206147E-1,1.243719848E1
1.423260175E1,2.958564820E0,1.261839780E1,1.598896562E0,1.305884907E1
1.424256875E1,3.035163930E0,1.318768505E1,2.143262984E0,1.370112526E1
1.425253575E1,3.209699809E0,1.350627527E1,2.050420747E0,1.403302782E1
1.426250275E1,3.270200365E0,1.361696307E1,1.148560385E0,1.405115954E1
1.427246975E1,3.183539366E0,1.351100450E1,-1.771826211E-1,1.388213093E1
1.428243775E1,2.631395271E0,1.287974495E1,-9.463962655E-1,1.317982310E1
1.429240475E1,1.930579577E0,1.176035632E1,-6.375371253E-1,1.193480506E1
1.430237175E1,2.051145948E0,1.067117324E1,4.211527240E-1,1.087467276E1
1.431233875E1,2.562909172E0,9.829929650E0,1.488879153E0,1.026707268E1
1.432230575E1,2.932656685E0,9.231454849E0,2.150234180E0,9.921881922E0
1.433227275E1,3.013133960E0,8.539972481E0,2.111235591E0,9.298786048E0
1.434223975E1,2.805894020E0,7.850179959E0,2.326531533E0,8.655120774E0
1.435220675E1,2.938182888E0,7.641737246E0,3.042843663E0,8.734298162E0
1.436217375E1,3.225498109E0,7.504468596E0,2.834786282E0,8.646207274E0
1.437214075E1,3.484451702E0,7.196793371E0,2.209603300E0,8.295636517E0
1.438210775E1,3.571725781E0,6.551920913E0,1.657935606E0,7.644190159E0
1.439207475E1,3.324640574E0,4.947069547E0,7.116238327E-1,6.002761075E0
1.440204175E1,2.627456878E0,1.189686191E0,-1.890028260E0,3.448345937E0
1.441200875E1,1.355702384E0,-6.160446902E0,-8.870092828E0,1.088428141E1
1.442197575E1,-3.154017359E-1,-1.211170265E1,-9.413702620E0,1.534309670E1
1.443194275E1,-2.306673365E0,-1.373605799E1,-2.114559587E0,1.408798755E1
1.444190975E1,-5.689080044E0,-1.652142009E1,2.523557703E0,1.765478114E1
1.445187675E1,-1.024349620E1,-2.507881084E1,1.888607094E0,2.715589815E1
1.446184375E1,-1.371828245E1,-3.967246007E1,-7.560626425E0,4.265276583E1
1.447181150E1,-9.102934803E0,-4.382690679E1,-1.675422698E1,4.779503429E1
1.448177850E1,-2.908265317E0,-2.757218756E1,-9.796311668E0,2.940495292E1
1.449174550E1,-3.241253724E0,-1.634424712E1,-1.555394447E-1,1.666326295E1
1.450171250E1,-1.589363846E0,-1.075189055E1,5.478164251E-1,1.088252409E1
1.451167950E1,-1.150981132E0,-7.460968820E0,-3.963172603E0,8.526285849E0
1.452164650E1,-1.880307264E0,-5.608077396E0,-4.178325580E0,7.241856954E0
1.453161350E1,-4.798314334E0,-5.533842316E0,-2.010857463E0,7.595444619E0
1.454158150E1,-5.471236178E0,-4.669511576E0,-3.571890087E-1,7.201829466E0
1.455154850E1,-4.673276598E0,-3.736832732E0,-1.194504297E-1,5.984789172E0
1.456151550E1,-3.296051490E0,-3.100844534E0,-3.363226350E-1,4.537874520E0
1.457148250E1,-1.617669925E0,-2.151311676E0,3.786937523E-1,2.718162407E0
1.458144950E1,1.834783182E-1,-5.309593409E-1,1.418957710E0,1.526113723E0
1.459141650E1,1.756450665E0,9.510788620E-1,1.477811105E0,2.484672131E0
1.460138350E1,3.080764026E0,2.655351605E0,1.260216476E0,4.257950763E0
1.461135050E1,3.986513518E0,4.426755647E0,1.284235668E0,6.094072271E0
1.462131750E1,4.377429413E0,5.907443143E0,1.992264487E0,7.617669627E0
1.463128450E1,4.348211169E0,7.045013101E0,3.074337351E0,8.831234348E0
1.464125150E1,3.971601072E0,8.033172081E0,3.459762418E0,9.606009824E0
1.465121850E1,3.623205252E0,8.934908629E0,2.848826616E0,1.005365713E1
1.466118550E1,3.319842933E0,1.002275796E1,1.992359358E0,1.074460469E1
1.467115250E1,3.209095792E0,1.137459329E1,9.798204850E-1,1.185916171E1
1.468111950E1,3.733183192E0,1.268932569E1,-1.728389438E-1,1.322820912E1
1.469108650E1,4.061108787E0,1.346178147E1,-1.136297604E0,1.410685426E1
1.470105350E1,4.412750688E0,1.386792790E1,-1.510874916E0,1.463128620E1
1.471102050E1,4.845380035E0,1.396762293E1,-1.196073836E0,1.483249104E1
1.472098750E1,5.267749565E0,1.365073074E1,-2.372193463E-1,1.463379336E1
1.473095450E1,5.267751319E0,1.318411474E1,6.409798197E-1,1.421199988E1
1.474092150E1,4.955652090E0,1.258996863E1,1.230180498E0,1.358599065E1
1.475088850E1,4.594013789E0,1.178988359E1,1.677576842E0,1.276403470E1
1.476085550E1,4.317200168E0,1.071749722E1,2.200476819E0,1.176201778E1
1.477082250E1,4.392863723E0,9.849627750E0,2.604469135E0,1.109484916E1
1.478078950E1,4.437434417E0,9.263894616E0,2.768892839E0,1.063848369E1
1.479075650E1,4.354981952E0,8.737090307E0,2.710998387E0,1.013173860E1
1.480072450E1,4.236983094E0,8.231958702E0,2.707653780E0,9.646168089E0
1.481069150E1,4.003202933E0,7.685301926E0,2.611243719E0,9.050309010E0
1.482065850E1,3.602845247E0,6.945808071E0,2.406977087E0,8.186469467E0
1.483062550E1,2.893667451E0,5.622586092E0,1.888663812E0,6.599533065E0
1.484059250E1,1.890629354E0,2.681347741E0,-8.929984689E-2,3.282084631E0
1.485055950E1,-1.292234659E-4,-3.284997913E0,-5.774941728E0,6.643881642E0
1.486052650E1,-2.850679598E0,-1.047372797E1,-1.268121560E1,1.669247079E1
1.487049350E1,-5.292006154E0,-1.355429729E1,-9.780487933E0,1.753232011E1
1.488046050E1,-7.224523791E0,-1.252865590E1,-2.022127971E-1,1.446381183E1
1.489042750E1,-7.613409240E0,-1.203745587E1,5.963150736E0,1.544096858E1
1.490039450E1,-9.976571971E0,-1.751698574E1,5.444481658E0,2.088107177E1
1.491036150E1,-1.313577464E1,-2.995627748E1,-2.519224040E0,3.280660948E1
1.492032850E1,-1.117156743E1,-4.039261250E1,-1.441299716E1,4.431818533E1
1.493029550E1,-5.594555125E0,-3.276088277E1,-1.237924317E1,3.546576022E1
1.494026250E1,-2.449588087E0,-2.004403774E1,-2.422715453E0,2.033798124E1
1.495022950E1,-1.212465774E0,-1.329840676E1,3.960231453E-2,1.335362362E1
1.496019650E1,-6.889195329E-1,-9.058352122E0,-4.299752954E-1,9.094681525E0
1.497016350E1,-1.283391915E0,-6.596308297E0,-1.109376877E0,6.810954046E0
1.498013050E1,-2.357387436E0,-5.129138394E0,-1.199265100E0,5.770924793E0
1.499009750E1,-3.467092488E0,-4.545308529E0,-1.170761093E0,5.835344161E0
1.500006450E1,-3.695286511E0,-3.817291004E0,-9.124733515E-1,5.390682760E0
1.501003150E1,-3.007901287E0,-3.002752229E0,-5.719687879E-1,4.288489174E0
1.501999850E1,-1.391412500E0,-1.853558591E0,-2.371817780E-1,2.329799002E0
1.502996550E1,-6.730993062E-2,-4.205223942E-1,7.394023463E-2,4.322463060E-1
1.503993250E1,7.721078700E-1,1.235527777E0,1.445069182E-1,1.464090742E0
1.504990050E1,1.258587441E0,2.944150264E0,4.172817211E-1,3.228960694E0
1.505986750E1,1.477914746E0,4.365225397E0,5.868919055E-1,4.645844043E0
1.506983450E1,1.953162986E0,5.683217626E0,8.889450328E-1,6.074868846E0
1.507980150E1,2.613079452E0,7.150447755E0,1.443809692E0,7.748656254E0
1.508976850E1,3.458911941E0,8.614391749E0,2.265580888E0,9.555347915E0
1.509973550E1,4.835203541E0,1.029116270E1,3.421718094E0,1.187414745E1
1.510970250E1,5.981081808E0,1.151569011E1,3.750785358E0,1.350751084E1
1.511966950E1,6.485837436E0,1.235910302E1,3.629286064E0,1.442169311E1
1.512963650E1,6.777073799E0,1.330372772E1,2.981698744E0,1.522525626E1
1.513960350E1,7.041139321E0,1.380021714E1,1.748204044E0,1.559101836E1
1.514957050E1,6.457697711E0,1.367841613E1,7.340407419E-1,1.514396723E1
1.515953750E1,5.849463322E0,1.333067637E1,3.292287929E-1,1.456130301E1
1.516950450E1,5.349971942E0,1.293294876E1,3.546231043E-1,1.400032575E1
1.517947150E1,5.108672554E0,1.247871600E1,6.351212020E-1,1.349889874E1
1.518943850E1,4.720324757E0,1.184902818E1,1.013220731E0,1.279482516E1
1.519940550E1,4.127863525E0,1.070180564E1,1.264574990E0,1.153980290E1
1.520937250E1,3.553844410E0,9.582765505E0,1.517411080E0,1.033255734E1
1.521933950E1,3.097378597E0,8.680741859E0,1.690450072E0,9.370520521E0
1.522930650E1,2.845593106E0,8.054595695E0,1.833381750E0,8.737001806E0
1.523927350E1,2.825147731E0,7.581429064E0,1.839064074E0,8.297088828E0
1.524924050E1,2.883004468E0,7.155222006E0,1.627497779E0,7.884013302E0
1.525920750E1,2.741412680E0,6.590854599E0,1.235162618E0,7.244331199E0
1.526917450E1,2.410008284E0,5.771122327E0,2.250631312E-1,6.258166365E0
1.527914150E1,1.998230401E0,4.643527719E0,-1.708961333E0,5.336274285E0
1.528910850E1,1.612036133E0,2.872842300E0,-4.707529295E0,5.745669276E0
1.529907550E1,1.304981005E0,4.932272583E-1,-6.303682051E0,6.456210649E0
1.530904350E1,1.014370586E0,-2.126344650E0,-5.426489190E0,5.915832502E0
1.531901050E1,-1.164338511E-1,-5.310223154E0,-3.517454556E0,6.370597566E0
1.532897750E1,-1.118227076E0,-7.317313841E0,1.894947815E0,7.640964655E0
1.533894450E1,-4.210622091E0,-1.193245976E1,3.912814335E0,1.324473670E1
1.534891150E1,-1.139976438E1,-2.304638651E1,1.518367246E0,2.575647488E1
1.535887850E1,-1.888572069E1,-3.887283462E1,-8.260128833E0,4.399997097E1
1.536884550E1,-1.357564547E1,-4.260611107E1,-1.523189386E1,4.723970196E1
1.537881250E1,-3.508527027E0,-2.948205425E1,-7.757320912E0,3.068676119E1
1.538877950E1,-3.588582134E0,-1.836899757E1,1.004914176E0,1.874320799E1
1.539874650E1,-3.078463731E0,-1.106027036E1,1.642749217E0,1.159763529E1
1.540871350E1,-1.439275468E0,-7.006153675E0,-2.495174149E0,7.575196184E0
1.541868050E1,-1.587012973E0,-5.237520044E0,-3.004601119E0,6.243224670E0
1.542864750E1,-3.787838579E0,-4.446586479E0,-9.631320199E-1,5.920090852E0
1.543861450E1,-5.258025645E0,-3.833373771E0,-6.215121000E-1,6.536655524E0
1.544858150E1,-5.259803783E0,-2.908240759E0,-9.242182150E-1,6.080919294E0
1.545854850E1,-4.382705356E0,-2.129631954E0,-1.676607227E-1,4.875607512E0
1.546851550E1,-3.242774000E0,-1.428477123E0,1.094885138E0,3.708760381E0
1.547848242E1,-1.838675673E0,-5.195251107E-1,2.034302459E0,2.790881772E0
1.548844942E1,9.294242835E-1,8.478638113E-1,3.120427444E0,3.364486584E0
1.549841642E1,2.618939824E0,1.575124707E0,3.179251603E0,4.409932471E0
1.550838342E1,3.720923335E0,1.803563143E0,1.109793345E0,4.281325933E0
1.551835042E1,4.596277539E0,2.297347056E0,-1.264786659E0,5.291810276E0
1.552831742E1,5.147985724E0,4.019808733E0,-1.031615048E0,6.612476758E0
1.553828442E1,4.620781758E0,5.749646088E0,-4.437975284E-1,7.389655637E0
1.554825242E1,2.734846549E0,6.704722692E0,1.728812630E-1,7.243105684E0
1.555821942E1,1.984014358E0,7.928182400E0,1.541807857E0,8.316823950E0
1.556818642E1,2.841763179E0,9.726654373E0,2.517224000E0,1.044125663E1
1.557815342E1,4.415866377E0,1.160524256E1,2.726930881E0,1.271289435E1
1.558812042E1,5.774906645E0,1.311168645E1,2.422701712E0,1.453049731E1
1.559808742E1,6.612551862E0,1.387804475E1,1.686213179E0,1.546509888E1
1.560805442E1,6.895688077E0,1.389672895E1,9.703126931E-1,1.554384432E1
1.561802142E1,6.419605440E0,1.353859634E1,7.318810728E-1,1.500135243E1
1.562798842E1,5.399514230E0,1.298383123E1,7.535167940E-1,1.408198903E1
1.563795542E1,4.530550157E0,1.239519437E1,9.638936198E-1,1.323237768E1
1.564792242E1,4.042795892E0,1.200986754E1,1.166807352E0,1.272566526E1
1.565788942E1,3.582038807E0,1.151076091E1,1.379965260E0,1.213395742E1
1.566785642E1,3.373671816E0,1.074319925E1,1.654785272E0,1.138140175E1
1.567782342E1,3.476174091E0,9.886454684E0,1.986791200E0,1.066644795E1
1.568779042E1,3.342792670E0,9.178146953E0,2.244602247E0,1.002251882E1
1.569775742E1,3.001641843E0,8.618540348E0,2.189214790E0,9.385187951E0
1.570772442E1,2.560453050E0,7.953385069E0,1.849393765E0,8.557599616E0
1.571769142E1,2.045361298E0,7.173819076E0,1.285918497E0,7.569727165E0
1.572765842E1,1.497816622E0,5.777051988E0,-6.720292658E-2,5.968442053E0
1.573762542E1,8.374645382E-2,2.211513439E0,-3.835377027E0,4.428083343E0
1.574759242E1,-1.254200860E0,-2.938328192E0,-6.977330410E0,7.673977588E0
1.575755942E1,-1.701982389E0,-6.431071245E0,-5.151137373E0,8.413657805E0
1.576752642E1,-2.014024900E0,-7.998972886E0,-2.058624829E0,8.501635120E0
1.577749342E1,-1.650267275E0,-8.667653452E0,8.770098424E-1,8.866833973E0
1.578746042E1,-1.491825565E0,-1.012053861E1,1.508318806E0,1.034049664E1
1.579742842E1,-2.008968520E0,-1.335145036E1,-6.430419865E-1,1.351705161E1
1.580739542E1,-4.101933170E0,-1.851942888E1,-4.512787485E0,1.949770122E1
1.581736242E1,-6.318980121E0,-2.554491345E1,-8.858922307E0,2.776603352E1
1.582732942E1,-6.786494833E0,-3.041900273E1,-1.094302433E1,3.303213619E1
1.583729642E1,-4.841318559E0,-2.749034057E1,-8.428066714E0,2.915800917E1
1.584726342E1,-3.618589752E0,-1.848627634E1,-4.586927548E0,1.938753489E1
1.585723042E1,-3.150353786E0,-1.335940608E1,-2.058629799E0,1.387935216E1
1.586719742E1,-3.175811101E0,-1.065935017E1,-2.069269685E0,1.131324000E1
1.587716442E1,-3.322411323E0,-8.644582093E0,-2.783700036E0,9.670377575E0
1.588713142E1,-3.952065524E0,-6.910416629E0,-2.085800641E0,8.229413357E0
1.589709842E1,-4.312115137E0,-5.804030457E0,-1.115725053E0,7.316143034E0
1.590706542E1,-3.997955350E0,-5.041007406E0,-1.354173338E0,6.574890727E0
1.591703242E1,-3.135251013E0,-3.993472874E0,-1.609556913E0,5.326189817E0
1.592699942E1,-1.590951365E0,-2.719204370E0,-7.755369696E-1,3.244480890E0
1.593696642E1,-1.658469164E-1,-1.474433314E0,4.438495687E-1,1.548696625E0
1.594693342E1,5.838281107E-1,-4.401006263E-1,1.113926303E0,1.332432224E0
1.595690042E1,1.217183600E0,8.422130620E-1,1.556926564E0,2.148226962E0
1.596686742E1,2.035049148E0,2.673687304E0,2.104570788E0,3.964750565E0
1.597683442E1,3.237949170E0,4.539072474E0,4.821776580E0,7.371365079E0
1.598680142E1,8.317792904E0,6.458705186E0,1.360195443E1,1.720214277E1
1.599676842E1,3.550906185E0,9.153777512E0,-4.219464251E0,1.068664849E1
1.600673542E1,1.527650578E0,1.076579523E1,-5.278845241E0,1.208727720E1
1.601670242E1,1.472797263E0,1.178614956E1,-3.146946906E0,1.228762500E1
1.602666942E1,1.691414132E0,1.183146431E1,-1.557101834E-1,1.195276852E1
1.603663642E1,2.096934909E0,1.183520419E1,2.404755438E0,1.225773401E1
1.604660442E1,2.667995332E0,1.212132249E1,3.156731929E0,1.280662385E1
1.605657142E1,3.963187221E0,1.242718800E1,3.329997500E0,1.346219662E1
1.606653842E1,4.857236434E0,1.242241667E1,2.925530391E0,1.365532533E1
1.607650542E1,5.126931070E0,1.201101009E1,2.059748226E0,1.322090573E1
1.608647242E1,5.052111853E0,1.149701527E1,1.206944687E0,1.261593872E1
1.609643942E1,4.697846013E0,1.125077733E1,7.638722129E-1,1.221610610E1
1.610640642E1,4.456529962E0,1.109962095E1,6.544377713E-1,1.197875342E1
1.611637342E1,4.408857028E0,1.084579215E1,7.849571264E-1,1.173394160E1
1.612634042E1,4.466528993E0,1.025905681E1,1.069133123E0,1.124015896E1
1.613630742E1,4.433981051E0,9.428146997E0,1.427130070E0,1.051602796E1
1.614627442E1,4.158615201E0,8.764472233E0,1.856424311E0,9.877062576E0
1.615624142E1,3.742051957E0,8.189094518E0,2.173214907E0,9.262131769E0
1.616620842E1,3.264700474E0,7.387336587E0,2.260417943E0,8.386924365E0
1.617617542E1,2.768845477E0,6.044050473E0,1.963785038E0,6.932063406E0
1.618614242E1,1.647743032E0,4.044258866E0,1.336090823E0,4.566861675E0
1.619610942E1,-4.644686052E-1,1.375501934E0,4.009216502E-2,1.452358095E0
1.620607642E1,-3.110195694E0,-2.506177440E0,-3.576183990E0,5.361281054E0
1.621604342E1,-5.024692504E0,-7.424457051E0,-9.267647359E0,1.289416088E1
1.622601042E1,-4.484445154E0,-9.490745534E0,-8.948395232E0,1.379341424E1
1.623597742E1,-3.720379252E0,-8.090537360E0,-9.373791280E-1,8.954144078E0
1.624594442E1,-3.618209683E0,-7.263082085E0,5.809073095E0,9.979435501E0
1.625591142E1,-4.179885910E0,-9.170213451E0,5.097402046E0,1.129370482E1
1.626587842E1,-5.065693181E0,-1.487981898E1,-6.341958801E-1,1.573125756E1
1.627584542E1,-5.590684268E0,-2.423586454E1,-9.601543254E0,2.666125491E1
1.628581242E1,-5.989305332E0,-3.199832633E1,-1.384122718E1,3.537434432E1
1.629578042E1,-5.288217743E0,-3.008324158E1,-6.426341432E0,3.121321090E1
1.630574742E1,-2.683238731E0,-2.064370713E1,-4.611348152E-2,2.081740955E1
1.631571442E1,-1.143117796E0,-1.394296639E1,1.363519235E0,1.405603837E1
1.632568142E1,-1.544884954E0,-1.069470595E1,-4.821799676E-1,1.081646441E1
1.633564842E1,-2.201277595E0,-8.255746345E0,-2.061820625E0,8.789429734E0
1.634561542E1,-2.541120985E0,-6.335741165E0,-2.048262101E0,7.127011267E0
1.635558242E1,-3.528020475E0,-5.156199308E0,-7.401583913E-1,6.291355515E0
1.636554942E1,-3.109735810E0,-4.004848047E0,-1.637183838E-1,5.073072876E0
1.637551642E1,-2.063661913E0,-2.911526309E0,-8.477666013E-1,3.668023194E0
1.638548342E1,-1.090198156E0,-1.716367709E0,-9.294793935E-1,2.235706169E0
1.639545042E1,-1.783377385E-1,-3.562685108E-1,-3.309581070E-1,5.179429209E-1
1.640541742E1,5.946904832E-1,1.138685022E0,2.608955996E-1,1.310849673E0
1.641538442E1,1.223491868E0,2.617165779E0,4.223958421E-1,2.919744392E0
1.642535142E1,1.734831754E0,3.682351885E0,4.353193581E-1,4.093758611E0
1.643531842E1,2.172991397E0,4.472018943E0,5.565859330E-1,5.003062357E0
1.644528542E1,2.409789013E0,5.580843989E0,9.611347573E-1,6.154403525E0
1.645525242E1,2.512298597E0,6.842871348E0,1.546659730E0,7.451757433E0
1.646521942E1,2.822908540E0,8.211263652E0,2.066892354E0,8.925564822E0
1.647518562E1,3.307119099E0,9.531064425E0,2.247967905E0,1.033593661E1
1.648515263E1,3.761642760E0,1.069406042E1,2.236641848E0,1.155488863E1
1.649511963E1,4.256420993E0,1.162889103E1,1.970191394E0,1.253913396E1
