"Time (s)","Linear Acceleration x (m/s^2)","Linear Acceleration y (m/s^2)","Linear Acceleration z (m/s^2)","Absolute acceleration (m/s^2)"
5.939416646E-3,1.529543322E0,-7.090354165E-1,-2.911882989E0,3.364713441E0
1.590441668E-2,4.027182072E-1,-7.881728026E-1,-2.442545700E0,2.597966093E0
2.586941666E-2,-5.691068682E-1,-6.675593618E-1,-2.296953539E0,2.458762633E0
3.583341668E-2,-1.596507682E0,-3.456987914E-1,-2.152924338E0,2.702485456E0
4.579841666E-2,-3.207238424E0,-7.739889193E-1,-2.007939702E0,3.862286758E0
5.576241668E-2,-2.571604567E0,-2.971274328E-1,-1.371690134E0,2.929670388E0
6.572741666E-2,-1.001491363E0,-1.196101464E0,-1.054465236E0,1.882960593E0
7.569241669E-2,1.046645828E0,-1.930254472E0,-6.317144680E-1,2.284822309E0
8.565641666E-2,2.949772947E0,-4.478636822E-1,-3.048001492E-1,2.999107442E0
9.562141669E-2,3.557885129E0,1.130404195E-1,2.762417632E-1,3.570382926E0
1.055854167E-1,1.366944241E0,-7.160500288E-3,4.313257098E0,4.524685031E0
1.155504167E-1,-3.983458421E-1,1.131901667E0,6.548021990E0,6.657061873E0
1.255154167E-1,-4.301753798E-1,1.067121534E0,5.371730016E0,5.493567383E0
1.354794167E-1,-8.006487143E-1,5.999339738E-1,3.396933501E0,3.541202670E0
1.454444167E-1,-6.721905027E-1,5.914087334E-1,1.083848664E0,1.405820859E0
1.554084167E-1,-4.274527334E-1,8.754252470E-1,-9.481669486E-2,9.788132651E-1
1.653734167E-1,-8.813237719E-2,1.256727150E0,-6.761878055E-1,1.429811314E0
1.753384167E-1,-4.464546494E-2,1.294149622E0,-7.423192298E-1,1.492599846E0
1.853024167E-1,-2.432423439E-1,1.033576351E0,-8.388608533E-1,1.353194162E0
1.952674167E-1,-5.983178765E-1,6.337817511E-1,-3.996957815E-1,9.588640712E-1
2.052324167E-1,-1.180179057E0,-1.339038697E-1,-4.789980590E-1,1.280699806E0
2.151964167E-1,-1.181171110E0,-4.184542340E-1,-9.758576077E-1,1.588259175E0
2.251614167E-1,-3.431027008E-1,1.365646452E-1,-1.345868245E0,1.395611227E0
2.351254167E-1,1.126246313E0,4.903735247E-1,-1.315301925E0,1.799698893E0
2.450904167E-1,2.915774604E0,3.729807302E-1,-3.055886462E0,4.240200259E0
2.550554167E-1,2.468101248E0,1.330911067E-1,-4.120408909E0,4.804894025E0
2.650194167E-1,7.525000363E-1,-4.403403622E-1,-2.667443063E0,2.806315811E0
2.749844167E-1,-3.335472906E-1,-3.565810445E-1,-1.954495566E0,2.014561182E0
2.849484167E-1,-1.787812644E0,-6.776845466E-1,-9.552520198E-1,2.137296614E0
2.949134167E-1,-3.344468774E0,-1.404160746E0,6.020380944E-1,3.676899325E0
3.048784166E-1,-1.609513059E0,-4.750862718E-1,9.224572091E0,9.375978323E0
3.148424167E-1,5.233107443E-1,2.039136060E-1,4.576513950E0,4.610847517E0
3.248074166E-1,3.666689825E0,3.317613682E-1,2.600752645E0,4.507615134E0
3.347714167E-1,4.739579930E0,1.991261981E-1,-8.441835737E-1,4.818289641E0
3.447364166E-1,6.531820525E0,1.688433806E0,-3.125211636E0,7.435215925E0
3.547014167E-1,5.992639414E0,3.270045998E0,-3.389928537E0,7.622108859E0
3.646654167E-1,3.199939637E0,4.176166204E0,-2.338864626E0,5.757626731E0
3.746304167E-1,7.298898035E-1,4.741271822E0,-7.394956094E-1,4.853787323E0
3.845954167E-1,-1.461424429E0,4.191721551E0,1.196671860E0,4.597642272E0
3.945594167E-1,-1.758466931E0,2.916937323E0,4.446350836E0,5.600961083E0
4.045244167E-1,-2.952341044E-1,1.682373751E0,7.577272278E0,7.767406246E0
4.144884167E-1,4.940692574E-2,7.639363861E-1,6.894540269E0,6.936910362E0
4.244534167E-1,9.146390140E-1,4.493517986E-1,7.040483848E0,7.113852288E0
4.344184167E-1,1.056652387E0,7.237332702E-2,6.021308897E0,6.113747869E0
4.443824167E-1,7.029744852E-1,-1.399493060E-1,4.786207967E0,4.839581143E0
4.543474167E-1,-1.439628348E-1,-5.333990917E-1,4.165549414E0,4.202028297E0
4.643114167E-1,-1.104331753E0,-1.081205723E0,3.210966901E0,3.563546390E0
4.742764166E-1,-2.611679629E0,-1.957770007E0,2.285674260E0,3.984725926E0
4.842414167E-1,-3.543524075E0,-1.531070614E0,2.178163260E0,4.432283303E0
4.942054166E-1,-3.603570302E0,-1.449929680E0,1.835892398E0,4.296337498E0
5.041704167E-1,-2.884792255E0,-1.574716279E0,1.244775733E0,3.514430869E0
5.141354167E-1,-2.011993577E0,-1.510617639E0,9.247003180E-1,2.680513847E0
5.240994167E-1,-1.515856159E0,-1.484018070E0,3.946525580E-1,2.157748866E0
5.340644167E-1,-1.297098958E0,-1.347257543E0,-2.871029663E-1,1.892087923E0
5.440284167E-1,-1.237150087E0,-1.471269971E0,-1.024681858E0,2.178336194E0
5.539934167E-1,-1.386046510E0,-1.865355933E0,-1.656164192E0,2.853691910E0
5.639584167E-1,-1.785668909E0,-2.054717427E0,-2.100867162E0,3.438621816E0
5.739224167E-1,-2.299073739E0,-2.233318291E0,-2.368657944E0,3.985472507E0
5.838874167E-1,-2.825841796E0,-2.620548978E0,-2.730745019E0,4.723306804E0
5.938514167E-1,-3.192339426E0,-3.068298639E0,-2.892707046E0,5.288973587E0
6.038164167E-1,-3.487789292E0,-3.551779174E0,-3.072398415E0,5.849738581E0
6.137814167E-1,-3.156013598E0,-3.988600097E0,-3.036320509E0,5.923562678E0
6.237454167E-1,-2.302249362E0,-4.673904881E0,-2.506513655E0,5.781725492E0
6.337104167E-1,-1.754820753E0,-5.968714947E0,-2.347637789E0,6.649538117E0
6.436744167E-1,-2.165000592E0,-7.165647007E0,-2.592161331E0,7.921680690E0
6.536394167E-1,-3.136771581E0,-8.166434804E0,-2.625505663E0,9.133634180E0
6.636044167E-1,-4.424532536E0,-9.281579520E0,-2.119777934E0,1.049846013E1
6.735684167E-1,-5.511103663E0,-1.035636851E1,-1.155945710E0,1.178825020E1
6.835334167E-1,-5.874523319E0,-1.134789373E1,-1.250877303E-1,1.277890305E1
6.934974167E-1,-5.434350187E0,-1.193647329E1,7.397698438E-1,1.313616443E1
7.034624167E-1,-3.738866978E0,-1.191709562E1,1.579979065E0,1.258938553E1
7.134274167E-1,-1.457565266E0,-1.135676162E1,2.420568940E0,1.170297761E1
7.233914167E-1,1.917348790E-1,-1.029563231E1,3.281098990E0,1.080751671E1
7.333564167E-1,1.204252190E0,-9.029293799E0,3.722143064E0,9.840361723E0
7.433214167E-1,1.383554134E0,-8.137715619E0,3.998843542E0,9.172098299E0
7.532854167E-1,1.338437018E0,-7.181831515E0,4.212513666E0,8.432994068E0
7.632504167E-1,2.032292771E0,-5.795411661E0,3.694391887E0,7.166975766E0
7.732144167E-1,3.194897583E0,-4.317677593E0,2.976373100E0,6.140725299E0
7.831794167E-1,3.828597180E0,-2.998413887E0,3.125767414E0,5.780922429E0
7.931444166E-1,3.837614172E0,-2.310910842E0,3.947004467E0,5.970463609E0
8.031084167E-1,3.125706895E0,-1.984510494E0,4.397561669E0,5.748641068E0
8.130734166E-1,2.801123276E0,-1.151200549E0,4.110809243E0,5.105909022E0
8.230374167E-1,3.849909112E0,-4.701909097E-1,4.177396165E0,5.700308622E0
8.330024166E-1,5.292621866E0,1.568261610E-1,4.084040982E0,6.686989712E0
8.429674167E-1,6.717456758E0,1.637790925E0,3.180022266E0,7.610461617E0
8.529314167E-1,7.777293246E0,3.072323278E0,2.508349096E0,8.730250612E0
8.628964167E-1,8.352734696E0,3.926618734E0,2.066745150E0,9.458221138E0
8.728604167E-1,8.998639771E0,4.339789716E0,1.524973723E0,1.010617818E1
8.828254167E-1,9.064976433E0,4.186037473E0,1.222812422E0,1.005942233E1
8.927904167E-1,8.380149951E0,4.261738451E0,4.352339888E-1,9.411628788E0
9.027544167E-1,7.862608801E0,4.476301444E0,-4.960625732E-1,9.061124094E0
9.127194167E-1,7.469402259E0,4.261573559E0,-1.644512445E0,8.755421206E0
9.226844167E-1,6.720076311E0,3.890467154E0,-3.218410406E0,8.405553274E0
9.326484167E-1,6.285423535E0,3.900066820E0,-4.568018530E0,8.693898062E0
9.426134167E-1,6.107728990E0,3.930916438E0,-5.440711373E0,9.075119707E0
9.525774167E-1,6.428719495E0,4.064190854E0,-6.256633015E0,9.848428216E0
9.625424166E-1,6.394375874E0,3.744499601E0,-6.815799909E0,1.006799128E1
9.725074167E-1,5.825645274E0,3.043524864E0,-7.180296037E0,9.734363750E0
9.824714166E-1,5.149945126E0,2.454444492E0,-7.074108261E0,9.087862249E0
9.924364167E-1,3.414990873E0,1.314242994E0,-6.307623074E0,7.292153739E0
1.002400417E0,1.638149505E0,2.783180364E-1,-5.456317592E0,5.703717769E0
1.012365042E0,5.103753877E-1,-2.302969008E-1,-4.402628866E0,4.438092003E0
1.022330042E0,1.561861467E-1,-6.886055374E-1,-3.152332191E0,3.230444233E0
1.032294042E0,4.769252211E-1,-7.892500790E-1,-1.506459099E0,1.766293399E0
1.042259042E0,1.121522859E0,-6.781852875E-1,-9.680767179E-2,1.314199579E0
1.052223042E0,1.226573351E0,-9.212547000E-1,1.121094843E0,1.900012120E0
1.062188042E0,7.391202182E-1,-1.414193252E0,2.237568632E0,2.748263931E0
1.072153042E0,6.196645260E-2,-1.969033060E0,3.249009470E0,3.799604397E0
1.082117042E0,-6.788079429E-1,-2.364633013E0,3.717551538E0,4.457853626E0
1.092082042E0,-1.658927001E0,-2.323630875E0,3.663647227E0,4.644740062E0
1.102047042E0,-2.052177397E0,-2.344558206E0,2.454060037E0,3.966206742E0
1.112011042E0,-1.232305377E0,-2.038009593E0,-5.073219717E-1,2.435043167E0
1.121976042E0,-4.504554605E-1,-4.591806757E-1,-1.585929192E0,1.711411235E0
1.131940042E0,-2.779707849E-2,2.333269279E-1,-1.732852764E0,1.748711764E0
1.141905042E0,6.562312585E-1,2.000610217E-1,-2.312367384E0,2.411992287E0
1.151870042E0,1.167294279E0,8.504084464E-1,-2.384223817E0,2.787524649E0
1.161834042E0,1.422279074E0,1.663388427E0,-1.412085038E0,2.604558116E0
1.171799042E0,1.635117139E0,1.292439604E0,9.583639079E-1,2.294007317E0
1.181763042E0,1.108498771E0,1.655212265E-1,-7.609016812E-1,1.354672717E0
1.191728042E0,1.752451462E-1,4.863108793E-1,-1.379075167E0,1.472772029E0
1.201693042E0,-5.204551104E-1,3.702881605E-1,-1.194697255E0,1.354728155E0
1.211657042E0,-1.606195056E-1,3.361875643E-1,-1.180131841E0,1.237550753E0
1.221622042E0,-6.588397014E-1,6.237135766E-1,-1.354676490E0,1.630410001E0
1.231586042E0,-9.192466199E-1,5.654953355E-1,-1.119924231E0,1.555322991E0
1.241551042E0,-1.191804930E0,4.583534409E-1,-8.411289883E-1,1.529047037E0
1.251516042E0,-1.785005835E0,1.561797148E-1,-7.461643589E-1,1.940978924E0
1.261480042E0,-2.391269127E0,-2.504929644E-1,-2.991862375E-1,2.422896442E0
1.271445042E0,-2.620850694E0,-8.208791303E-1,5.753204119E-1,2.806010421E0
1.281409042E0,-2.039211196E0,-1.101163220E0,9.213060093E-1,2.493942161E0
1.291374042E0,-1.017224904E0,-9.194902296E-1,2.050141981E0,2.466432835E0
1.301339042E0,1.328165799E-1,-9.413384239E-1,3.421822760E0,3.551426371E0
1.311303042E0,1.458820079E0,-6.287382352E-1,4.091977993E0,4.389504720E0
1.321268042E0,2.392724207E0,2.303320572E-2,4.977306669E0,5.522611822E0
1.331233042E0,3.167664760E0,5.719496383E-1,4.711040255E0,5.705710009E0
1.341197042E0,3.479825385E0,1.057943379E0,2.963441398E0,4.691525746E0
1.351162042E0,3.129334800E0,1.382948070E0,4.408233422E-1,3.449580681E0
1.361126042E0,1.941557725E0,1.019376899E0,-2.067158548E0,3.013622426E0
1.371091042E0,1.200179897E0,4.356488487E-1,-2.854353404E0,3.126908227E0
1.381056042E0,8.683793521E-1,1.584270921E-1,-2.587577698E0,2.733997108E0
1.391020042E0,1.040234283E-1,-2.167116992E-1,-2.340123532E0,2.352437667E0
1.400985042E0,-3.925440520E-2,-4.602255732E-1,-2.237092084E0,2.284278765E0
1.410949042E0,-3.204975843E-2,-6.733221582E-1,-2.011387221E0,2.121336481E0
1.420914042E0,-2.127047485E-1,-9.604057556E-1,-1.421107292E0,1.728342692E0
1.430879042E0,1.133418435E-1,-1.157213752E0,-1.075766058E0,1.584065230E0
1.440843042E0,3.187641773E-1,-1.335889387E0,-8.600078934E-1,1.620439641E0
1.450808042E0,4.609506279E-2,-1.823077933E0,-1.065419410E0,2.112073963E0
1.460772042E0,2.330729395E-1,-1.881472614E0,-9.081988907E-1,2.102162557E0
1.470737042E0,4.095840079E-1,-1.484340106E0,-1.374634792E0,2.064133091E0
1.480702042E0,3.709394673E-1,-1.080877840E0,-2.203752429E0,2.482421754E0
1.490666042E0,7.531473961E-1,-5.219033926E-1,-2.138410964E0,2.326459886E0
1.500631042E0,1.206456006E-2,-4.940582938E-1,-2.423779061E0,2.473649953E0
1.510596042E0,1.456690523E-1,-4.114983863E-1,-1.330873060E0,1.400633249E0
1.520560042E0,7.332534143E-1,-2.144154245E-1,7.453755695E-1,1.067342159E0
1.530525042E0,7.761503425E-1,-3.782674903E-1,2.641549253E0,2.779078643E0
1.540489042E0,4.073889631E-1,-3.797293673E-1,3.733636644E0,3.774944072E0
1.550454042E0,2.016014707E-1,2.753490396E-3,3.791892453E0,3.797248887E0
1.560419042E0,4.350740674E-1,5.599766602E-1,3.052407954E0,3.133697117E0
1.570383042E0,4.951179555E-1,8.678640662E-1,2.008291705E0,2.243115110E0
1.580348042E0,5.980368447E-1,1.328365189E0,7.505105942E-1,1.638739850E0
1.590312042E0,1.119390672E0,1.599468712E0,-5.366223693E-2,1.953001606E0
1.600277042E0,1.954297346E0,1.946413837E0,-3.415042913E-1,2.779285902E0
1.610242042E0,2.621452957E0,2.371700251E0,-4.446854281E-1,3.562965453E0
1.620206042E0,2.947060423E0,2.406992875E0,-4.226110196E-1,3.828495777E0
1.630171042E0,3.142242236E0,2.253468673E0,-2.130128968E-1,3.872619504E0
1.640135042E0,2.756537965E0,1.865386339E0,-1.584016567E-1,3.332155283E0
1.650100042E0,2.076428724E0,1.323028143E0,-2.040573013E-1,2.470546315E0
1.660065042E0,1.415135823E0,8.085180433E-1,-2.712950188E-1,1.652244477E0
1.670029042E0,1.023498090E0,2.579679718E-1,-1.662123674E-1,1.068514092E0
1.679994042E0,3.958784267E-1,-1.470736266E-1,2.588375258E-1,4.953253932E-1
1.689958042E0,-1.009243747E0,-3.471942899E-1,-4.353526872E-1,1.152670282E0
1.699923042E0,-1.225282578E0,-7.627043778E-1,-1.389089109E0,2.003148501E0
1.709888042E0,-1.622310567E0,-9.986493965E-1,-1.635205432E0,2.510595348E0
1.719852042E0,-1.896642338E0,-8.848041078E-1,-1.680957556E0,2.684352579E0
1.729817042E0,-2.176319048E0,-7.778390184E-1,-1.736059962E0,2.890553983E0
1.739781042E0,-2.404656620E0,-6.903941276E-1,-1.789205305E0,3.075755701E0
1.749746042E0,-2.220553234E0,-3.655880955E-1,-1.622154447E0,2.774147864E0
1.759711042E0,-1.793521135E0,-1.010933885E-1,-1.269826375E0,2.199862940E0
1.769675042E0,-1.310487328E0,2.316101854E-1,-6.290054530E-1,1.471960656E0
1.779640042E0,-8.955493167E-1,3.361529926E-1,4.816468477E-2,9.577720240E-1
1.789605042E0,-7.818104473E-1,4.778597523E-1,7.258183873E-1,1.168926794E0
1.799569042E0,-7.190169060E-1,7.545996983E-1,1.049634851E0,1.479236065E0
1.809534042E0,-5.722889230E-1,1.201170488E0,6.954333311E-1,1.501316979E0
1.819498042E0,-4.077734175E-1,1.281987706E0,2.540147424E-1,1.369048987E0
1.829463042E0,-2.130912495E-1,1.305026321E0,-2.596222222E-2,1.322564031E0
1.839428042E0,-2.204812530E-1,1.185445936E0,-2.233659768E-1,1.226289693E0
1.849392042E0,-5.154265049E-1,7.275151031E-1,-5.495108020E-1,1.047332244E0
1.859357042E0,-3.837849230E-1,4.104937250E-1,-5.647936696E-1,7.967357495E-1
1.869321042E0,-4.410730183E-1,-9.655982293E-3,-3.443127090E-1,5.596337079E-1
1.879286042E0,-3.756415057E-1,-1.940196054E-1,-3.093831968E-1,5.238970420E-1
1.889251042E0,-2.324180514E-1,-2.591290826E-1,-5.743877810E-1,6.716303709E-1
1.899215042E0,1.439105022E-1,-6.133824237E-1,-2.418104339E-1,6.748485135E-1
1.909180042E0,4.160811415E-1,-6.916073518E-1,1.965301806E-1,8.307035315E-1
1.919144042E0,7.492104658E-1,-5.444249669E-1,4.802417618E-1,1.043238715E0
1.929109042E0,8.694865224E-1,-6.420470828E-1,4.889342326E-1,1.186291681E0
1.939074042E0,6.047614351E-1,-6.298652130E-1,7.803343177E-2,8.766731411E-1
1.949038042E0,3.830084127E-1,-6.749721694E-1,-4.849265510E-1,9.151156394E-1
1.959003042E0,1.458517778E-1,-7.197899079E-1,-1.141040280E0,1.356961007E0
1.968967042E0,-1.978241694E-1,-7.143764095E-1,-1.542131208E0,1.711033816E0
1.978932042E0,-4.544651887E-1,-6.359381311E-1,-1.644698972E0,1.820986167E0
1.988897042E0,-8.110547116E-1,-4.936850588E-1,-1.632323924E0,1.888389810E0
1.998861042E0,-1.365269014E0,-3.912540466E-1,-1.449532946E0,2.029331164E0
2.008826042E0,-1.720901640E0,1.901971344E-3,-1.330564912E0,2.175295166E0
2.018790042E0,-1.760678202E0,5.928290952E-1,-1.402568110E0,2.327795388E0
2.028755042E0,-1.324501057E0,1.174921898E0,-1.435297315E0,2.279215413E0
2.038720042E0,-8.528400841E-1,1.683769628E0,-1.447813865E0,2.378777282E0
2.048684042E0,-7.353110495E-1,2.003851621E0,-1.650326332E0,2.698088335E0
2.058649042E0,-6.144657665E-1,2.090676634E0,-1.892390535E0,2.886111381E0
2.068614042E0,-2.060859928E-1,2.175355573E0,-9.438283145E-1,2.380221669E0
2.078578042E0,1.470700452E-1,2.155018957E0,-9.523757744E-1,2.360668532E0
2.088543042E0,-8.469379047E-1,2.011771237E0,-2.052988991E0,2.996546532E0
2.098507042E0,-2.406002356E0,1.630115139E0,-3.570177730E0,4.603508633E0
2.108472042E0,-3.420456850E0,9.043704262E-1,-5.065313112E0,6.178576523E0
2.118437042E0,-1.368898673E0,1.046642612E0,-2.887985419E0,3.363005221E0
2.128401042E0,7.490599000E-1,7.430933281E-1,-1.805976874E0,2.091609642E0
2.138366042E0,5.032991458E0,1.024990738E0,1.764271023E0,5.430861927E0
2.148330042E0,8.112853843E0,1.525412410E0,6.787767772E0,1.068733231E1
2.158295042E0,8.358291889E0,1.586512159E0,8.657013273E0,1.213762510E1
2.168260042E0,5.469425880E0,1.222823532E0,7.296455653E0,9.200444660E0
2.178224042E0,1.566130520E0,-8.670646057E-1,5.370424333E0,5.660920715E0
2.188189042E0,-2.546634325E0,-2.419986557E0,3.054510612E0,4.655289078E0
2.198153042E0,-3.395789201E0,-1.999911621E0,7.178158879E-1,4.005782126E0
2.208118042E0,-2.148219084E0,-1.612027946E0,-2.804880112E-1,2.700398647E0
2.218083042E0,-1.140007662E0,-1.508381517E0,6.376447141E-2,1.891797605E0
2.228047042E0,-1.537484425E-1,-1.863373289E0,8.069385642E-1,2.036405766E0
2.238012042E0,-8.046178043E-2,-2.137651995E0,8.295327902E-1,2.294374599E0
2.247976042E0,7.677189499E-1,-1.801971823E0,7.828644079E-1,2.109353341E0
2.257941042E0,1.758593377E0,-2.290851092E0,-9.865866637E-1,3.051885095E0
2.267906042E0,2.218188035E0,-2.341411381E0,-2.002898818E0,3.796599675E0
2.277870042E0,1.460142719E0,-1.731783016E0,-1.519063357E0,2.727387515E0
2.287835042E0,-2.855657333E-1,-4.863070786E-1,5.770862710E-1,8.068896622E-1
2.297799042E0,-1.076418023E0,1.816197807E-1,6.276453906E-1,1.259206195E0
2.307764042E0,-2.136967871E0,2.197909892E-2,-2.863632935E-1,2.156181509E0
2.317729042E0,-4.175472724E0,-5.997892553E-1,-7.988407552E-1,4.293304808E0
2.327693042E0,-5.264640015E0,-1.018037375E0,-1.455708776E0,5.556250771E0
2.337658042E0,-3.582639901E0,-9.310468858E-1,-9.667002833E-1,3.825789644E0
2.347623042E0,4.854019296E0,3.192746392E-1,4.354035580E0,6.528481099E0
2.357587042E0,4.370700145E0,1.517562962E0,3.588832687E0,5.855402390E0
2.367552042E0,-9.056202686E-1,7.622079492E-2,1.374181048E0,1.647522756E0
2.377516042E0,-2.410399463E0,-7.770242089E-1,1.257806253E-1,2.535668148E0
2.387481042E0,-1.554308619E0,-4.515716940E-1,-3.583796480E-1,1.657778106E0
2.397446042E0,-2.709283984E-1,3.601042843E-1,5.010303676E-1,6.738758950E-1
2.407410042E0,4.249159920E-1,5.784989583E-1,7.682911000E-1,1.051420876E0
2.417375042E0,1.247187710E-1,4.865222561E-1,6.414044738E-2,5.063325731E-1
2.427339042E0,-1.932808828E-1,6.173835272E-1,-3.541079646E-1,7.375041491E-1
2.437304042E0,-9.099144638E-2,7.319936317E-1,-7.231260368E-1,1.032959527E0
2.447269042E0,-4.322612643E-2,7.854500467E-1,-8.562791240E-1,1.162761460E0
2.457233042E0,-1.099902195E-1,8.972821391E-1,-7.065798783E-1,1.147374485E0
2.467198042E0,-1.706843179E-1,7.249670327E-1,-3.413662970E-1,8.192931610E-1
2.477162042E0,-3.121845978E-1,4.131572413E-1,-5.036791563E-3,5.178643630E-1
2.487127042E0,-5.700567484E-1,-1.158000129E-1,1.950572670E-2,5.820264708E-1
2.497092042E0,-3.669817793E-1,-3.118969148E-1,2.250552374E-1,5.316062187E-1
2.507056042E0,-1.826904058E-1,-2.426290441E-1,4.047454369E-1,5.060271792E-1
2.517021042E0,-4.185027659E-1,-3.519912726E-1,1.433561862E-1,5.653259388E-1
2.526985042E0,-9.269666988E-1,-3.017765540E-1,-6.856035769E-2,9.772598794E-1
2.536950042E0,-5.675816220E-1,-2.310562348E-1,-2.240138483E-1,6.524707545E-1
2.546915042E0,5.117717028E-2,1.298736763E-1,-6.300199449E-2,1.531519698E-1
2.556879042E0,5.179159570E-1,1.850433254E-1,3.464440191E-1,6.500010993E-1
2.566844042E0,7.583634049E-1,1.384158736E-1,6.658034429E-1,1.018610933E0
2.576808042E0,8.913822985E-1,-8.265331686E-2,8.539560252E-1,1.237188290E0
2.586773042E0,6.333990508E-1,-3.846023637E-1,1.318039591E0,1.512065376E0
2.596738042E0,-4.959608316E-2,-5.571098435E-1,1.368910952E0,1.478765818E0
2.606702042E0,-3.237264168E-1,-5.862377483E-1,9.467842282E-1,1.159686969E0
2.616667042E0,-1.336012763E-1,-2.541018659E-1,2.991991013E-1,4.146530616E-1
2.626631042E0,-8.939655983E-1,-1.845562524E-1,-8.206011683E-1,1.227445224E0
2.636596042E0,-1.100292789E0,-2.012559003E-1,-1.269179819E0,1.691734486E0
2.646561042E0,-1.145206422E0,-4.472342294E-1,-1.265405441E0,1.764303583E0
2.656525042E0,-8.447881758E-1,-3.121571159E-1,-6.803486842E-1,1.128708757E0
2.666490042E0,-4.199405962E-1,1.673549134E-1,-4.925800446E-1,6.685752551E-1
2.676455042E0,5.423467934E-2,6.262981921E-1,-5.146935564E-1,8.124655580E-1
2.686419042E0,1.003096277E0,1.190361544E0,-3.888136746E-1,1.604474625E0
2.696384042E0,1.093866699E0,1.446016431E0,3.186564423E-1,1.840937207E0
2.706348042E0,7.637761724E-1,1.267757045E0,5.919615877E-1,1.594045322E0
2.716313042E0,1.106568021E-1,8.711357296E-1,4.814403679E-1,1.001452553E0
2.726278042E0,-5.375778043E-1,6.731829214E-1,6.523416907E-1,1.080608543E0
2.736242042E0,-1.059925951E0,4.237459642E-1,6.037576874E-1,1.291327615E0
2.746207042E0,-1.257046115E0,3.476994163E-1,6.536736864E-1,1.458886256E0
2.756171042E0,-1.048683509E0,2.837759006E-1,1.082258222E0,1.533476026E0
2.766136042E0,-3.619525892E-1,2.568459642E-1,1.844784844E0,1.897422106E0
2.776101042E0,-1.961226296E-1,-9.932548285E-2,2.515471589E0,2.525059792E0
2.786065042E0,3.805894196E-1,-5.592581105E-1,2.513070722E0,2.602526157E0
2.796030042E0,1.411531892E0,-5.180346555E-1,2.094930484E0,2.578665530E0
2.805994042E0,1.889551127E0,-4.700500649E-1,1.555403218E0,2.492113500E0
2.815959042E0,2.331573733E0,-6.027666575E-1,1.089268448E0,2.643117377E0
2.825924042E0,2.300988702E0,-7.152091992E-1,5.033856261E-1,2.461599134E0
2.835888042E0,2.370940697E0,-5.701497191E-1,-5.583547157E-1,2.501637560E0
2.845853042E0,2.274754584E0,-9.725907683E-2,-1.873970636E0,2.948852945E0
2.855817042E0,2.580801068E0,7.433939481E-1,-3.309595395E0,4.262228337E0
2.865782042E0,2.936175539E0,2.003392907E0,-3.352085942E0,4.885815193E0
2.875747042E0,2.615052595E0,2.440747097E0,-2.709987988E0,4.487736775E0
2.885711042E0,1.622762557E0,1.330180165E0,-1.393928264E0,2.519081895E0
2.895676042E0,5.696781412E-1,-1.661284599E0,-3.517988992E-1,1.791134324E0
2.905640042E0,3.971385017E-1,-3.308024248E0,2.381114852E-1,3.340275512E0
2.915605042E0,-1.342126027E0,-3.120782370E0,-2.016517568E-1,3.403123316E0
2.925570042E0,-2.986326231E0,-2.508979425E0,-3.357225645E-1,3.914822059E0
2.935534042E0,-3.615215617E0,-1.703788009E0,-4.369624257E-1,4.020399694E0
2.945499042E0,-3.357279731E0,-1.076409836E0,-9.601103251E-1,3.654011107E0
2.955463042E0,-2.303528148E0,-1.148732293E-1,-6.998074870E-1,2.410221630E0
2.965428042E0,-1.771453451E0,8.556078637E-1,7.210517371E-1,2.095239307E0
2.975393042E0,-1.585437733E0,8.147001582E-1,1.757103799E0,2.502950841E0
2.985357042E0,-1.272225487E0,1.856455886E-1,1.944793135E0,2.331360614E0
2.995322042E0,-4.707371128E-1,1.701808727E-1,1.783322421E0,1.852240216E0
3.005286042E0,-7.027563840E-2,4.137425476E-1,9.430050266E-1,1.032172486E0
3.015251083E0,-1.118893951E-2,5.347980380E-1,6.062627077E-2,5.383397427E-1
3.025216083E0,4.729725033E-2,3.926346838E-1,-4.098336840E-1,5.695284658E-1
3.035180083E0,-6.037454814E-2,1.676045895E-2,-5.362189114E-1,5.398673170E-1
3.045145083E0,-2.851567206E-1,-2.120381659E-1,-3.444920723E-1,4.949235567E-1
3.055110083E0,-2.428165058E0,5.311131227E-1,7.857687199E-1,2.606817826E0
3.065074083E0,-9.081889504E-1,9.403778726E-1,1.306914825E0,1.848551885E0
3.075039083E0,-9.076925218E-2,6.341568500E-1,-8.651974435E-1,1.076550316E0
3.085003083E0,-6.068491834E-1,3.924779785E-1,-1.542822933E-1,7.389911509E-1
3.094968083E0,2.115113318E-2,3.585243666E-1,2.151643798E-2,3.597916744E-1
3.104933083E0,4.387116203E-1,1.162469156E0,-4.639647945E-1,1.326297763E0
3.114897083E0,5.487489098E-1,1.573174075E0,-3.552198127E-2,1.666512481E0
3.124862083E0,5.371600208E-1,1.109561795E0,3.662557013E-1,1.286006028E0
3.134826083E0,3.387482062E-1,5.319270551E-1,9.283388941E-1,1.122278861E0
3.144791083E0,2.111017343E-1,-7.528465569E-2,1.941255862E0,1.954150978E0
3.154756083E0,2.050878730E-1,-4.964321172E-1,2.217491047E0,2.281616188E0
3.164720083E0,2.449690998E-1,-3.256138980E-1,1.862211885E0,1.906270541E0
3.174685083E0,1.045526013E-1,1.416546464E-1,1.253205664E0,1.265512435E0
3.184649083E0,1.621412435E-1,7.935496098E-1,2.430582297E-1,8.456288010E-1
3.194614083E0,2.862042493E-1,1.366550431E0,-8.526234448E-1,1.635952228E0
3.204579083E0,2.150966983E-1,1.362683668E0,-1.059078104E0,1.739200908E0
3.214543083E0,2.212054306E-1,8.713824821E-1,-8.408904219E-1,1.230989835E0
3.224508083E0,4.290565516E-1,4.069586080E-1,-5.341501665E-1,7.968821955E-1
3.234472083E0,5.359114940E-1,1.278634036E-1,-2.344300600E-1,5.987550688E-1
3.244437083E0,5.402762944E-1,2.543363392E-2,3.368288577E-1,6.371805265E-1
3.254402083E0,7.598750563E-1,-2.758038068E-1,5.389810995E-1,9.715855426E-1
3.264366083E0,3.255652200E-1,-6.347059035E-1,4.192547178E-1,8.274169534E-1
3.274331083E0,2.527912125E-2,-7.727984262E-1,3.425556207E-1,8.456954503E-1
3.284295083E0,4.611554267E-1,-7.922953820E-1,2.514852186E-1,9.506003972E-1
3.294260083E0,7.027816001E-1,-5.315651125E-1,8.334639464E-3,8.812110488E-1
3.304225083E0,8.958913788E-1,8.378592253E-2,-5.793853962E-1,1.070200393E0
3.314189083E0,1.084673195E0,5.513631999E-1,-1.010804662E0,1.581848090E0
3.324154083E0,1.161892840E0,7.202559310E-1,-9.240799284E-1,1.650056754E0
3.334118083E0,1.527320503E0,5.075318867E-1,-1.159195300E0,1.983439003E0
3.344083083E0,1.776938724E0,-1.443864655E-1,-1.402966890E0,2.268628391E0
3.354048083E0,1.200457786E0,-5.652427357E-1,-1.064694940E0,1.701227075E0
3.364012083E0,6.900771354E-1,-1.467007935E-1,-4.989265394E-1,8.640921637E-1
3.373977083E0,1.096421932E0,2.039409417E-1,-2.388470650E-1,1.140517813E0
3.383942083E0,1.515639666E0,3.069893467E-1,-1.103997585E0,1.900057032E0
3.393906083E0,1.312235645E0,1.236639333E-1,-1.410018632E0,1.930131524E0
3.403871083E0,5.233060665E-1,-4.790150160E-1,-1.422144588E0,1.589276519E0
3.413835083E0,-2.577037507E-1,1.916249514E-1,-1.451206419E0,1.486314710E0
3.423800083E0,-6.923453435E-1,2.832699410E0,-3.280111834E-1,2.934470883E0
3.433765083E0,-1.096560511E-1,3.470085093E0,9.598146021E-1,3.602049288E0
3.443729083E0,6.555499848E-1,3.495391257E0,1.470877622E0,3.848504489E0
3.453694083E0,7.341370017E-1,3.428572201E0,6.858760571E-1,3.572742705E0
3.463658083E0,-1.865250099E-1,3.469614392E0,6.035811015E-1,3.526659291E0
3.473623083E0,-9.967650582E-1,3.342774836E0,6.732109150E-1,3.552590199E0
3.483588083E0,-9.571650825E-1,3.045473156E0,2.080966309E-1,3.199121121E0
3.493552083E0,-8.570701061E-1,3.333879467E0,-9.251808129E-2,3.443527415E0
3.503517083E0,-4.062432743E-1,4.053247206E0,-1.083768996E-1,4.074995958E0
3.513481083E0,4.979855032E-1,3.714826151E0,-1.056487349E-1,3.749544579E0
3.523446083E0,1.546491476E0,7.815335816E-1,2.437470317E-2,1.732923758E0
3.533411083E0,2.920101836E0,-3.722014133E0,6.067948043E-4,4.730791087E0
3.543375083E0,3.128783992E0,-9.263099395E0,2.121790838E-1,9.779535758E0
3.553340083E0,1.183863241E0,-1.201108142E1,-3.897300795E-2,1.206934663E1
3.563304083E0,-2.499868879E0,-1.073319115E1,1.271205587E0,1.109354318E1
3.573269083E0,-4.158150932E0,-7.204079586E0,2.394944687E0,8.655907920E0
3.583234083E0,-3.088716532E0,-3.419402012E0,2.732880130E0,5.357342041E0
3.593198083E0,-1.682514085E0,-4.964818186E-1,2.068092349E0,2.711891186E0
3.603163083E0,-1.174708110E0,1.610806171E0,8.625439771E-1,2.172237965E0
3.613127083E0,-1.077041774E0,2.969229557E0,-2.365444314E-1,3.167380055E0
3.623092083E0,-1.259130940E0,3.537231009E0,-1.002811518E0,3.886263614E0
3.633057083E0,-1.680403094E0,3.588713404E0,-1.612812789E0,4.278292129E0
3.643021083E0,-1.906782579E0,3.333167861E0,-2.111830545E0,4.382425817E0
3.652986083E0,-1.733255783E0,2.857185795E0,-2.266186659E0,4.037733059E0
3.662951083E0,-9.589281642E-1,2.239247952E0,-2.113266621E0,3.224852001E0
3.672915083E0,4.953366414E-2,1.673711686E0,-1.271610360E0,2.102559702E0
3.682880083E0,2.935553688E-1,1.032980227E0,-3.114835167E-1,1.118143499E0
3.692844083E0,1.576472197E-1,1.282659259E0,1.014420287E-1,1.296286197E0
3.702809083E0,1.594097167E-3,3.153637290E0,1.765251017E-1,3.158574332E0
3.712774083E0,-5.202343780E-1,5.038867909E0,5.954022355E-1,5.100523251E0
3.722738083E0,-1.246714378E0,6.007273825E0,7.154780249E-1,6.176855540E0
3.732703083E0,-1.857712014E0,6.174331700E0,4.745724477E-2,6.447923547E0
3.742667083E0,-1.641057472E0,6.303427697E0,-1.067908570E0,6.600507486E0
3.752632083E0,-1.075381311E0,6.366385837E0,-1.246553872E0,6.575804905E0
3.762597083E0,-1.644985777E0,8.338599637E0,-4.334059153E0,9.540560300E0
3.772561083E0,1.596380505E-1,9.463180005E0,-5.635523057E0,1.101527940E1
3.782526083E0,1.926329236E0,5.567670797E0,6.456308413E-1,5.926764852E0
3.792490083E0,2.028146218E-1,3.849869936E0,-2.867660205E-1,3.865859160E0
3.802455083E0,-6.145509897E-1,3.548248917E0,2.004391904E-1,3.606649299E0
3.812420083E0,-1.433954794E0,2.844867466E0,3.331100285E-1,3.203195208E0
3.822384083E0,-3.270582480E0,1.465010526E0,8.411443372E-1,3.681098939E0
3.832349083E0,-2.930472165E0,-1.745828905E0,4.995616932E-1,3.447484237E0
3.842313083E0,-8.478453925E-1,-6.857367765E0,-1.250049337E0,7.021748914E0
3.852278083E0,7.704930152E-1,-1.013334167E1,-1.869384080E0,1.033309584E1
3.862243083E0,1.231120877E0,-1.035107795E1,-1.891387006E0,1.059423514E1
3.872207083E0,1.211662513E0,-9.272717480E0,-1.580292914E0,9.484131020E0
3.882172083E0,1.008259807E0,-7.088128130E0,-1.468225325E0,7.308476848E0
3.892136083E0,1.524600378E0,-1.190214195E0,-3.279459138E-1,1.961775895E0
3.902101083E0,3.560190686E0,5.033320656E0,2.679347117E0,6.722215075E0
3.912066083E0,1.681018367E1,-6.163504996E0,2.204705672E0,1.803972827E1
3.922030083E0,2.098111720E1,-2.226817122E1,-1.182158413E0,3.061823357E1
3.931995083E0,1.403941153E1,-3.178266698E1,-5.044612799E0,3.510970115E1
3.941959083E0,2.393990421E0,-3.170847517E1,-5.367290225E0,3.224850992E1
3.951924083E0,-4.725142570E0,-2.306942220E1,-1.944095270E0,2.362847264E1
3.961889083E0,-2.202337111E0,-1.268009879E1,-9.506428058E-1,1.290499577E1
3.971853083E0,-3.853157240E-1,-7.692992184E0,-6.611971526E-1,7.730962335E0
3.981818083E0,-1.477515382E-1,-6.183641637E0,5.677235632E-1,6.211405997E0
3.991783083E0,7.509929895E-2,-4.216933576E0,2.735169607E0,5.026860001E0
4.001747083E0,9.825351280E-1,-2.132673091E0,3.643880714E0,4.334920582E0
4.011711542E0,2.138623218E0,1.583234795E0,4.291765949E0,5.049712531E0
4.021675542E0,2.181443840E0,4.912711308E0,3.987129230E0,6.692580154E0
4.031640542E0,3.130745441E-2,6.347999268E0,3.156909100E0,7.089721428E0
4.041605542E0,-2.571251395E0,7.476463357E0,2.035561657E0,8.164089007E0
4.051569542E0,-4.206309185E0,8.753002335E0,5.915300632E-1,9.729234022E0
4.061534542E0,-5.619087703E0,9.236857676E0,-4.585784125E-1,1.082145926E1
4.071498542E0,-6.231643184E0,9.593663546E0,-5.468014947E-1,1.145297991E1
4.081463542E0,-5.921510959E0,9.833970076E0,7.628404717E-1,1.150448543E1
4.091428542E0,-4.874400643E0,9.323258473E0,1.770253894E0,1.066849235E1
4.101392542E0,-4.133333302E0,8.072045540E0,2.210249709E0,9.334214866E0
4.111357542E0,-4.449389342E0,7.571683509E0,2.543403153E0,9.143104302E0
4.121321542E0,-4.944543550E0,7.504342881E0,2.600370821E0,9.355511819E0
4.131286542E0,-5.538066929E0,6.868683881E0,2.224980161E0,9.099425272E0
4.141251542E0,-5.932656922E0,6.333516299E0,1.956980195E0,8.896045096E0
4.151215542E0,-6.192470348E0,6.951225516E0,1.746433653E0,9.471866537E0
4.161180542E0,-5.449673985E0,7.648431723E0,1.499888144E0,9.510369016E0
4.171144542E0,-4.543249725E0,8.730965933E0,1.553473052E0,9.964143852E0
4.181109542E0,-3.763924636E0,1.005987257E1,1.716802303E0,1.087729631E1
4.191074542E0,-3.690907823E0,9.485485963E0,1.447196545E0,1.028064309E1
4.201038542E0,-3.927268067E0,8.130087926E0,1.549492267E0,9.160932837E0
4.211003542E0,-3.289678902E0,6.632522442E0,1.346343770E0,7.524957327E0
4.220968542E0,-2.478177463E0,5.865534394E0,1.621756982E0,6.570841117E0
4.230932542E0,-1.655919194E0,5.391583067E0,2.320054718E0,6.098679385E0
4.240897542E0,-1.190509771E0,5.041799703E0,2.316090306E0,5.674621756E0
4.250861542E0,-1.119379270E0,4.958100904E0,1.391944596E0,5.270036460E0
4.260826542E0,-1.138546151E0,4.936999472E0,3.358172894E-1,5.077698729E0
4.270791542E0,-8.967360091E-1,4.333679084E0,-2.981451407E-1,4.435515798E0
4.280755542E0,-2.775021306E-1,2.735937347E0,1.439596188E-1,2.753740178E0
4.290720542E0,5.774628317E-1,2.281788200E-1,3.996384788E-1,7.384035547E-1
4.300684542E0,1.462554988E0,-3.196129006E0,-7.126188827E-1,3.586381657E0
4.310649542E0,1.215619177E0,-6.074039088E0,-2.027633125E0,6.517896663E0
4.320614542E0,8.561268041E-1,-9.526857938E0,-4.083833406E0,1.040056107E1
4.330578542E0,1.996376833E0,-1.268622199E1,-4.480908465E0,1.360162819E1
4.340543542E0,3.150833842E0,-1.559983108E1,-3.468353148E0,1.628839946E1
4.350507542E0,4.340020097E0,-1.842649324E1,-3.188456290E0,1.919733526E1
4.360472542E0,7.084260197E0,-2.111558211E1,-4.503210915E0,2.272297205E1
4.370437542E0,9.582532786E0,-2.241937087E1,-5.968193375E0,2.510124413E1
4.380401542E0,9.807397404E0,-2.162912201E1,-4.690307783E0,2.420749780E1
4.390366542E0,7.219130319E0,-2.097154414E1,-2.621376944E-1,2.218085260E1
4.400330542E0,6.540221804E0,-1.874931684E1,8.219151107E-1,1.987427805E1
4.410295542E0,6.389819723E0,-1.499485359E1,8.783688084E-1,1.632320318E1
4.420260542E0,5.911546134E0,-1.136694864E1,2.091549039E-2,1.281227288E1
4.430224542E0,6.898836218E0,-8.360329644E0,-7.998650412E-1,1.086870908E1
4.440189542E0,7.306789438E0,-5.868452740E0,-6.020900615E-1,9.390975556E0
4.450153542E0,5.947127026E0,-2.196374413E0,-2.116877715E-1,6.343279289E0
4.460118542E0,4.301259781E0,4.896341443E-1,9.206290479E-1,4.425848522E0
4.470083542E0,2.683016244E0,1.964225918E0,1.864278145E0,3.812124425E0
4.480047542E0,5.411454830E-1,2.766491387E0,2.159584901E0,3.551073074E0
4.490012542E0,-1.585031644E0,3.116016889E0,2.308634083E0,4.189472269E0
4.499976542E0,-3.522361832E0,2.691285084E0,1.571639181E0,4.703200825E0
4.509941542E0,-6.471017668E0,3.498317204E0,2.796068358E0,7.869580115E0
4.519906542E0,-7.501872432E0,5.532543064E0,3.944772584E0,1.012167741E1
4.529870542E0,-7.163597558E0,6.766317846E0,4.452858202E0,1.081333128E1
4.539835542E0,-7.419660580E0,7.582463436E0,4.708400238E0,1.160664239E1
4.549800542E0,-7.260615730E0,8.438084748E0,4.146567013E0,1.187905017E1
4.559764542E0,-7.028599967E0,9.703863096E0,3.670225929E0,1.253142988E1
4.569729542E0,-6.312830604E0,1.057851593E1,3.062592634E0,1.269394750E1
4.579693542E0,-5.064358261E0,1.122220081E1,2.175909012E0,1.250280351E1
4.589658542E0,-4.250210080E0,1.202961476E1,1.102755782E0,1.280593562E1
4.599623542E0,-4.829783172E0,1.255802530E1,1.045518411E0,1.349532932E1
4.609587542E0,-4.982555130E0,1.272204671E1,1.222802335E0,1.371756442E1
4.619552542E0,-4.799806544E0,1.238286610E1,1.164579343E0,1.333153258E1
4.629516542E0,-4.595667089E0,1.162124288E1,8.194603765E-1,1.252377568E1
4.639481542E0,-4.361070658E0,1.115926840E1,3.051193341E-1,1.198504511E1
4.649446542E0,-4.118884833E0,1.118834310E1,-4.473353863E-1,1.193081483E1
4.659410542E0,-3.564817295E0,1.118800630E1,-8.794177258E-1,1.177509162E1
4.669375542E0,-2.841441290E0,1.117886125E1,-9.673762214E-1,1.157482372E1
4.679339542E0,-2.762282269E0,1.114853408E1,-9.382927555E-1,1.152390597E1
4.689304542E0,-3.160746042E0,1.080372845E1,-7.873293418E-1,1.128409285E1
4.699269542E0,-3.732751083E0,9.841615895E0,-3.110859060E-1,1.053031854E1
4.709233542E0,-3.894199724E0,8.359153184E0,1.677735374E-1,9.223252214E0
4.719198542E0,-3.854222310E0,6.997025002E0,4.346089214E-1,8.000142087E0
4.729162542E0,-4.173939584E0,5.557936352E0,3.438788456E-1,6.959215531E0
4.739127542E0,-4.392452664E0,3.892749322E0,-2.875800991E-1,5.876209663E0
4.749092542E0,-4.197773712E0,1.796599694E0,-1.127826743E0,4.703303919E0
4.759056542E0,1.144446284E-1,-2.560333766E0,-1.926263455E0,3.206071968E0
4.769021542E0,9.660316542E0,-1.515013692E1,-4.391318012E0,1.849681157E1
4.778986542E0,9.984618909E0,-2.672209596E1,-6.043466921E0,2.915967283E1
4.788950542E0,3.690817484E0,-3.077093963E1,-5.971704043E0,3.156159230E1
4.798915542E0,2.392228363E0,-3.137233043E1,-3.607128625E0,3.166950032E1
4.808879542E0,6.997323210E0,-3.169823318E1,3.321217760E-1,3.246306862E1
4.818844542E0,9.735518167E0,-2.909152106E1,3.216320611E0,3.084544747E1
4.828809542E0,1.283276491E1,-2.380342084E1,3.329057268E0,2.724638180E1
4.838773542E0,1.570729238E1,-1.678409339E1,5.055982125E-1,2.299305231E1
4.848738542E0,1.423033248E1,-1.199418297E1,-2.652554297E0,1.879890507E1
4.858702542E0,9.147953686E0,-1.058442395E1,-2.507045166E0,1.421268316E1
4.868667542E0,4.011279985E0,-8.704689716E0,-1.440686109E0,9.692139424E0
4.878632542E0,8.869933784E-2,-6.018038549E0,-7.655864704E-1,6.067188657E0
4.888596542E0,-3.204986953E0,-3.645707384E0,-8.555645943E-3,4.854193744E0
4.898561542E0,-4.994138464E0,-1.992659758E0,6.437199712E-1,5.415393551E0
4.908525542E0,-3.332662076E0,-3.191509706E-1,1.589329348E0,3.706003458E0
4.918490542E0,-2.094616488E0,1.549332638E0,1.779315909E0,3.154966713E0
4.928455542E0,-2.493093710E0,3.505712178E0,1.164192331E0,4.456554488E0
4.938419542E0,-2.795036325E0,5.537010337E0,7.684200311E-1,6.249894469E0
4.948384542E0,-3.387254021E0,6.926688260E0,4.811416483E-1,7.725541880E0
4.958348542E0,-4.010114635E0,7.882156627E0,7.862398228E-2,8.843958062E0
4.968313542E0,-4.077808435E0,8.661112171E0,-4.194921513E-1,9.582241875E0
4.978278542E0,-3.963114715E0,9.250459469E0,-6.452431709E-1,1.008432533E1
4.988242542E0,-3.739757217E0,9.554692438E0,-7.544744217E-1,1.028820506E1
4.998207542E0,-3.618452927E0,9.690129740E0,-8.523077682E-1,1.037874002E1
5.008172542E0,-3.680222914E0,9.695672901E0,-1.025355458E0,1.042120279E1
5.018136542E0,-3.809041167E0,9.713908612E0,-1.240544688E0,1.050750999E1
5.028101542E0,-3.943803701E0,9.820261863E0,-1.512993509E0,1.069019551E1
5.038065542E0,-4.093859919E0,9.903893420E0,-1.625888040E0,1.083929453E1
5.048030542E0,-4.221173684E0,1.001559278E1,-1.624182261E0,1.098946650E1
5.057995542E0,-4.285722852E0,1.008981734E1,-1.495403768E0,1.106381791E1
5.067959542E0,-4.206207736E0,1.017024813E1,-1.464607068E0,1.110275661E1
5.077924542E0,-4.093267596E0,1.016294963E1,-1.431062762E0,1.104935860E1
5.087888542E0,-4.002154820E0,1.015501379E1,-1.244555293E0,1.098592127E1
5.097853542E0,-3.910809909E0,1.010454530E1,-1.056252730E0,1.088631893E1
5.107818542E0,-3.700290558E0,1.001220490E1,-8.883715671E-1,1.071100375E1
5.117782542E0,-3.361410497E0,9.921562536E0,-7.531943931E-1,1.050256090E1
5.127747542E0,-3.085104707E0,9.775130129E0,-6.350303509E-1,1.027006834E1
5.137712542E0,-2.885460591E0,9.561557069E0,-4.461086404E-1,9.997413132E0
5.147676542E0,-2.763823888E0,9.321479166E0,-2.943400651E-1,9.727041297E0
5.157641542E0,-2.769009199E0,9.011920552E0,-1.181266201E-1,9.428471662E0
5.167605542E0,-2.766135584E0,8.724205967E0,1.106053466E-1,9.152896229E0
5.177570542E0,-2.580436201E0,8.278169248E0,5.100561297E-1,8.686017173E0
5.187535542E0,-2.508409030E0,7.794777006E0,7.845139074E-1,8.225942287E0
5.197499542E0,-2.536604596E0,7.510007663E0,8.461178327E-1,7.971856331E0
5.207464542E0,-2.472578754E0,7.425456340E0,8.677022445E-1,7.874258996E0
5.217428542E0,3.196163505E0,-3.316307414E0,2.200867413E0,5.104622747E0
5.227393542E0,1.202678236E1,-2.526723854E1,5.730208189E0,2.856417552E1
5.237358542E0,1.152855515E1,-3.917116424E1,8.947719294E0,4.180130826E1
5.247322542E0,2.230855443E0,-4.520457161E1,1.165574145E1,4.673634901E1
5.257287542E0,6.716228843E-1,-4.320054837E1,1.052190552E1,4.446851642E1
5.267251542E0,8.406755952E0,-3.485984140E1,6.119959611E0,3.637768538E1
5.277216542E0,1.242473918E1,-2.773374145E1,1.063996855E0,3.040833188E1
5.287181542E0,1.617239745E1,-1.865799971E1,-6.259050254E0,2.547239884E1
5.297145542E0,2.151088429E1,-7.889051664E0,-1.611119581E1,2.800938967E1
5.307110542E0,1.941815295E1,-3.266178650E-1,-1.553114267E1,2.486740307E1
5.317075542E0,1.441673821E1,1.787289172E0,-8.379306782E0,1.677049568E1
5.327039542E0,9.329737773E0,5.470988256E-1,-4.503159460E0,1.037409124E1
5.337004542E0,2.930267513E0,8.411921382E-2,-2.779077519E0,4.039407827E0
5.346968542E0,-1.735380515E-1,1.135406488E0,-1.587547116E0,1.959481869E0
5.356933542E0,-2.674881306E0,2.249234412E0,2.995189806E-1,3.507671173E0
5.366898542E0,-4.582799706E0,3.239800690E0,1.721180552E0,5.870334246E0
5.376862542E0,-4.424369106E0,3.618210853E0,2.833792255E0,6.379409871E0
5.386827542E0,-4.362990591E0,3.994009064E0,2.872873875E0,6.575804103E0
5.396791542E0,-4.726533623E0,4.463870848E0,1.632986999E0,6.703201442E0
5.406756542E0,-5.570349407E0,5.244722645E0,6.276494837E-1,7.676578144E0
5.416721542E0,-5.708536654E0,6.198585366E0,9.388053736E-2,8.427257254E0
5.426685542E0,-5.614806372E0,7.248780965E0,-1.224775515E-1,9.169835158E0
5.436650542E0,-5.720687753E0,8.221759989E0,-6.913256621E-1,1.003999686E1
5.446614542E0,-5.828271258E0,8.969869131E0,-1.066415775E0,1.075009492E1
5.456579542E0,-5.786274801E0,9.495122759E0,-1.323864588E0,1.119781004E1
5.466544542E0,-5.702312293E0,9.835535960E0,-1.748627967E0,1.150268807E1
5.476508542E0,-5.520058674E0,9.968887560E0,-1.937780716E0,1.155875257E1
5.486473542E0,-5.329673917E0,9.887357494E0,-1.884052405E0,1.138924562E1
5.496438542E0,-5.227583871E0,9.704726729E0,-1.697140310E0,1.115301032E1
5.506402542E0,-5.096843637E0,9.571096802E0,-1.403879056E0,1.093410195E1
5.516367542E0,-4.865196834E0,9.488377411E0,-1.148469168E0,1.072466445E1
5.526331542E0,-4.608193287E0,9.445069424E0,-9.553403127E-1,1.055260427E1
5.536296542E0,-4.360891148E0,9.403141964E0,-7.626950222E-1,1.039317825E1
5.546261542E0,-4.127405103E0,9.360371336E0,-5.329900789E-1,1.024383243E1
5.556225542E0,-3.919326379E0,9.298672101E0,-1.868688262E-1,1.009263801E1
5.566190542E0,-3.702806615E0,9.277025709E0,-1.108400026E-2,9.988698898E0
5.576154542E0,-3.496752489E0,9.182414251E0,1.548120328E-1,9.826900641E0
5.586119542E0,-3.249173485E0,9.142744986E0,3.614374495E-1,9.709662777E0
5.596084542E0,-3.085485068E0,9.070855808E0,5.142064468E-1,9.595053490E0
5.606048542E0,-3.088926447E0,8.887447949E0,6.390620792E-1,9.430620233E0
5.616013542E0,-3.017413830E0,8.570701938E0,6.103931808E-1,9.106826987E0
5.625978542E0,-1.540704195E0,6.845531246E0,9.084175035E-1,7.075329661E0
5.635942542E0,4.416933494E0,-3.079601015E0,2.846638588E0,6.090697427E0
5.645907542E0,7.829902400E0,-1.396782641E1,5.493708197E0,1.692892129E1
5.655871542E0,7.135768905E0,-2.216858613E1,6.506410865E0,2.418054571E1
5.665836542E0,1.491172723E0,-2.580177930E1,6.062894880E0,2.654645184E1
5.675801542E0,-3.094448850E0,-2.748983304E1,4.443088675E0,2.801798656E1
5.685765542E0,1.805701762E0,-2.782689227E1,2.715963258E0,2.801736870E1
5.695730542E0,8.360548915E0,-2.544270880E1,-8.092581546E-1,2.679337806E1
5.705694542E0,1.382950117E1,-2.046107285E1,-4.792639904E0,2.515710640E1
5.715659542E0,1.710561073E1,-1.253503170E1,-6.385221473E0,2.214723440E1
5.725624542E0,1.777041108E1,-1.011258639E1,-3.020985017E0,2.066829127E1
5.735588542E0,1.539994752E1,-9.836735809E0,-7.156383117E-1,1.828747914E1
5.745553542E0,1.073477692E1,-8.784269736E0,-4.212706916E-1,1.387718629E1
5.755518542E0,5.408387965E0,-8.054098681E0,-1.240911309E0,9.780543278E0
5.765482542E0,2.161413033E0,-5.627500677E0,-2.773568273E0,6.635747971E0
5.775447542E0,3.787399453E-1,-2.836227036E0,-3.811073660E0,4.765701437E0
5.785411542E0,-2.326041390E0,-9.131555754E-1,-2.832473123E0,3.777198121E0
5.795376542E0,-4.275111325E0,4.012324297E-1,-1.368144382E0,4.506593320E0
5.805341542E0,-5.020355040E0,7.602865541E-1,-6.864397287E-2,5.078061871E0
5.815305542E0,-5.025827449E0,1.679541360E0,7.864890238E-1,5.357085561E0
5.825270542E0,-4.916351784E0,3.276858004E0,1.036962765E0,5.998633597E0
5.835234542E0,-4.636802251E0,4.516427377E0,7.450019324E-1,6.515602754E0
5.845199542E0,-4.641703972E0,5.592807392E0,1.278915250E-1,7.269199855E0
5.855164542E0,-5.167938178E0,6.500049094E0,-2.271374126E-1,8.307214614E0
5.865128542E0,-5.392929096E0,7.170313085E0,-3.730371559E-1,8.979767853E0
5.875093542E0,-5.295080620E0,7.858273090E0,-3.819290167E-1,9.483470067E0
5.885058542E0,-5.295396370E0,8.425790393E0,-3.529665881E-1,9.957898969E0
5.895022542E0,-5.215764894E0,8.849330535E0,-6.126110297E-1,1.029029381E1
5.904987542E0,-5.194199193E0,9.229695421E0,-6.467809886E-1,1.061062244E1
5.914951542E0,-5.173498296E0,9.566107957E0,-6.177255893E-1,1.089298357E1
5.924916542E0,-5.114258984E0,9.797974032E0,-6.865566730E-1,1.107372115E1
5.934881542E0,-5.144062243E0,9.967041010E0,-7.631493509E-1,1.124213858E1
5.944845542E0,-5.226130253E0,1.009498627E1,-8.167086768E-1,1.139685037E1
5.954810542E0,-5.179625008E0,1.020305685E1,-7.668143857E-1,1.146816850E1
5.964774542E0,-5.182825774E0,1.019782476E1,-6.325862879E-1,1.145676561E1
5.974739542E0,-5.193865317E0,9.910473876E0,-4.900329610E-1,1.119972596E1
5.984704542E0,-5.188836127E0,9.554062693E0,-4.809838100E-1,1.088280661E1
5.994668542E0,-5.176206141E0,9.326186174E0,-5.030085172E-1,1.067819630E1
6.004633542E0,-5.101086377E0,9.150888988E0,-4.285436046E-1,1.048539466E1
6.014599042E0,-5.151772381E0,9.070609640E0,-3.309389573E-1,1.043677338E1
6.024563042E0,-5.356093392E0,8.896269643E0,-1.480637795E-1,1.038524303E1
6.034528042E0,-5.821563917E0,8.433092980E0,4.576212233E-1,1.025753776E1
6.044492042E0,-6.596034647E0,7.627499861E0,1.208121293E0,1.015608115E1
6.054457042E0,-6.734271596E0,6.657181320E0,1.325525197E0,9.561667956E0
6.064422042E0,-6.418659945E0,5.566994859E0,1.242333936E0,8.586851627E0
6.074386042E0,-5.274837559E0,3.750427508E0,1.276128504E0,6.596826641E0
6.084351042E0,-5.574931285E-1,-2.058538583E0,3.648428679E-1,2.163675115E0
6.094315042E0,5.785452683E0,-1.433692371E1,-2.352200956E0,1.563814866E1
6.104280042E0,1.140872933E1,-2.764160103E1,-4.578294427E0,3.025190890E1
6.114245042E0,1.780783092E1,-3.652656449E1,-5.497250440E0,4.100644484E1
6.124209042E0,2.088708695E1,-3.717447341E1,-4.379324788E0,4.286479162E1
6.134174042E0,2.195298057E1,-3.003166914E1,-1.154985305E0,3.721785187E1
6.144139042E0,2.225769068E1,-1.884038606E1,-3.847701422E-1,2.916355584E1
6.154103042E0,2.226247838E1,-9.366210365E0,-1.188763500E0,2.418174929E1
6.164068042E0,2.109006018E1,-8.237127056E0,1.274661437E0,2.267742627E1
6.174032042E0,1.601024013E1,-8.111606632E0,3.434509463E0,1.827352747E1
6.183997042E0,9.883090196E0,-6.812430158E0,3.274489882E0,1.244214453E1
6.193962042E0,5.954858215E0,-4.190638062E0,1.636080176E0,7.463145588E0
6.203926042E0,2.320813687E0,-1.972118490E0,6.237459556E-1,3.108775727E0
6.213891042E0,-1.350521459E0,-1.445797160E0,-6.676268240E-1,2.088052494E0
6.223855042E0,-3.648229288E0,-8.488338643E-1,-5.275825008E-1,3.782649755E0
6.233820042E0,-1.819451197E0,1.211307440E0,-6.808019165E-2,2.186847797E0
6.243785042E0,-1.169215089E0,3.590369335E0,1.782746617E-1,3.780158428E0
6.253749042E0,-2.467909167E0,5.143527222E0,1.053516233E-1,5.705922091E0
6.263714042E0,-3.915666899E0,6.051712664E0,5.617299479E-2,7.208247279E0
6.273679042E0,-4.804089922E0,6.595157565E0,4.169298649E-2,8.159480473E0
6.283643042E0,-5.371345269E0,6.960367638E0,1.241761676E-1,8.792808844E0
6.293608042E0,-5.737065219E0,7.254978429E0,2.209276879E-1,9.251888368E0
6.303572042E0,-6.012754421E0,7.398329353E0,2.574108052E-1,9.537020146E0
6.313537042E0,-6.374556736E0,7.407320616E0,4.612283707E-2,9.772691523E0
6.323502042E0,-6.770182271E0,7.554793827E0,-3.318341660E-1,1.014989614E1
6.333466042E0,-6.774845425E0,7.687353714E0,-5.733171558E-1,1.026268143E1
6.343431042E0,-6.286771903E0,7.695164425E0,-6.883593696E-1,9.960567007E0
6.353396042E0,-5.999326875E0,7.859080591E0,-8.257543194E-1,9.921640029E0
6.363360042E0,-5.810378194E0,8.065344046E0,-1.034842565E0,9.994056658E0
6.373325042E0,-5.626482092E0,8.401879959E0,-1.389191435E0,1.020679873E1
6.383289042E0,-5.706669638E0,8.648816646E0,-1.682524610E0,1.049757100E1
6.393254042E0,-5.743531655E0,8.766670201E0,-1.709460393E0,1.061908269E1
6.403219042E0,-5.513926699E0,8.855323931E0,-1.413418204E0,1.052700815E1
6.413183042E0,-5.306786746E0,8.848110806E0,-9.823204621E-1,1.036416923E1
6.423148042E0,-4.979664266E0,8.845718710E0,-5.222230160E-1,1.016447306E1
6.433113042E0,-4.645094188E0,8.818617450E0,-3.114367390E-1,9.972056287E0
6.443077042E0,-4.198645824E0,8.727917780E0,-7.496240102E-2,9.685597291E0
6.453042042E0,-3.956561156E0,8.630300269E0,2.739959208E-1,9.497975188E0
6.463006042E0,-4.066646977E0,8.474242176E0,6.827431190E-1,9.424252557E0
6.472971042E0,-4.312338501E0,8.133200984E0,1.257144349E0,9.291158889E0
6.482936042E0,-4.358645233E0,7.231977822E0,2.088722787E0,8.698393780E0
6.492900042E0,-3.122938238E0,5.497675533E0,2.418235462E0,6.769419639E0
6.502865042E0,-1.611795520E0,2.315739473E0,2.256676748E0,3.612910745E0
6.512829042E0,6.268682957E-2,-9.731673038E-1,2.596063470E0,2.773180445E0
6.522794042E0,5.067887056E-1,-5.882243398E0,4.193134239E0,7.241546584E0
6.532759042E0,6.041115171E-1,-1.248966433E1,6.340584998E0,1.401997446E1
6.542723042E0,5.257647915E0,-2.171108594E1,8.273653443E0,2.382157542E1
6.552688042E0,1.294530276E1,-3.092946700E1,7.609583992E0,3.438195109E1
6.562653042E0,1.479707970E1,-3.272300918E1,3.366791689E0,3.607054455E1
6.572617042E0,1.392709471E1,-2.858126261E1,1.547408320E0,3.183154115E1
6.582582042E0,1.384673058E1,-2.492017121E1,1.098925783E0,2.852988816E1
6.592546042E0,1.396706393E1,-1.978610770E1,-1.690198495E0,2.427809103E1
6.602511042E0,1.311604380E1,-1.282214052E1,-2.463277588E0,1.850690760E1
6.612476042E0,1.261711960E1,-7.059285570E0,1.183570004E0,1.450606968E1
6.622440042E0,1.195951833E1,-4.187035593E0,3.130640191E0,1.305228922E1
6.632405042E0,1.080456694E1,-2.173015371E0,3.097107579E0,1.144782678E1
6.642369042E0,9.222247238E0,-3.396203184E-1,2.586540402E0,9.584121104E0
6.652334042E0,7.376343822E0,1.413341605E0,-5.218290051E-2,7.510706074E0
6.662299042E0,6.224916548E0,3.469285778E0,-5.799704686E0,9.188150210E0
6.672263042E0,4.556403621E0,4.416513079E0,-1.130875832E1,1.296743677E1
6.682228042E0,2.767712871E0,4.073918867E0,-1.143072539E1,1.244662735E1
6.692193042E0,1.385860276E-1,3.377095653E0,-7.024433241E0,7.795296241E0
6.702157042E0,-2.643308095E0,3.359917703E0,-2.853834171E0,5.140086977E0
6.712122042E0,-5.461110554E0,3.850799058E0,-6.049247917E-1,6.709568978E0
6.722086042E0,-7.948782141E0,4.479679381E0,8.726818796E-1,9.165819033E0
6.732051042E0,-9.374208187E0,5.405218774E0,1.332738322E0,1.090267676E1
6.742016042E0,-9.857144930E0,6.477574736E0,1.357853283E0,1.187291229E1
6.751980042E0,-9.744163860E0,7.568657575E0,1.025794730E0,1.238085464E1
6.761945042E0,-9.236817915E0,8.410159616E0,7.928859508E-1,1.251711860E1
6.771910042E0,-8.541320849E0,9.014440702E0,4.578475106E-1,1.242674243E1
6.781874042E0,-7.852597198E0,9.488182114E0,1.476492850E-1,1.231708906E1
6.791839042E0,-7.449763801E0,9.786308836E0,8.388342485E-3,1.229922321E1
6.801803042E0,-7.304337115E0,9.893981220E0,9.323041834E-2,1.229849165E1
6.811768042E0,-7.347728133E0,9.879990002E0,2.948681418E-1,1.231625992E1
6.821733042E0,-7.594198798E0,9.799752755E0,4.536773495E-1,1.240616107E1
6.831697042E0,-7.881782405E0,9.651477891E0,5.257045213E-1,1.247196394E1
6.841662042E0,-8.061925179E0,9.433855049E0,5.962907930E-1,1.242367987E1
6.851627042E0,-8.029202406E0,9.118964360E0,7.321976995E-1,1.217208757E1
6.861591042E0,-7.844708135E0,8.709994894E0,7.909867021E-1,1.174857935E1
6.871556042E0,-7.449439280E0,8.235865227E0,8.591968115E-1,1.113830511E1
6.881520042E0,-6.787320460E0,7.636993985E0,8.586273658E-1,1.025322569E1
6.891485042E0,-6.173764520E0,6.960516157E0,8.400285423E-1,9.341830735E0
6.901450042E0,-5.628193572E0,5.859025859E0,7.579535151E-1,8.159610311E0
6.911414042E0,-4.564510201E0,3.776175722E0,4.991042582E-1,5.945028303E0
6.921379042E0,-2.256641080E0,2.249494028E-1,-2.515472174E-2,2.267964717E0
6.931344042E0,4.374927682E-1,-4.200885893E0,-4.995697331E-1,4.253047392E0
6.941308042E0,2.180968754E0,-8.976090569E0,-1.019412348E0,9.293332456E0
6.951273042E0,3.151953877E0,-1.299591860E1,-1.665186446E0,1.347596228E1
6.961237042E0,4.644592497E0,-1.524810936E1,-1.983004251E0,1.606267053E1
6.971202042E0,5.874884092E0,-1.621877289E1,-1.748055525E0,1.733835503E1
6.981167042E0,7.930810139E0,-1.603596788E1,-1.419325061E0,1.794615554E1
6.991131042E0,1.140658925E1,-1.568913443E1,-1.016373550E0,1.942401176E1
7.001096042E0,1.497021459E1,-1.587471921E1,-3.087446809E-1,2.182222166E1
7.011060792E0,1.670556646E1,-1.560730733E1,6.649289918E-1,2.287151336E1
7.021025792E0,1.648625494E1,-1.416279597E1,1.640257427E0,2.179614269E1
7.030990792E0,1.571317351E1,-1.177921242E1,1.167451569E0,1.967273774E1
7.040954792E0,1.453381584E1,-8.980376578E0,9.751401544E-2,1.708474393E1
7.050919792E0,1.226993532E1,-6.605364465E0,-5.300103378E-1,1.394500138E1
7.060884792E0,9.724660472E0,-5.319787445E0,-6.918355393E-1,1.110620530E1
7.070848792E0,6.522098359E0,-3.943543500E0,-9.856663120E-1,7.685105102E0
7.080813792E0,4.433388144E0,-2.238472611E0,-1.051290783E0,5.076504937E0
7.090777792E0,3.011735306E0,-6.195926052E-1,-6.455992663E-1,3.141853428E0
7.100742792E0,1.584144621E0,6.637846917E-1,7.097233415E-2,1.719058280E0
7.110707792E0,-3.807999194E-1,1.284477158E0,9.336974287E-1,1.632997562E0
7.120671792E0,-2.742782097E0,8.906981742E-1,1.933696436E0,3.472085652E0
7.130636792E0,-4.779425197E0,1.006879426E0,2.496696764E0,5.485454049E0
7.140601792E0,-4.366024126E0,2.071059226E0,2.193316319E0,5.306796535E0
7.150565792E0,-4.275264230E0,3.422732002E0,1.313275280E0,5.631844329E0
7.160530792E0,-5.462091717E0,4.155723753E0,9.403726101E-1,6.927393917E0
7.170494792E0,-6.407894052E0,4.575459112E0,8.031934226E-1,7.914610031E0
7.180459792E0,-6.780587976E0,5.208361149E0,6.626988637E-1,8.575696412E0
7.190424792E0,-6.968019304E0,6.026150392E0,5.268048942E-1,9.227421361E0
7.200388792E0,-7.185756167E0,6.841236466E0,4.849622555E-1,9.933418166E0
7.210353792E0,-7.329953182E0,7.629106091E0,4.154259976E-1,1.058792011E1
7.220318792E0,-7.322272865E0,8.302262115E0,3.021993077E-1,1.107404897E1
7.230282792E0,-7.265914477E0,8.809023923E0,1.734787023E-1,1.142026753E1
7.240247792E0,-7.070870658E0,9.297986807E0,7.428770542E-2,1.168140784E1
7.250211792E0,-6.778869479E0,9.616213918E0,-8.947994113E-2,1.176574044E1
7.260176792E0,-6.713166071E0,9.751179934E0,-1.657474955E-1,1.183974582E1
7.270141792E0,-7.020668219E0,9.774694512E0,-3.119840749E-1,1.203876111E1
7.280105792E0,-7.358191726E0,9.716586052E0,-4.844838802E-1,1.219794059E1
7.290070792E0,-7.532552773E0,9.534757526E0,-5.055081288E-1,1.216168125E1
7.300035792E0,-7.530418539E0,9.257587225E0,-4.171719031E-1,1.194086081E1
7.309999792E0,-7.416647510E0,8.851737249E0,-2.060254741E-1,1.154999390E1
7.319964792E0,-7.169589785E0,8.398722462E0,5.405516982E-2,1.104284740E1
7.329928792E0,-6.558120716E0,7.917997136E0,3.265143692E-1,1.028641034E1
7.339893792E0,-5.917188113E0,7.484610867E0,5.410592365E-1,9.556425068E0
7.349858792E0,-5.478815923E0,6.931895791E0,6.643898785E-1,8.860587852E0
7.359822792E0,-4.857006054E0,6.054616392E0,8.009996203E-1,7.803235729E0
7.369787792E0,-3.266364591E0,3.849375846E0,1.212547781E0,5.192023128E0
7.379752792E0,-1.936953335E0,-5.572191864E-1,1.889714849E0,2.762843400E0
7.389716792E0,2.263065416E-1,-5.812431736E0,2.275282588E0,6.245997774E0
7.399681792E0,5.884076500E0,-1.281303406E1,1.910827975E0,1.422840335E1
7.409645792E0,1.163959144E1,-2.084328429E1,9.349651051E-1,2.389135301E1
7.419610792E0,1.430141942E1,-2.592508070E1,-9.871064812E-1,2.962456390E1
7.429575792E0,1.479656164E1,-2.526281103E1,-2.475105336E0,2.938152487E1
7.439539792E0,1.463659118E1,-2.084451922E1,-2.852967614E0,2.562934270E1
7.449504792E0,1.494168486E1,-1.662735761E1,-2.498036946E0,2.249362478E1
7.459469792E0,1.622280279E1,-1.350143729E1,-9.784379840E-1,2.112878321E1
7.469433792E0,1.735481672E1,-1.020061272E1,4.972255844E-1,2.013676728E1
7.479398792E0,1.713840425E1,-7.608309299E0,1.251695913E0,1.879303098E1
7.489362792E0,1.608175625E1,-5.221992179E0,1.287019528E0,1.695725525E1
7.499327792E0,1.454112018E1,-2.852914989E0,9.090970230E-1,1.484620347E1
7.509292792E0,1.021562603E1,-1.835471399E0,3.602785313E-1,1.038545960E1
7.519256792E0,5.859411190E0,-1.362060354E0,-3.230867314E-1,6.024308503E0
7.529221792E0,2.200227143E0,-6.770648879E-1,-8.178617477E-1,2.443013341E0
7.539186792E0,-1.473857948E0,-3.424655735E-2,-3.690025771E-1,1.519734510E0
7.549150792E0,-2.303367350E0,6.615914011E-1,7.861721778E-1,2.522156026E0
7.559115792E0,-2.897953752E0,1.510724058E0,1.212828228E0,3.485882305E0
7.569079792E0,-4.327162946E0,2.600628684E0,1.044469421E0,5.155436459E0
7.579044792E0,-4.921982653E0,3.724869913E0,6.740950871E-1,6.209265117E0
7.589009792E0,-5.175985701E0,4.891263721E0,3.187890279E-1,7.128598404E0
7.598973792E0,-5.503117536E0,5.951166868E0,-3.142999012E-2,8.105657132E0
7.608938792E0,-6.268023391E0,6.629806411E0,-4.070422232E-1,9.132805354E0
7.618903792E0,-6.872926621E0,7.102573092E0,-5.220324333E-1,9.897281583E0
7.628867792E0,-7.525159553E0,7.458742200E0,-5.631921172E-1,1.061028024E1
7.638832792E0,-8.208758120E0,7.706467677E0,-6.817771590E-1,1.127998998E1
7.648797792E0,-8.792737674E0,8.000881417E0,-6.497297394E-1,1.190581740E1
7.658761792E0,-9.082371899E0,8.215245021E0,-5.429818376E-1,1.225865243E1
7.668726792E0,-9.179242721E0,8.576926884E0,-7.518139386E-1,1.258520544E1
7.678690792E0,-9.044761439E0,8.717752980E0,-6.614908290E-1,1.257952688E1
7.688655792E0,-9.058500057E0,8.714464506E0,-4.634724955E-1,1.257827976E1
7.698620792E0,-9.381680928E0,8.690263465E0,-3.500143290E-1,1.279293266E1
7.708584792E0,-9.805858417E0,8.485992740E0,-2.262474847E-1,1.296989283E1
7.718549792E0,-9.809077309E0,8.255524151E0,-1.738413028E-1,1.282193033E1
7.728514792E0,-9.423763924E0,7.912545776E0,-2.823761503E-1,1.230834853E1
7.738478792E0,-9.002070917E0,7.545744676E0,-2.482155470E-1,1.174892142E1
7.748443792E0,-8.517052565E0,7.066172420E0,-2.578599445E-1,1.106966435E1
7.758407792E0,-7.836026189E0,6.393047971E0,-1.910085817E-1,1.011488275E1
7.768372792E0,-7.362483582E0,5.591053228E0,-5.571694851E-2,9.244952410E0
7.778337792E0,-6.847113503E0,4.398514765E0,-5.299331546E-2,8.138347728E0
7.788301792E0,-5.861893918E0,2.431241863E0,-2.092718117E-1,6.349530061E0
7.798266792E0,-3.399271218E0,-9.453304642E-1,-1.772372560E-1,3.532719568E0
7.808231792E0,1.799355487E0,-5.961376691E0,5.283333564E-1,6.249386238E0
7.818195792E0,4.869799762E0,-1.167315913E1,3.216927552E-1,1.265231521E1
7.828160792E0,5.110446600E0,-1.598605487E1,5.379333150E-1,1.679166422E1
7.838125792E0,8.844164520E0,-1.805403379E1,1.363798732E0,2.015011983E1
7.848089792E0,1.299894044E1,-1.762229409E1,1.786014479E0,2.197060649E1
7.858054792E0,1.434939816E1,-1.686923353E1,1.433642553E0,2.219305293E1
7.868018792E0,1.592776398E1,-1.544431151E1,1.251714624E0,2.222132339E1
7.877983792E0,1.920590954E1,-1.360843315E1,1.377289428E0,2.357866282E1
7.887948792E0,2.146969884E1,-1.194146096E1,1.495699053E0,2.461267101E1
7.897912792E0,2.042481778E1,-9.777076083E0,9.052540502E-2,2.264448261E1
7.907877792E0,1.887090619E1,-8.156124408E0,-9.649776936E-1,2.058068628E1
7.917842792E0,1.738143793E1,-8.234848396E0,7.924627586E-1,1.924980804E1
7.927806792E0,1.343999358E1,-7.140929657E0,9.085332783E-1,1.524636798E1
7.937771792E0,9.907220485E0,-3.930578468E0,-9.059487359E-1,1.069687842E1
7.947735792E0,7.105238838E0,-6.632011396E-1,-2.450310510E0,7.545082921E0
7.957700792E0,3.594095766E0,6.648927391E-1,-2.184899983E0,4.258332381E0
7.967665792E0,-2.335126501E-1,5.860991693E-1,-1.100133744E0,1.268201344E0
7.977629792E0,-3.618343000E0,1.184364055E0,-9.506251180E-1,3.924132056E0
7.987594792E0,-6.564840921E0,1.557127562E0,-1.514201836E0,6.914809452E0
7.997559792E0,-6.962018892E0,1.371131725E0,-1.929785964E0,7.353487820E0
8.007523792E0,-7.769523466E0,1.019370832E0,-1.725507492E0,8.023838725E0
8.017488292E0,-8.512210486E0,1.262254230E0,-9.089058191E-3,8.605294632E0
8.027452292E0,-7.643839320E0,2.894767020E0,1.282573743E0,8.273629860E0
8.037417292E0,-8.628626795E0,4.109670498E0,1.478834513E0,9.671067340E0
8.047382292E0,-9.145326532E0,5.304198768E0,1.120746422E0,1.063144367E1
8.057346292E0,-8.696260369E0,6.595203758E0,7.237766127E-1,1.093825898E1
8.067311292E0,-8.206654292E0,7.666030673E0,6.551057426E-1,1.124928284E1
8.077276292E0,-7.984905070E0,8.460588927E0,6.652424756E-1,1.165258862E1
8.087240292E0,-7.942377686E0,8.987913639E0,6.339913738E-1,1.201107405E1
8.097205292E0,-7.896485229E0,9.257903559E0,6.363981608E-1,1.218475523E1
8.107170292E0,-7.710944890E0,9.365122198E0,6.643513600E-1,1.214930235E1
8.117134292E0,-7.476558666E0,9.418698481E0,7.246197081E-1,1.204723555E1
8.127099292E0,-7.363473516E0,9.437860976E0,8.815939864E-1,1.200296505E1
8.137063292E0,-7.339827375E0,9.376682729E0,1.004470958E0,1.195007141E1
8.147028292E0,-7.240983703E0,9.320630735E0,1.070670794E0,1.185125893E1
8.156993292E0,-7.188157033E0,9.262336333E0,1.119911440E0,1.177771954E1
8.166957292E0,-7.125409393E0,9.043020723E0,1.078504967E0,1.156334103E1
8.176922292E0,-6.930557363E0,8.771517543E0,1.061811166E0,1.122940730E1
8.186887292E0,-6.490454983E0,8.390077938E0,1.136476529E0,1.066822350E1
8.196851292E0,-6.022108796E0,7.895894076E0,1.230647983E0,1.000626964E1
8.206816292E0,-5.591999307E0,7.397544072E0,1.380132344E0,9.375440247E0
8.216780292E0,-4.928071944E0,6.744414176E0,1.614298128E0,8.507583329E0
8.226745292E0,-3.966978555E0,5.554208753E0,1.875208053E0,7.078316111E0
8.236710292E0,-2.683653299E0,3.329612753E0,2.117953895E0,4.772215923E0
8.246674292E0,-1.039155471E0,-2.841980696E-1,2.612277507E0,2.825704586E0
8.256639292E0,2.595019450E0,-5.390809481E0,3.339813806E0,6.851956586E0
8.266604292E0,7.656230155E0,-1.315979266E1,3.653695850E0,1.565718674E1
8.276568292E0,1.264057395E1,-2.065470691E1,3.109498998E0,2.441454508E1
8.286533292E0,1.166142494E1,-2.294420525E1,1.059567443E0,2.575942681E1
8.296498292E0,1.177238872E1,-1.829568985E1,-1.647354192E0,2.181823044E1
8.306462292E0,1.291900666E1,-1.344498476E1,-2.304212272E0,1.878770190E1
8.316427292E0,1.232972895E1,-1.093890789E1,-3.804210198E-1,1.648716598E1
8.326391292E0,1.273405455E1,-1.028228896E1,2.135425960E0,1.650580673E1
8.336356292E0,1.252260286E1,-9.657725641E0,3.498561618E0,1.619651754E1
8.346321292E0,1.224743173E1,-9.475572009E0,4.003086281E0,1.599408480E1
8.356285292E0,1.200669601E1,-8.601955891E0,3.631287566E0,1.520988638E1
8.366250292E0,1.111625160E1,-6.755052016E0,2.933408344E0,1.333441645E1
8.376215292E0,9.244149154E0,-4.961288221E0,1.738150342E0,1.063437074E1
8.386179292E0,7.150885711E0,-4.174066468E0,8.425545394E-1,8.322733655E0
8.396144292E0,5.979686077E0,-3.412573634E0,-2.939839697E-1,6.891206786E0
8.406108292E0,3.917621623E0,-2.480990558E0,-2.128136821E0,5.102160294E0
8.416073292E0,2.147136179E0,-1.483519303E0,-3.959452604E0,4.742181799E0
8.426038292E0,1.328303209E0,-3.018496442E-1,-4.053614995E0,4.276364946E0
8.436002292E0,5.325310725E-1,8.038670218E-1,-2.812503712E0,2.973208480E0
8.445967292E0,-1.086209770E0,1.739091743E0,-1.272726009E0,2.413322036E0
8.455932292E0,-3.121246639E0,2.517563138E0,-6.728740057E-2,4.010590023E0
8.465896292E0,-3.876165449E0,3.385862968E0,2.543468642E-1,5.153000966E0
8.475861292E0,-4.731509603E0,4.282800706E0,-1.624590397E-2,6.381992553E0
8.485826292E0,-5.882568503E0,5.107157541E0,-2.030617397E-2,7.790255624E0
8.495790292E0,-6.830003965E0,5.778265870E0,1.355969310E-2,8.946367670E0
8.505755292E0,-7.424584520E0,6.338313940E0,-5.614609759E-2,9.762265684E0
8.515719292E0,-7.878339565E0,6.842013561E0,-1.829722416E-1,1.043622838E1
8.525684292E0,-8.195929914E0,7.345010347E0,-2.597005566E-1,1.100862791E1
8.535649292E0,-8.305243025E0,7.816873634E0,-3.547447264E-1,1.141080273E1
8.545613292E0,-8.403010225E0,8.168885956E0,-3.380286698E-1,1.172414355E1
8.555578292E0,-8.579430077E0,8.346502733E0,-2.754950921E-1,1.197274513E1
8.565543292E0,-8.660636208E0,8.529221206E0,-2.776048040E-1,1.215858949E1
8.575507292E0,-8.559346061E0,8.595062023E0,-2.940131692E-1,1.213358727E1
8.585472292E0,-8.520891847E0,8.570748131E0,-2.705740571E-1,1.208869438E1
8.595437292E0,-8.489955398E0,8.597723676E0,-2.275795170E-1,1.208519704E1
8.605401292E0,-8.356764597E0,8.465062047E0,-1.310196940E-1,1.189579573E1
8.615366292E0,-8.225697504E0,8.158939258E0,4.279697735E-2,1.158586297E1
8.625330292E0,-7.816797035E0,7.785250722E0,3.115794476E-1,1.103673532E1
8.635295292E0,-7.203036443E0,7.272705433E0,5.880872591E-1,1.025289349E1
8.645260292E0,-6.814128774E0,6.556385847E0,7.759325337E-1,9.487919563E0
8.655224292E0,-6.431158369E0,5.580235879E0,8.480310416E-1,8.556750965E0
8.665189292E0,-5.711532183E0,4.245027108E0,7.778012308E-1,7.158689110E0
8.675154292E0,-4.603388922E0,2.241201507E0,6.059902275E-1,5.155715074E0
8.685118292E0,-3.225496062E0,-4.657500225E-1,2.623891977E-1,3.269494765E0
8.695083292E0,-1.255251605E0,-3.969782880E0,-2.803295152E-1,4.172938694E0
8.705048292E0,1.454830524E0,-8.035955940E0,-7.477933931E-1,8.200750861E0
8.715012292E0,3.928805008E0,-1.219359407E1,-9.345020056E-1,1.284494216E1
8.724977292E0,6.206923496E0,-1.590369918E1,-6.445561230E-1,1.708417395E1
8.734941292E0,8.800589899E0,-1.710415594E1,-4.736197901E-1,1.924127981E1
8.744906292E0,1.084631489E1,-1.556194580E1,-2.489475270E-1,1.897046859E1
8.754871292E0,1.191070812E1,-1.297391436E1,4.991066337E-2,1.761220919E1
8.764835292E0,1.341410094E1,-1.013526423E1,6.349561644E-1,1.682453133E1
8.774800292E0,1.464486265E1,-7.510707575E0,8.274897730E-1,1.647930428E1
8.784765292E0,1.541368848E1,-6.397294219E0,1.253215020E0,1.673552251E1
8.794729292E0,1.495048609E1,-8.078809015E0,3.537464898E0,1.735793326E1
8.804694292E0,1.335132523E1,-9.612982746E0,5.506804790E0,1.734912740E1
8.814659292E0,1.117128560E1,-9.420676010E0,6.102699215E0,1.583634100E1
8.824623292E0,9.081191347E0,-7.903165088E0,4.953045402E0,1.301770769E1
8.834588292E0,6.946976345E0,-6.124208783E0,3.265781039E0,9.819966362E0
8.844552292E0,5.206185985E0,-4.627227436E0,1.779518223E0,7.189039669E0
8.854517292E0,4.028514068E0,-3.110409409E0,5.368667829E-1,5.117792320E0
8.864482292E0,2.318074851E0,-1.957393447E0,-5.092772075E-1,3.076397795E0
8.874446292E0,7.197969246E-1,-1.275965951E0,-8.648172283E-1,1.701207089E0
8.884411292E0,4.500701290E-1,-8.406658888E-2,-1.201214561E0,1.285514191E0
8.894376292E0,-6.529655886E-1,1.797606584E0,-1.481766307E0,2.419376962E0
8.904340292E0,-1.971826714E0,3.337052751E0,-1.130460840E0,4.037568991E0
8.914305292E0,-3.002465131E0,4.567361303E0,-6.405098498E-1,5.503257127E0
8.924270292E0,-3.353667614E0,5.352907829E0,-3.858472725E-1,6.328474287E0
8.934234292E0,-3.547304007E0,5.863513597E0,-1.963729270E-1,6.855852955E0
8.944199292E0,-3.991253856E0,6.281594194E0,-1.071221967E-1,7.443118172E0
8.954163292E0,-4.965520436E0,6.477729687E0,-2.399264793E-1,8.165472418E0
8.964128292E0,-5.750222039E0,6.677849473E0,-4.021095121E-1,8.821588244E0
8.974093292E0,-5.972200472E0,7.100307881E0,-4.113422656E-1,9.287128347E0
8.984057292E0,-6.161751416E0,7.507876938E0,-2.653103936E-1,9.716264006E0
8.994022292E0,-6.350445743E0,7.846716068E0,-1.442437935E-1,1.009553963E1
9.003987292E0,-6.495154390E0,8.231907831E0,-8.458108904E-2,1.048610943E1
9.013951042E0,-6.532806365E0,8.512849587E0,-9.031024575E-2,1.073099823E1
9.023916042E0,-6.515789214E0,8.725626841E0,-1.266226244E-1,1.089073488E1
9.033881042E0,-6.495569542E0,8.847596835E0,-1.830107967E-1,1.097751731E1
9.043845042E0,-6.508404765E0,8.889176971E0,-2.061657707E-1,1.101904280E1
9.053810042E0,-6.458511059E0,8.826907632E0,-1.857028913E-1,1.093897386E1
9.063774042E0,-6.312930592E0,8.603740461E0,-8.192665413E-2,1.067165191E1
9.073739042E0,-5.979258061E0,8.206303459E0,1.298597161E-1,1.015439840E1
9.083704042E0,-5.554221032E0,7.596190944E0,3.364348284E-1,9.416192252E0
9.093668042E0,-5.157528965E0,6.895303330E0,4.847248951E-1,8.624399763E0
9.103633042E0,-4.703659315E0,6.148192307E0,6.050184933E-1,7.764710360E0
9.113598042E0,-4.068456983E0,5.357223074E0,6.099243072E-1,6.754568006E0
9.123562042E0,-3.333012909E0,4.382819669E0,5.573951876E-1,5.534326761E0
9.133527042E0,-2.515223667E0,3.022545054E0,4.603080189E-1,3.959041825E0
9.143492042E0,-1.486463960E0,1.240570416E0,2.282473055E-1,1.949535046E0
9.153456042E0,-1.980194664E-1,-1.008172245E0,-6.272176668E-2,1.029347854E0
9.163421042E0,9.376074618E-1,-4.151565798E0,-4.760861456E-1,4.282670235E0
9.173385042E0,2.177360437E0,-8.102031232E0,-7.860598382E-1,8.426250567E0
9.183350042E0,4.033578926E0,-1.195558784E1,-8.519661447E-1,1.264641000E1
9.193315042E0,6.202018851E0,-1.452741898E1,-8.958005277E-1,1.582129573E1
9.203279042E0,9.068978267E0,-1.532838696E1,-8.592063133E-1,1.783098564E1
9.213244042E0,1.246206430E1,-1.520791092E1,-1.550926443E-1,1.966234104E1
9.223209042E0,1.494664563E1,-1.502239514E1,6.339259581E-1,2.120085927E1
9.233173042E0,1.712796814E1,-1.479435607E1,1.305892586E0,2.267036876E1
9.243138042E0,1.801193617E1,-1.336846459E1,1.484922634E0,2.248000635E1
9.253103042E0,1.682729964E1,-1.097432565E1,1.312400537E0,2.013246710E1
9.263067042E0,1.469982531E1,-8.777084092E0,9.142786793E-1,1.714520267E1
9.273032042E0,1.244105759E1,-6.567724768E0,1.629585381E-1,1.406916764E1
9.282996042E0,9.712312907E0,-5.099073181E0,-3.948564796E-1,1.097658786E1
9.292961042E0,6.529077596E0,-4.368022120E0,-3.611648230E-1,7.863772093E0
9.302926042E0,3.404503891E0,-3.569186043E0,-1.812742102E-1,4.935848062E0
9.312890042E0,8.717257136E-1,-3.097001744E0,-7.102949068E-2,3.218131556E0
9.322855042E0,2.214591998E-1,-2.512067340E0,7.449952081E-2,2.522910358E0
9.332820042E0,-5.243204123E-1,-3.639248550E-1,-1.051841006E-1,6.468515207E-1
9.342784042E0,-1.458820664E0,1.558527385E0,-2.355012882E-1,2.147702539E0
9.352749042E0,-2.079535934E0,2.451144031E0,1.507283556E-1,3.217964543E0
9.362714042E0,-2.332794047E0,3.449411092E0,5.010979030E-1,4.194217932E0
9.372678042E0,-2.953209940E0,4.265330980E0,4.304439497E-1,5.205744837E0
9.382643042E0,-3.807691045E0,4.999716123E0,3.691299002E-1,6.295389526E0
9.392608042E0,-5.435450048E0,5.878516967E0,4.731204379E-1,8.020281910E0
9.402572042E0,-5.758444394E0,6.517400706E0,3.167284691E-1,8.702672620E0
9.412537042E0,-5.995067763E0,6.886264120E0,2.604348390E-1,9.133963943E0
9.422501042E0,-6.285071533E0,7.338191324E0,4.943939240E-1,9.674481973E0
9.432466042E0,-6.615234565E0,7.694261030E0,6.640321020E-1,1.016877179E1
9.442431042E0,-6.988700321E0,7.891368915E0,7.622957305E-1,1.056866739E1
9.452395042E0,-7.248690918E0,8.134698456E0,7.384099276E-1,1.092071830E1
9.462360042E0,-7.475340106E0,8.375841138E0,6.952773567E-1,1.124805917E1
9.472325042E0,-7.553857103E0,8.596607442E0,7.337822950E-1,1.146738214E1
9.482289042E0,-7.526568148E0,8.768327887E0,7.257422273E-1,1.157840679E1
9.492254042E0,-7.529564846E0,8.834036558E0,7.178766990E-1,1.162969886E1
9.502219042E0,-7.545819520E0,8.778081627E0,6.826529257E-1,1.159569421E1
9.512183042E0,-7.549017363E0,8.648840035E0,6.173911285E-1,1.149657640E1
9.522148042E0,-7.499476828E0,8.441089048E0,5.180000107E-1,1.130320578E1
9.532113042E0,-7.301735104E0,8.183727359E0,4.208464030E-1,1.097569318E1
9.542077042E0,-6.895859985E0,7.853042756E0,3.612573552E-1,1.045723062E1
9.552042042E0,-6.439937963E0,7.288242069E0,2.815867031E-1,9.729879984E0
9.562007042E0,-5.877856232E0,6.468763567E0,2.149272752E-1,8.743013765E0
9.571971042E0,-4.993032755E0,5.465205359E0,1.898613580E-1,7.405058612E0
9.581936042E0,-3.671186042E0,4.019354990E0,2.505507787E-1,5.449366677E0
9.591900042E0,-2.002769594E0,1.632509281E0,2.587181696E-1,2.596749447E0
9.601865042E0,2.030486566E-1,-2.082822654E0,3.523415208E-2,2.092993170E0
9.611830042E0,3.188605394E0,-7.380989435E0,-3.145112050E-1,8.046435651E0
9.621794042E0,5.882462084E0,-1.431988025E1,-7.841268218E-1,1.550087692E1
9.631759042E0,9.053725221E0,-1.894646625E1,-1.171066318E0,2.103116544E1
9.641724042E0,1.290182403E1,-1.825553702E1,-8.393771625E-1,2.237020897E1
9.651688042E0,1.532058677E1,-1.574677395E1,-6.491812706E-2,2.197010430E1
9.661653042E0,1.725616718E1,-1.447417892E1,1.040321406E0,2.254682748E1
9.671618042E0,1.834146420E1,-1.331113966E1,1.808409462E0,2.273468919E1
9.681582042E0,1.801881952E1,-1.099245085E1,2.116858127E0,2.121303657E1
9.691547042E0,1.553463462E1,-8.079367424E0,1.875663990E0,1.761020063E1
9.701511042E0,1.222475739E1,-5.990301697E0,9.948159619E-1,1.364983760E1
9.711476042E0,1.023740924E1,-4.629703147E0,-3.555610708E-1,1.124122426E1
9.721441042E0,8.867020701E0,-3.258973711E0,-1.894486177E0,9.635042482E0
9.731405042E0,7.071991569E0,-1.979288346E0,-2.887367953E0,7.890978444E0
9.741370042E0,4.914283040E0,-1.116723465E0,-3.053061672E0,5.892235116E0
9.751335042E0,2.209333012E0,-4.142559332E-1,-2.568677158E0,3.413336005E0
9.761299042E0,-4.729783505E-1,-1.485578692E-1,-1.354294521E0,1.442182932E0
9.771264042E0,-2.193381223E0,-7.729586399E-1,-1.136439984E-1,2.328368787E0
9.781229042E0,-3.342966040E0,-4.511132723E-1,1.358588862E-1,3.376001002E0
9.791193042E0,-4.732912935E0,1.317933172E-1,5.514742970E-2,4.735068697E0
9.801158042E0,-5.114416274E0,7.616536331E-1,4.507092297E-1,5.190424732E0
9.811123042E0,-5.865790502E0,1.542331182E0,6.864784665E-1,6.103895181E0
9.821087042E0,-6.809822300E0,2.540683613E0,1.111028423E0,7.352763912E0
9.831052042E0,-6.809625249E0,3.885850192E0,1.235046405E0,7.937012497E0
9.841016042E0,-7.552879449E0,5.182619952E0,8.630281265E-1,9.200562759E0
9.850981042E0,-8.646626864E0,6.167177047E0,9.627006416E-1,1.066419342E1
9.860946042E0,-8.921738945E0,7.273043987E0,1.323204875E0,1.158643456E1
9.870910042E0,-8.827851958E0,8.081583518E0,1.545079958E0,1.206773527E1
9.880875042E0,-8.495032536E0,8.696056302E0,1.725377684E0,1.227859524E1
9.890840042E0,-8.159801722E0,9.061355252E0,1.773833414E0,1.232221604E1
9.900804042E0,-7.877467160E0,9.211513504E0,1.682439094E0,1.223670998E1
9.910769042E0,-7.711272919E0,9.166128001E0,1.661577398E0,1.209307537E1
9.920734042E0,-7.653676091E0,9.025545149E0,1.654605470E0,1.194893059E1
9.930698042E0,-7.582255860E0,8.919809364E0,1.649769677E0,1.182266226E1
9.940663042E0,-7.397307259E0,8.765373289E0,1.637057976E0,1.158584837E1
9.950628042E0,-7.032486026E0,8.432611170E0,1.611416766E0,1.109781307E1
9.960592042E0,-6.471673726E0,7.971289828E0,1.638076415E0,1.039746684E1
9.970557042E0,-5.845256835E0,7.482607611E0,1.674819441E0,9.641652570E0
9.980522042E0,-5.352337140E0,6.808410197E0,1.544914921E0,8.797086131E0
9.990486042E0,-4.596344782E0,6.038481000E0,1.395471783E0,7.716020972E0
1.000045104E1,-3.645339010E0,5.131355073E0,1.433689185E0,6.455599590E0
1.001041504E1,-3.057804349E0,3.567140102E0,1.582861158E0,4.957832731E0
1.002038017E1,-3.304994221E0,8.390216517E-1,1.594327548E0,3.764149899E0
1.003034517E1,-2.217861761E0,-2.347906761E0,1.688158987E0,3.644373432E0
1.004030917E1,1.211531389E0,-5.676340715E0,1.980549151E0,6.132799293E0
1.005027417E1,5.485759492E0,-9.728787437E0,1.988889327E0,1.134453802E1
1.006023917E1,8.562125827E0,-1.394818211E1,1.129468129E0,1.640541011E1
1.007020317E1,9.954639065E0,-1.606610443E1,-2.130080728E-1,1.890132066E1
1.008016817E1,1.115705114E1,-1.499778889E1,-9.828374290E-1,1.871842491E1
1.009013317E1,1.333377306E1,-1.344546891E1,-1.008548806E0,1.896278748E1
1.010009717E1,1.509888374E1,-1.348016980E1,-9.362806555E-1,2.026247491E1
1.011006217E1,1.713037486E1,-1.339090503E1,-1.183856590E0,2.177538970E1
1.012002717E1,1.880101559E1,-1.231814795E1,-1.317432650E0,2.251556317E1
1.012999117E1,1.727756331E1,-1.069140461E1,-1.478901172E0,2.037173226E1
1.013995617E1,1.371736210E1,-9.176421440E0,-1.775204147E0,1.659891813E1
1.014992117E1,1.035911202E1,-8.487101372E0,-2.116928148E0,1.355815166E1
1.015988517E1,7.700213495E0,-7.543862457E0,-3.127282720E0,1.122421694E1
1.016985017E1,4.312492282E0,-6.555538586E0,-3.762995514E0,8.702460059E0
1.017981417E1,2.318680623E0,-5.405424596E0,-3.300846791E0,6.744663404E0
1.018977917E1,2.103079748E-1,-4.078056942E0,-2.178913604E0,4.628438436E0
1.019974417E1,-1.215639058E0,-2.486302754E0,-9.652760477E-1,2.931081294E0
1.020970817E1,-1.390218206E0,-1.082727753E0,4.847356394E-2,1.762769337E0
1.021967317E1,-2.022151360E0,-2.635924816E-3,9.377064259E-1,2.228989998E0
1.022963817E1,-3.693887857E0,9.129953617E-1,1.097920135E0,3.960277345E0
1.023960217E1,-5.592645425E0,1.963140675E0,1.024752756E0,6.015124468E0
1.024956717E1,-6.542997478E0,3.227657778E0,8.974565323E-1,7.350783560E0
1.025953217E1,-7.154260724E0,4.456015114E0,2.950027008E-1,8.433655423E0
1.026949617E1,-7.417194225E0,5.507331625E0,4.277252868E-2,9.238360313E0
1.027946117E1,-7.625438717E0,6.230536307E0,3.270255621E-1,9.852605950E0
1.028942617E1,-7.827984513E0,6.802468257E0,7.425192046E-1,1.039722322E1
1.029939017E1,-8.195873196E0,7.204966609E0,1.101423640E0,1.096799960E1
1.030935517E1,-8.556065188E0,7.514128781E0,1.381219926E0,1.147066482E1
1.031931917E1,-8.444468154E0,7.931241079E0,1.581203911E0,1.169246908E1
1.032928417E1,-8.167238211E0,8.305192739E0,1.574689089E0,1.175413341E1
1.033924917E1,-7.996194289E0,8.537003850E0,1.511618828E0,1.179425917E1
1.034921317E1,-7.938700372E0,8.583996753E0,1.456850152E0,1.178263028E1
1.035917817E1,-7.886204070E0,8.569704988E0,1.338957567E0,1.172283522E1
1.036914317E1,-7.693758169E0,8.484199984E0,1.366551747E0,1.153442794E1
1.037910717E1,-7.658258554E0,8.210593561E0,1.441575032E0,1.131993415E1
1.038907217E1,-7.559115504E0,7.822633726E0,1.565117197E0,1.099015093E1
1.039903717E1,-7.229478137E0,7.441512210E0,1.664371344E0,1.050769195E1
1.040900117E1,-6.826411436E0,6.984704334E0,1.611572156E0,9.898643975E0
1.041896617E1,-6.386778002E0,6.403113953E0,1.531065352E0,9.172511251E0
1.042893117E1,-5.545145568E0,5.668476210E0,1.498242738E0,8.070005776E0
1.043889517E1,-4.606496717E0,4.604326816E0,1.649032928E0,6.718552450E0
1.044886017E1,-5.113819274E0,2.486263577E0,1.647667018E0,5.920089589E0
1.045882517E1,-6.005978667E0,-5.993933988E-1,1.787924034E0,6.295055563E0
1.046878917E1,-4.729578853E0,-3.375336226E0,1.981994437E0,6.139227371E0
1.047875417E1,-2.105602822E0,-5.841180741E0,1.652796342E0,6.425316447E0
1.048871917E1,5.093299055E-1,-7.862552083E0,9.508835649E-1,7.936203233E0
1.049868317E1,2.885670506E0,-8.940908457E0,-8.878748462E-2,9.395468138E0
1.050864817E1,5.231102141E0,-8.817948529E0,-1.054315913E0,1.030690195E1
1.051861317E1,7.448452855E0,-8.807664446E0,-1.990554615E0,1.170541373E1
1.052857717E1,1.081704724E1,-1.009111542E1,-2.960400846E0,1.508652029E1
1.053854217E1,1.488189825E1,-1.307760888E1,-3.249263824E0,2.007616659E1
1.054850617E1,1.881115700E1,-1.609180645E1,-2.957259722E0,2.493092953E1
1.055847117E1,2.199017588E1,-1.670650552E1,-2.572144557E0,2.773609723E1
1.056843617E1,2.211145649E1,-1.430103584E1,-2.315713745E0,2.643480025E1
1.057840017E1,1.705409910E1,-9.288041863E0,-2.558996508E0,1.958720197E1
1.058836517E1,1.249824453E1,-6.529254182E0,-2.823397367E0,1.438085009E1
1.059833017E1,9.790610048E0,-6.458184784E0,-2.655917616E0,1.202572635E1
1.060829417E1,7.871867282E0,-5.565259405E0,-3.037462471E0,1.010764983E1
1.061825917E1,5.237617693E0,-4.465441411E0,-2.089912988E0,7.193089905E0
1.062822417E1,3.448771407E0,-4.558447223E0,5.013110340E-1,5.738011681E0
1.063818817E1,1.325407083E0,-4.793723978E0,1.335402606E0,5.149737239E0
1.064815317E1,-7.396616703E-1,-3.346740417E0,5.085589501E-1,3.465025687E0
1.065811817E1,-1.917475090E0,-1.701221082E0,-4.709404497E-1,2.606271052E0
1.066808217E1,-3.172629046E0,-4.756388336E-1,-2.376592031E-1,3.216875699E0
1.067804717E1,-3.140405626E0,8.315272754E-1,6.987691677E-1,3.322929950E0
1.068801217E1,-3.144462424E0,2.216713368E0,1.437144743E0,4.106926722E0
1.069797617E1,-3.489901891E0,3.140768153E0,1.688925849E0,4.989620259E0
1.070794117E1,-4.352080271E0,4.507947745E0,1.729476289E0,6.500252595E0
1.071790617E1,-4.772554718E0,5.877271510E0,1.500584694E0,7.718248076E0
1.072787017E1,-5.270327017E0,6.917147943E0,1.386902396E0,8.806065001E0
1.073783517E1,-5.788800214E0,7.811052731E0,1.328115806E0,9.812575822E0
1.074779917E1,-6.011545216E0,8.450698362E0,1.318466438E0,1.045424949E1
1.075776417E1,-6.270373971E0,8.809921471E0,1.457597572E0,1.091131966E1
1.076772917E1,-6.621755379E0,9.065048938E0,1.508312959E0,1.132686031E1
1.077769317E1,-6.848438482E0,9.261019540E0,1.635591348E0,1.163369037E1
1.078765817E1,-6.860860307E0,9.422832463E0,1.827951880E0,1.179841446E1
1.079762317E1,-6.802725534E0,9.606671262E0,2.019499794E0,1.194334906E1
1.080758717E1,-6.744132341E0,9.756000379E0,2.095051667E0,1.204375796E1
1.081755217E1,-6.707096077E0,9.807709061E0,2.097981122E0,1.206556338E1
1.082751717E1,-6.742783388E0,9.709234348E0,1.981209448E0,1.198580620E1
1.083748117E1,-6.878466273E0,9.524735398E0,1.845543813E0,1.189285141E1
1.084744617E1,-6.998107322E0,9.261973806E0,1.771183602E0,1.174285980E1
1.085741117E1,-6.996718023E0,9.034917651E0,1.808381395E0,1.156953082E1
1.086737517E1,-6.884832721E0,8.836882398E0,1.919490041E0,1.136555560E1
1.087734017E1,-6.493831165E0,8.554599291E0,2.023639184E0,1.092914122E1
1.088730517E1,-5.719939309E0,8.086804497E0,2.151552289E0,1.013623648E1
1.089726917E1,-5.022063012E0,7.391507991E0,2.234566087E0,9.211340449E0
1.090723417E1,-4.220324376E0,6.487975763E0,2.379007516E0,8.097199769E0
1.091719917E1,-3.042302796E0,5.145645669E0,2.689296154E0,6.554814219E0
1.092716317E1,-1.652983307E0,2.864580769E0,3.243070453E0,4.632027932E0
1.093712817E1,4.358467770E-1,-5.223803061E-1,3.868143654E0,3.927515617E0
1.094709317E1,4.125944468E0,-5.243377200E0,3.792664286E0,7.674680750E0
1.095705717E1,7.725803250E0,-1.090700548E1,2.630536022E0,1.362242725E1
1.096702217E1,9.706185025E0,-1.611355224E1,1.089363319E0,1.884259287E1
1.097698617E1,1.079240006E1,-1.899152606E1,-3.843133651E-2,2.184388789E1
1.098695117E1,1.232613876E1,-1.919899346E1,-6.935873652E-1,2.282577731E1
1.099691617E1,1.521487730E1,-1.856525234E1,-1.473803131E-1,2.400380817E1
1.100688017E1,1.724069545E1,-1.779678670E1,4.810855150E-1,2.478303129E1
1.101684479E1,1.883139070E1,-1.580331535E1,5.379064178E-1,2.458974167E1
1.102680979E1,2.028812859E1,-1.109719436E1,-6.088107781E-1,2.313280214E1
1.103677379E1,2.017208709E1,-8.100384656E0,1.538239886E0,2.179209744E1
1.104673879E1,1.791529573E1,-7.833601933E0,2.452132649E0,1.970624507E1
1.105670379E1,1.342057147E1,-7.407391368E0,2.101729188E0,1.547250629E1
1.106666779E1,8.920618034E0,-6.693519427E0,1.351776125E0,1.123423015E1
1.107663279E1,3.667786471E0,-7.206126112E0,9.684907007E-1,8.143640793E0
1.108659779E1,-3.738417327E-1,-6.887131847E0,1.228465802E0,7.005816936E0
1.109656179E1,-2.809162613E0,-4.907457585E0,-2.174635050E-1,5.658782988E0
1.110652679E1,-3.941541998E0,-2.455602533E0,-3.923271203E0,6.079292233E0
1.111649179E1,-5.178937960E0,-5.496113741E-1,-7.622028036E0,9.231401976E0
1.112645579E1,-5.494303443E0,1.307486537E0,-7.286450483E0,9.218961547E0
1.113642079E1,-3.573294881E0,2.724700168E0,-5.370075839E0,7.002152656E0
1.114638579E1,-2.843379934E0,3.553570468E0,-1.643994967E0,4.838945337E0
1.115634979E1,-2.944318664E0,4.832985107E0,1.772420872E0,5.930281038E0
1.116631479E1,-4.522094498E0,4.662684951E0,2.922153916E0,7.122426070E0
1.117627979E1,-5.491578641E0,4.612715816E0,2.686935048E0,7.658603210E0
1.118624379E1,-6.507050550E0,5.095456093E0,2.390170143E0,8.603388458E0
1.119620879E1,-7.316754847E0,6.043763375E0,2.241978894E0,9.751330503E0
1.120617379E1,-7.598665486E0,7.044868090E0,2.294690228E0,1.061298671E1
1.121613779E1,-7.137366949E0,7.706748344E0,2.042311682E0,1.070079502E1
1.122610279E1,-6.877064111E0,8.042836359E0,1.679723939E0,1.071460219E1
1.123606679E1,-6.472710437E0,8.344425802E0,1.398509119E0,1.065275786E1
1.124603179E1,-5.980152685E0,8.722935952E0,1.081879760E0,1.063119474E1
1.125599679E1,-6.136605465E0,9.048244041E0,9.507502484E-1,1.097417755E1
1.126596079E1,-6.420549765E0,9.112837647E0,9.337887914E-1,1.118656474E1
1.127592579E1,-7.070947257E0,8.969452225E0,7.692947745E-1,1.144732208E1
1.128589079E1,-7.736332331E0,8.784935734E0,5.604614675E-1,1.171921716E1
1.129585479E1,-8.027375152E0,8.725409324E0,3.745888607E-1,1.186220201E1
1.130581979E1,-8.138927162E0,8.758578240E0,4.396857664E-2,1.195645271E1
1.131578479E1,-7.966243097E0,8.816181500E0,-2.595941556E-1,1.188501049E1
1.132574879E1,-7.614635401E0,8.972180536E0,-6.100164740E-1,1.178366734E1
1.133571379E1,-7.047853678E0,9.040624534E0,-7.197140403E-1,1.148577911E1
1.134567879E1,-6.686960020E0,8.692652637E0,-4.064247572E-1,1.097464465E1
1.135564279E1,-6.770562340E0,7.655598655E0,2.614325202E-1,1.022335816E1
1.136560779E1,-7.377567059E0,6.318011237E0,8.071424858E-1,9.746652795E0
1.137557279E1,-7.804619039E0,4.652286848E0,1.114600779E0,9.154134921E0
1.138553679E1,-7.062240753E0,2.683124710E0,1.214077266E0,7.651691726E0
1.139550179E1,-4.489353014E0,-2.247213614E-1,2.024704839E0,4.929931020E0
1.140546679E1,6.778560162E-1,-5.651176053E0,3.927145568E0,6.915038097E0
1.141543079E1,7.087565628E0,-1.375216356E1,4.531980386E0,1.612124174E1
1.142539579E1,1.170873126E1,-2.196256767E1,3.985482069E0,2.520580952E1
1.143536079E1,1.373891260E1,-2.589309410E1,2.259828397E0,2.939926641E1
1.144532479E1,1.601795611E1,-2.440359777E1,4.752043124E-1,2.919479956E1
1.145528979E1,1.821116484E1,-2.082956439E1,3.697054855E-1,2.767045283E1
1.146525479E1,2.073579610E1,-1.814054568E1,4.392310723E-1,2.755441092E1
1.147521879E1,1.985808459E1,-1.466530802E1,-4.262468183E-1,2.469000748E1
1.148518379E1,1.764553795E1,-1.044692434E1,-1.505658177E0,2.056137748E1
1.149514879E1,1.641065395E1,-7.475053593E0,-2.210576130E0,1.816790126E1
1.150511279E1,1.419761029E1,-5.680586963E0,-2.916046207E0,1.556741892E1
1.151507779E1,1.138595209E1,-3.708833340E0,-3.389727978E0,1.244530455E1
1.152504279E1,8.369046673E0,-2.389577528E0,-3.957799011E0,9.561129431E0
1.153500679E1,5.006021175E0,-1.237255629E0,-4.343752667E0,6.742346530E0
1.154497179E1,1.088702438E0,2.395557475E-1,-3.650381649E0,3.816797890E0
1.155493579E1,-4.119304955E-2,3.293742424E-1,-1.942794703E0,1.970947873E0
1.156490079E1,4.240886110E-1,1.063959360E0,-6.983491914E-1,1.341473914E0
1.157486579E1,-2.015146396E0,5.896256250E-1,2.720677283E-1,2.117190171E0
1.158482979E1,-4.346789126E0,-1.125208944E-1,7.247087319E-1,4.408224064E0
1.159479479E1,-5.207816189E0,4.183331966E-1,1.167515742E0,5.353451702E0
1.160475979E1,-6.800624045E0,6.668287522E-1,6.587274349E-1,6.864915864E0
1.161472379E1,-7.908140484E0,9.135303819E-1,4.962473452E-1,7.976182364E0
1.162468879E1,-7.277415365E0,2.706766757E0,1.540823185E-1,7.766022279E0
1.163465379E1,-6.342792907E0,4.893307908E0,3.625623076E-1,8.019160527E0
1.164461779E1,-7.205737272E0,6.249116419E0,4.671701650E-1,9.549468761E0
1.165458279E1,-8.395459716E0,7.202283322E0,-5.079008460E-2,1.106160967E1
1.166454779E1,-8.742073889E0,8.215081884E0,-1.387089653E-1,1.199711075E1
1.167451179E1,-8.553283668E0,8.880701432E0,1.642037027E-1,1.233095626E1
1.168447679E1,-8.106054701E0,9.340972613E0,4.062398390E-1,1.237444637E1
1.169444179E1,-7.954186138E0,9.480793573E0,5.588033433E-1,1.238817117E1
1.170440579E1,-7.908666149E0,9.476563112E0,7.079973896E-1,1.236339391E1
1.171437079E1,-7.769622284E0,9.412954761E0,8.241370527E-1,1.223314962E1
1.172433579E1,-7.535194545E0,9.358107879E0,8.481959331E-1,1.204461607E1
1.173429979E1,-7.475614341E0,9.236935444E0,7.665300648E-1,1.190770148E1
1.174426479E1,-7.557946061E0,8.977782168E0,6.793517339E-1,1.175519630E1
1.175422979E1,-7.490934631E0,8.575923502E0,5.873599751E-1,1.140199795E1
1.176419379E1,-7.107424527E0,8.050727177E0,5.945039570E-1,1.075560907E1
1.177415879E1,-6.458744947E0,7.452320788E0,5.949388437E-1,9.879596330E0
1.178412379E1,-6.148717387E0,6.965050673E0,4.654420204E-1,9.302434771E0
1.179408779E1,-5.679287712E0,6.584619713E0,3.697790873E-1,8.703347761E0
1.180405279E1,-4.960584801E0,6.036014645E0,4.219539388E-1,7.824252008E0
1.181401779E1,-4.278857929E0,5.081890553E0,7.913142192E-1,6.690322485E0
1.182398179E1,-4.002424377E0,3.516537128E0,1.304708963E0,5.485225587E0
1.183394679E1,-3.567597939E0,1.098210595E0,1.769637598E0,4.131033623E0
1.184391179E1,-2.014036594E0,-2.552788519E0,2.222040035E0,3.938341598E0
1.185387579E1,-9.946113825E-2,-6.812488046E0,2.128212104E0,7.137868915E0
1.186384079E1,2.658183412E0,-1.015555641E1,2.264502661E0,1.073914510E1
1.187380579E1,5.553749161E0,-1.233269582E1,2.082535994E0,1.368489942E1
1.188376979E1,8.176039440E0,-1.380300510E1,1.422730479E0,1.610573602E1
1.189373479E1,1.043328980E1,-1.499960737E1,1.048812587E0,1.830141430E1
1.190369979E1,1.256115239E1,-1.620596515E1,1.132066559E0,2.053527283E1
1.191366379E1,1.530026536E1,-1.729462198E1,1.624962280E0,2.314827362E1
1.192362879E1,1.799365310E1,-1.778788490E1,1.959556332E0,2.537755430E1
1.193359279E1,1.934594100E1,-1.626766029E1,1.657289196E0,2.533078783E1
1.194355779E1,1.812997625E1,-1.242418604E1,6.462272573E-1,2.198804328E1
1.195352279E1,1.532356885E1,-8.856618505E0,-5.435899115E-1,1.770725681E1
1.196348679E1,1.307711303E1,-5.950910175E0,-1.711499902E0,1.446905143E1
1.197345179E1,1.125135386E1,-4.373071775E0,-3.426453170E0,1.254819915E1
1.198341679E1,9.892144024E0,-3.465662844E0,-5.033032973E0,1.162741387E1
1.199338079E1,7.311126902E0,-2.670395322E0,-5.900408943E0,9.767211140E0
1.200334579E1,4.448669257E0,-1.923205361E0,-4.872019365E0,6.872113919E0
1.201331079E1,3.777289032E0,-6.172127885E-1,-3.182973940E0,4.977970185E0
1.202327492E1,2.103566821E0,7.014372522E-1,-1.845605647E0,2.885007417E0
1.203323992E1,1.155234396E-1,1.995565825E0,-4.213420276E-1,2.042830813E0
1.204320492E1,-1.867054549E0,2.436976812E0,6.398689950E-1,3.135949777E0
1.205316892E1,-3.617934279E0,2.696553426E0,9.492545307E-1,4.611066362E0
1.206313392E1,-5.075335824E0,3.345592024E0,9.486429119E-1,6.152393282E0
1.207309892E1,-6.083468308E0,3.970939459E0,5.367498386E-1,7.284575982E0
1.208306292E1,-6.463060777E0,4.637191676E0,2.692234965E-1,7.959094329E0
1.209302792E1,-6.935760216E0,5.318636128E0,3.541926031E-1,8.747463200E0
1.210299292E1,-7.365408944E0,6.009120376E0,4.825683689E-1,9.517964532E0
1.211295692E1,-7.936764944E0,6.586348734E0,8.189737420E-1,1.034615607E1
1.212292192E1,-8.793414781E0,7.027004846E0,1.144585447E0,1.131428374E1
1.213288692E1,-9.632622374E0,7.428718502E0,1.306313293E0,1.223436663E1
1.214285092E1,-9.734255168E0,7.959624633E0,1.313424823E0,1.264264342E1
1.215281592E1,-9.523397555E0,8.360601540E0,1.336270040E0,1.274285591E1
1.216278092E1,-9.264719074E0,8.626900113E0,1.275687185E0,1.272343518E1
1.217274492E1,-8.850912207E0,8.670978178E0,1.129501970E0,1.244187623E1
1.218270992E1,-8.847189285E0,8.629530190E0,9.366818476E-1,1.239431008E1
1.219267492E1,-8.972001611E0,8.436810640E0,7.339835123E-1,1.233755723E1
1.220263892E1,-8.758392298E0,8.132178891E0,5.653837267E-1,1.196500848E1
1.221260392E1,-8.431438218E0,7.864418514E0,4.278616731E-1,1.153782018E1
1.222256892E1,-8.013960469E0,7.539464182E0,3.514901662E-1,1.100866149E1
1.223253292E1,-7.633935306E0,6.995981859E0,2.685555983E-1,1.035822632E1
1.224249792E1,-7.342638717E0,6.403569451E0,1.104833590E-1,9.743318306E0
1.225246292E1,-6.853213903E0,5.713308567E0,7.775532357E-2,8.922694742E0
1.226242692E1,-6.154349425E0,4.713925856E0,1.236524581E-1,7.753218929E0
1.227239192E1,-5.233480203E0,3.296697022E0,1.738051231E-1,6.187708341E0
1.228235692E1,-3.874116000E0,1.455630423E0,2.455877352E-1,4.145835024E0
1.229232092E1,-2.055485167E0,-1.027859820E0,3.582284975E-1,2.325906863E0
1.230228592E1,2.250797957E-1,-4.065899996E0,3.334899513E-1,4.085758098E0
1.231225092E1,2.301578686E0,-7.109906670E0,2.939699364E-1,7.478934124E0
1.232221492E1,4.203520648E0,-9.060043722E0,2.008822632E-1,9.989711295E0
1.233217992E1,6.473366495E0,-8.832591711E0,3.691696613E-1,1.095698117E1
1.234214492E1,8.848848140E0,-7.653769646E0,5.574281513E-1,1.171294281E1
1.235210892E1,1.132175083E1,-7.505431048E0,1.101111472E0,1.362813206E1
1.236207392E1,1.343967081E1,-9.182769177E0,1.782500157E0,1.637453230E1
1.237203892E1,1.547385165E1,-1.173008412E1,2.427533412E0,1.956854304E1
1.238200292E1,1.790720085E1,-1.367267066E1,2.937636466E0,2.272090388E1
1.239196792E1,1.965849339E1,-1.387145143E1,2.660001311E0,2.420638623E1
1.240193292E1,1.908218480E1,-1.203881360E1,1.473915836E0,2.261051166E1
1.241189692E1,1.647175384E1,-9.193351468E0,7.926025070E-2,1.886379252E1
1.242186192E1,1.423486641E1,-6.933633583E0,-1.122619797E0,1.587346754E1
1.243182692E1,1.276644111E1,-5.447412282E0,-2.446278709E0,1.409399158E1
1.244179092E1,1.029742857E1,-4.779612308E0,-3.271808349E0,1.181467134E1
1.245175592E1,7.736541077E0,-4.737845061E0,-3.181525000E0,9.613706101E0
1.246172092E1,5.191397207E0,-4.618659511E0,-2.879291779E0,7.521498640E0
1.247168492E1,2.043193735E0,-3.975293881E0,-2.330984334E0,5.040941384E0
1.248164992E1,6.317869735E-1,-3.367395707E0,-7.127216475E-1,3.499497217E0
1.249161492E1,-3.576683342E-2,-1.919392977E0,2.081409967E-1,1.930976784E0
1.250157892E1,-2.361236073E0,-8.796960533E-1,2.299873638E-1,2.530255941E0
1.251154392E1,-3.501040837E0,5.405025816E-1,7.618442523E-1,3.623511646E0
1.252150892E1,-3.637991983E0,2.076816979E0,4.322579022E-1,4.211294496E0
1.253147292E1,-4.903761560E0,3.036325772E0,4.574089694E-1,5.785790749E0
1.254143792E1,-5.722853562E0,3.843621601E0,9.059922977E-1,6.953078595E0
1.255140292E1,-6.731912829E0,4.442216855E0,1.025342009E0,8.130391575E0
1.256136692E1,-7.394357339E0,5.080770811E0,8.389935851E-1,9.010808106E0
1.257133192E1,-7.768856884E0,5.769566967E0,9.135105014E-1,9.719955849E0
1.258129692E1,-7.904103566E0,6.518423384E0,1.201898540E0,1.031548626E1
1.259126092E1,-8.232755678E0,7.125516397E0,1.498538607E0,1.099076285E1
1.260122592E1,-8.018482706E0,7.831583474E0,1.359811077E0,1.129065325E1
1.261118992E1,-7.714278973E0,8.466969994E0,1.132652450E0,1.151010784E1
1.262115492E1,-7.616624624E0,8.897370674E0,8.977826607E-1,1.174658203E1
1.263111992E1,-7.557219252E0,9.148700375E0,6.528088832E-1,1.188429387E1
1.264108492E1,-7.540668708E0,9.282203418E0,4.758149079E-1,1.196859995E1
1.265104892E1,-7.646503311E0,9.340416543E0,3.742230443E-1,1.207693823E1
1.266101392E1,-7.702111502E0,9.333665932E0,4.012217586E-1,1.210788257E1
1.267097892E1,-7.746121740E0,9.242917145E0,4.956474209E-1,1.206977985E1
1.268094292E1,-7.785706805E0,9.101135615E0,6.406208007E-1,1.199409417E1
1.269090792E1,-7.542482514E0,8.809985206E0,8.151778758E-1,1.162623743E1
1.270087192E1,-7.119060486E0,8.401263662E0,1.001332026E0,1.105734684E1
1.271083692E1,-6.575059515E0,7.803643139E0,1.194995463E0,1.027405801E1
1.272080192E1,-5.834284535E0,7.105600780E0,1.356140195E0,9.293414588E0
1.273076692E1,-5.067245616E0,6.117573363E0,1.465927516E0,8.077785926E0
1.274073092E1,-4.312238513E0,4.485664006E0,1.467138474E0,6.392892762E0
1.275069592E1,-3.262407780E0,1.953592172E0,1.589887172E0,4.121597763E0
1.276066092E1,-1.544596978E0,-1.450891255E0,2.264553824E0,3.101462442E0
1.277062492E1,8.623286533E-1,-5.129772232E0,2.736777592E0,5.877765345E0
1.278058992E1,4.198676230E0,-7.967892011E0,2.892017951E0,9.459384389E0
1.279055392E1,6.987629111E0,-9.739344585E0,2.733085660E0,1.229437069E1
1.280051892E1,8.787101542E0,-1.019100457E1,2.107868764E0,1.362030978E1
1.281048392E1,8.487366836E0,-9.498268561E0,1.291426574E0,1.280313571E1
1.282044792E1,8.431487920E0,-9.111357717E0,1.060314206E0,1.245917711E1
1.283041292E1,8.217321952E0,-9.645368720E0,1.186682915E0,1.272657590E1
1.284037792E1,8.844700125E0,-1.087964168E1,1.395252074E0,1.409049509E1
1.285034192E1,1.021147684E1,-1.198254935E1,1.138363937E0,1.578453739E1
1.286030692E1,1.237060098E1,-1.289220536E1,5.610496974E-1,1.787611548E1
1.287027192E1,1.477053101E1,-1.367551825E1,-4.737519372E-1,2.013486595E1
1.288023592E1,1.544318066E1,-1.318527015E1,-1.722927700E0,2.037919669E1
1.289020092E1,1.517509167E1,-1.190383530E1,-2.729872030E0,1.947914021E1
1.290016592E1,1.381113156E1,-9.511832932E0,-3.785559919E0,1.719164869E1
1.291012992E1,1.175783617E1,-6.371635467E0,-5.052712362E0,1.429595580E1
1.292009492E1,8.127840257E0,-4.184869199E0,-5.928529372E0,1.089597990E1
1.293005992E1,5.243272535E0,-2.563787717E0,-5.046453502E0,7.715672834E0
1.294002392E1,2.875616219E0,-1.614771168E0,-2.929708811E0,4.411331803E0
1.294998892E1,1.406315006E0,-6.628660941E-1,-7.635456459E-1,1.732084094E0
1.295995392E1,-3.706450599E-1,3.683471042E-1,6.727655764E-1,8.518631759E-1
1.296991792E1,-2.110392276E0,1.249758731E0,1.511649088E0,2.881099687E0
1.297988292E1,-2.966300687E0,1.841615653E0,1.730141995E0,3.896649753E0
1.298984792E1,-4.237927419E0,2.378536230E0,1.637607615E0,5.128276719E0
1.299981192E1,-4.544947171E0,3.022789468E0,1.641612811E0,5.699885400E0
1.300977692E1,-5.554816863E0,3.531637563E0,1.729236846E0,6.805785357E0
1.301974204E1,-5.958421508E0,4.361612987E0,1.568752996E0,7.549002628E0
1.302970604E1,-6.045333352E0,5.091394032E0,1.345188214E0,8.017348680E0
1.303967104E1,-6.552736600E0,5.542011461E0,1.474411533E0,8.707820471E0
1.304963604E1,-7.019936732E0,5.963913798E0,1.733246720E0,9.372935704E0
1.305960004E1,-7.440943276E0,6.307050632E0,1.752980050E0,9.910573321E0
1.306956504E1,-7.159094033E0,6.797001695E0,1.599108231E0,1.000045032E1
1.307953004E1,-7.136743636E0,7.192752945E0,1.470018228E0,1.023864045E1
1.308949404E1,-7.351070986E0,7.432987554E0,1.290075867E0,1.053336814E1
1.309945904E1,-7.579233434E0,7.558273505E0,1.153089638E0,1.076577417E1
1.310942404E1,-7.791932920E0,7.676129984E0,1.058226896E0,1.098895056E1
1.311938804E1,-7.715525599E0,7.815139350E0,9.737343375E-1,1.102514838E1
1.312935304E1,-7.599296985E0,7.817634357E0,8.804819921E-1,1.093800577E1
1.313931804E1,-7.652233583E0,7.689300837E0,8.395103328E-1,1.088057001E1
1.314928204E1,-7.699149302E0,7.390408714E0,7.364802003E-1,1.069754383E1
1.315924704E1,-7.505523434E0,6.858345419E0,7.581992443E-1,1.019532491E1
1.316921204E1,-6.848181204E0,6.158765243E0,7.940825835E-1,9.244378955E0
1.317917604E1,-6.115195885E0,5.353172708E0,8.330740102E-1,8.169828092E0
1.318914104E1,-5.405103584E0,4.460146172E0,9.200688846E-1,7.067855076E0
1.319910604E1,-4.626130498E0,3.319218743E0,1.112942801E0,5.801460000E0
1.320907104E1,-3.777320607E0,1.287322998E0,1.246262680E0,4.180732249E0
1.321903504E1,-3.208081884E0,-2.932138914E-1,3.715950863E-1,3.242814622E0
1.322900004E1,-1.750320736E0,-1.375122449E0,1.875833559E-1,2.233779744E0
1.323896504E1,5.952640951E-2,-2.547874519E0,8.710734567E-1,2.693320799E0
1.324892904E1,1.550793273E0,-3.645217972E0,7.691325143E-1,4.035361033E0
1.325889404E1,1.513950552E0,-5.180502090E0,1.207727483E0,5.530664866E0
1.326885904E1,1.774667373E0,-6.127382652E0,1.732276229E0,6.610222642E0
1.327882304E1,3.992929668E0,-6.478855276E0,1.757641450E0,7.810784627E0
1.328878804E1,6.761196270E0,-7.756454355E0,1.409242268E0,1.038567874E1
1.329875304E1,8.740123258E0,-9.882725329E0,1.340738336E0,1.326105553E1
1.330871704E1,1.023549370E1,-1.223170856E1,1.460119915E-1,1.594996380E1
1.331868204E1,1.171947610E1,-1.364140911E1,-1.556377802E0,1.805149507E1
1.332864604E1,1.240732618E1,-1.365699427E1,-3.158834295E0,1.871986831E1
1.333861104E1,1.273766229E1,-1.301588918E1,-4.349555444E0,1.872378285E1
1.334857604E1,1.349252262E1,-1.235222202E1,-5.415736746E0,1.907762459E1
1.335854104E1,1.307122372E1,-1.156007398E1,-6.027130970E0,1.846127048E1
1.336850504E1,1.136213287E1,-9.819058506E0,-5.904616599E0,1.613618513E1
1.337847004E1,9.053522322E0,-7.258863319E0,-5.962762481E0,1.304652826E1
1.338843504E1,7.213134584E0,-4.745303770E0,-5.506982546E0,1.024080442E1
1.339839904E1,5.732271672E0,-3.261123147E0,-3.529743065E0,7.480170373E0
1.340836404E1,3.360519966E0,-2.229072627E0,-1.817471330E0,4.423241035E0
1.341832904E1,1.367816938E0,-1.246687188E0,-6.058509175E-1,1.947359098E0
1.342829304E1,4.912479758E-2,-3.238860458E-1,8.959016114E-2,3.396201016E-1
1.343825804E1,-1.265682453E0,7.207529444E-1,4.533847694E-1,1.525448992E0
1.344822304E1,-2.743751566E0,1.478979524E0,8.241672389E-1,3.224097506E0
1.345818704E1,-4.381423938E0,2.075130642E0,1.135949110E0,4.979299478E0
1.346815204E1,-5.252297128E0,2.904998478E0,1.484250058E0,6.182931304E0
1.347811704E1,-5.657858836E0,3.791929876E0,1.942885774E0,7.082718681E0
1.348808104E1,-5.820279869E0,4.723664394E0,2.440153166E0,7.883083821E0
1.349804604E1,-6.289275096E0,5.372486061E0,2.941996150E0,8.779175876E0
1.350801104E1,-6.979679237E0,6.008560213E0,3.258750347E0,9.769246230E0
1.351797504E1,-7.320618687E0,6.470366873E0,3.287579459E0,1.030850543E1
1.352794004E1,-7.492861873E0,6.938875027E0,2.946537098E0,1.062887795E1
1.353790504E1,-7.616552119E0,7.427225708E0,2.587679440E0,1.094859045E1
1.354786904E1,-7.572737178E0,7.844164928E0,2.315374753E0,1.114622053E1
1.355783404E1,-7.602666151E0,8.109047890E0,2.159989675E0,1.132354828E1
1.356779904E1,-7.663225763E0,8.258675800E0,2.066556870E0,1.145431850E1
1.357776304E1,-7.692413310E0,8.298778929E0,2.008015862E0,1.149239235E1
1.358772804E1,-7.747323927E0,8.209999484E0,1.949809169E0,1.145542995E1
1.359769304E1,-7.680995452E0,8.132819746E0,2.000217869E0,1.136403624E1
1.360765704E1,-7.626330417E0,7.990361107E0,2.054618171E0,1.123513427E1
1.361762204E1,-7.504253418E0,7.803496959E0,2.173303785E0,1.104226578E1
1.362758704E1,-7.188748772E0,7.567769968E0,2.352365409E0,1.069966701E1
1.363755104E1,-6.814626957E0,7.224567645E0,2.555544312E0,1.025496587E1
1.364751604E1,-6.382761549E0,6.745602915E0,2.666734965E0,9.662001814E0
1.365748104E1,-5.870706257E0,6.071932921E0,2.683833393E0,8.862083447E0
1.366744504E1,-5.061803613E0,5.081499374E0,2.603477447E0,7.630307105E0
1.367741004E1,-3.522259798E0,3.461718897E0,2.454284570E0,5.514827700E0
1.368737504E1,-2.615884654E0,1.432117015E0,2.552356410E0,3.925345196E0
1.369733904E1,-1.363223950E0,-1.421535893E0,1.663466195E0,2.578034836E0
1.370730404E1,9.186402637E-1,-4.220465294E0,-1.766341522E-2,4.319321617E0
1.371726904E1,3.306069524E0,-6.691834259E0,-2.132926422E0,7.762738986E0
1.372723304E1,5.747571496E0,-8.135835155E0,-3.621710411E0,1.059920648E1
1.373719804E1,7.828053510E0,-9.047361111E0,-4.398569144E0,1.274678686E1
1.374716304E1,9.192733417E0,-1.055480897E1,-4.431329924E0,1.468151985E1
1.375712704E1,1.047735909E1,-1.198007715E1,-4.339203533E0,1.649624167E1
1.376709204E1,1.201551127E1,-1.247720157E1,-4.531414375E0,1.790493749E1
1.377705704E1,1.294247739E1,-1.250367777E1,-4.470009255E0,1.854267136E1
1.378702104E1,1.359955240E1,-1.282209725E1,-4.074992416E0,1.913006969E1
1.379698604E1,1.546781498E1,-1.301544479E1,-4.138331795E0,2.063445888E1
1.380695104E1,1.586006726E1,-1.249850064E1,-4.462688541E0,2.068017990E1
1.381691504E1,1.439763301E1,-1.106735017E1,-4.139119999E0,1.862553061E1
1.382688004E1,1.182164333E1,-9.922177663E0,-3.201660472E0,1.576234406E1
1.383684504E1,1.007041627E1,-8.341087627E0,-2.291491216E0,1.327546454E1
1.384680904E1,6.570418580E0,-5.932347604E0,-1.680372834E0,9.010371872E0
1.385677404E1,3.543057175E0,-3.736553820E0,-1.106080217E0,5.266735425E0
1.386673904E1,3.249486603E0,-2.301837718E0,-5.164002125E-1,4.015506100E0
1.387670304E1,2.384716737E0,-1.256932095E0,1.089747043E-1,2.697893195E0
1.388666804E1,1.164934927E-1,-8.754451275E-2,8.563644934E-1,8.686742318E-1
1.389663304E1,-2.606094076E0,1.117648494E0,1.859977080E0,3.391220905E0
1.390659704E1,-3.108995553E0,1.962653602E0,2.594054074E0,4.499664326E0
1.391656204E1,-3.920508394E0,2.953138019E0,2.953836762E0,5.728574154E0
1.392652704E1,-4.770163207E0,4.026950523E0,2.800098259E0,6.841881159E0
1.393649104E1,-5.414535728E0,4.976274050E0,2.397746673E0,7.734965396E0
1.394645604E1,-6.076708342E0,5.633549037E0,2.076864341E0,8.542635689E0
1.395642104E1,-7.166825221E0,5.925461923E0,1.848358516E0,9.481081792E0
1.396638504E1,-7.704290759E0,6.323311738E0,1.994922631E0,1.016464873E1
1.397635004E1,-7.666562185E0,6.812431912E0,2.077047798E0,1.046420240E1
1.398631504E1,-7.826865356E0,7.133495507E0,1.953376994E0,1.076857749E1
1.399628004E1,-8.153632325E0,7.306756108E0,1.833014545E0,1.110091650E1
1.400624404E1,-8.414621041E0,7.430638728E0,1.785906891E0,1.136704458E1
1.401620904E1,-8.458509073E0,7.569667974E0,1.679337877E0,1.147459911E1
1.402617396E1,-8.451003587E0,7.721719555E0,1.478885823E0,1.154259580E1
1.403613796E1,-8.507138611E0,7.844873026E0,1.286497371E0,1.164338935E1
1.404610296E1,-8.445460426E0,8.002080681E0,1.229729386E0,1.169920217E1
1.405606796E1,-8.340399410E0,8.110844155E0,1.243303989E0,1.170016496E1
1.406603196E1,-8.334078569E0,8.110404444E0,1.244491997E0,1.169548144E1
1.407599696E1,-8.150345605E0,8.053948408E0,1.302378409E0,1.153214672E1
1.408596196E1,-7.841477548E0,7.831615049E0,1.445857240E0,1.117646937E1
1.409592596E1,-7.380826882E0,7.406649356E0,1.648041240E0,1.058541922E1
1.410589096E1,-6.870259121E0,6.755442025E0,1.859740998E0,9.813006365E0
1.411585596E1,-6.265852904E0,5.947320569E0,1.992133801E0,8.865671529E0
1.412581996E1,-4.931832288E0,4.787390274E0,1.899917363E0,7.131042093E0
1.413578496E1,-2.781912249E0,2.951672707E0,2.051105456E0,4.545155787E0
1.414574996E1,-2.897725711E0,1.960021770E-1,1.686864559E0,3.358681764E0
1.415571396E1,-3.323297176E0,-2.156765374E0,1.375832594E0,4.193907047E0
1.416567896E1,-9.068429214E-1,-4.017345886E0,1.139451738E0,4.273146653E0
1.417564396E1,2.658166455E0,-6.094342960E0,-2.660985982E-1,6.654147088E0
1.418560796E1,6.440292889E0,-7.635338638E0,-2.174683582E0,1.022276955E1
1.419557296E1,9.209307935E0,-9.499410523E0,-3.681017550E0,1.373317309E1
1.420553796E1,1.099060313E1,-1.220535399E1,-4.809599168E0,1.711421244E1
1.421550196E1,1.321764735E1,-1.465870184E1,-5.320201428E0,2.044231602E1
1.422546696E1,1.555946424E1,-1.616502645E1,-5.257346199E0,2.304440706E1
1.423543196E1,1.741804968E1,-1.631906433E1,-5.262146763E0,2.444157327E1
1.424539596E1,1.839898911E1,-1.535807210E1,-6.013981751E0,2.470953571E1
1.425536096E1,1.814315003E1,-1.334538797E1,-6.531011270E0,2.345053051E1
1.426532596E1,1.583156442E1,-1.107489542E1,-6.155539334E0,2.027763312E1
1.427528996E1,1.426269214E1,-9.389500995E0,-4.988940289E0,1.778979037E1
1.428525496E1,1.239623050E1,-8.262988122E0,-3.486131022E0,1.530021610E1
1.429521996E1,9.488041781E0,-6.641882665E0,-1.950251073E0,1.174482956E1
1.430518396E1,6.074876409E0,-4.422360295E0,-8.223839843E-1,7.558948960E0
1.431514896E1,1.505201948E0,-2.306081627E0,-7.344702199E-2,2.754821199E0
1.432511396E1,-6.956385684E-1,-1.104802746E0,4.176395707E-1,1.370738829E0
1.433507796E1,1.209916388E0,-1.165040762E0,7.960912482E-1,1.858757358E0
1.434504296E1,1.227883712E0,-6.143008751E-1,1.694600279E0,2.180993829E0
1.435500796E1,-1.469837987E0,1.269888940E0,2.635523697E0,3.273992484E0
1.436497296E1,-3.393529252E0,2.827043983E0,3.064944384E0,5.376067573E0
1.437493696E1,-5.040692241E0,3.782594796E0,3.396569220E0,7.159139901E0
1.438490196E1,-6.236015732E0,4.597568604E0,3.429369761E0,8.472668189E0
1.439486696E1,-6.726960238E0,5.272686369E0,3.041790580E0,9.072249198E0
1.440483096E1,-6.869458053E0,6.140328972E0,2.567121799E0,9.564685470E0
1.441479596E1,-6.990236385E0,6.996653119E0,2.271322707E0,1.014768281E1
1.442476096E1,-7.155325502E0,7.558513241E0,2.069625342E0,1.061193453E1
1.443472496E1,-7.292880081E0,7.893338842E0,1.965507482E0,1.092493101E1
1.444468996E1,-7.319284353E0,8.161540099E0,1.865328305E0,1.112034666E1
1.445465496E1,-7.454082554E0,8.415197577E0,1.743039783E0,1.137616300E1
1.446461896E1,-7.656517253E0,8.539614632E0,1.704066921E0,1.159530589E1
1.447458396E1,-7.782748114E0,8.604600586E0,1.653461901E0,1.171939656E1
1.448454896E1,-7.752545491E0,8.627210600E0,1.577153106E0,1.170547463E1
1.449451296E1,-7.703779712E0,8.551784441E0,1.500664801E0,1.160746457E1
1.450447796E1,-7.678503953E0,8.367533414E0,1.401674656E0,1.144288994E1
1.451444296E1,-7.684069918E0,8.131968391E0,1.323414352E0,1.126611139E1
1.452440696E1,-7.575946130E0,7.909491776E0,1.337838410E0,1.103380404E1
1.453437196E1,-7.430846888E0,7.544872271E0,1.382479416E0,1.067959889E1
1.454433696E1,-7.173329664E0,7.139284251E0,1.487275408E0,1.022927301E1
1.455430096E1,-6.880732069E0,6.697764505E0,1.630303127E0,9.739733644E0
1.456426596E1,-6.623677944E0,6.111272988E0,1.754713018E0,9.181491426E0
1.457423096E1,-6.240560773E0,5.384156519E0,1.867544546E0,8.451121985E0
1.458419496E1,-5.570021378E0,4.415203303E0,1.850038129E0,7.344508114E0
1.459415996E1,-4.677352692E0,2.993820607E0,1.787930027E0,5.834148080E0
1.460412496E1,-4.131147321E0,1.133855807E0,1.607891772E0,4.575731977E0
1.461408896E1,-2.823747908E0,-9.143513310E-1,1.351552177E0,3.261331613E0
1.462405396E1,-9.661138076E-1,-3.086696026E0,6.937802502E-1,3.307929758E0
1.463401896E1,1.179457072E0,-5.204258158E0,1.186984777E-2,5.336249887E0
1.464398396E1,2.852527319E0,-7.385546755E0,-7.063307869E-1,7.948717893E0
1.465394796E1,4.288491801E0,-9.792996297E0,-1.681855688E0,1.082231846E1
1.466391296E1,6.388860780E0,-1.164429026E1,-2.308487756E0,1.348095521E1
1.467387796E1,8.784879600E0,-1.276313627E1,-2.967307577E0,1.577582553E1
1.468384196E1,1.158678290E1,-1.345971273E1,-3.348106327E0,1.807283101E1
1.469380696E1,1.404453486E1,-1.458553797E1,-3.256476949E0,2.050832805E1
1.470377196E1,1.641965047E1,-1.550841571E1,-3.616976506E0,2.287353052E1
1.471373596E1,1.810571031E1,-1.591475276E1,-4.014595356E0,2.443794339E1
1.472370096E1,1.854041805E1,-1.502519245E1,-4.385966055E0,2.426396933E1
1.473366596E1,1.749892720E1,-1.276033662E1,-4.819463421E0,2.218706541E1
1.474362996E1,1.560308096E1,-9.729791989E0,-4.232649722E0,1.886903048E1
1.475359496E1,1.274523443E1,-6.758211851E0,-2.771755636E0,1.469003259E1
1.476355996E1,9.513417528E0,-4.191834403E0,-1.715865433E0,1.053664002E1
1.477352396E1,5.803098410E0,-2.417841799E0,-1.111204863E0,6.384096363E0
1.478348896E1,2.542750019E0,-1.115277448E0,-1.126546787E0,2.996419382E0
1.479345396E1,6.035688955E-1,-5.878252673E-1,-1.031488748E0,1.331841955E0
1.480341796E1,1.495922416E-1,2.307896018E-3,-7.001689911E-1,7.159747071E-1
1.481338296E1,3.621139723E-1,2.796331483E-1,6.798266009E-1,8.194421480E-1
1.482334796E1,7.359767550E-1,3.457826990E-1,2.477226998E0,2.607274642E0
1.483331196E1,-2.019733536E-1,8.693131524E-1,3.229545844E0,3.350591731E0
1.484327696E1,-3.023665380E0,2.487585048E0,3.166928011E0,5.035877752E0
1.485324196E1,-4.907859288E0,4.290159427E0,3.016039149E0,7.182551278E0
1.486320596E1,-5.434799253E0,5.878295943E0,2.678949798E0,8.442048219E0
1.487317096E1,-6.080336539E0,6.691950619E0,1.824780204E0,9.224018555E0
1.488313596E1,-7.304673915E0,7.241536265E0,1.299218427E0,1.036754923E1
1.489309996E1,-8.208755196E0,7.497876445E0,1.123463989E0,1.117425543E1
1.490306496E1,-8.984642707E0,7.625516485E0,1.141418888E0,1.183955841E1
1.491302996E1,-9.132842141E0,7.877924997E0,1.268897252E0,1.212767942E1
1.492299496E1,-8.833499783E0,8.258935416E0,1.508103336E0,1.218667749E1
1.493295896E1,-8.572015808E0,8.482043531E0,1.686757848E0,1.217660336E1
1.494292396E1,-8.365890346E0,8.597123167E0,1.799126422E0,1.212994245E1
1.495288896E1,-8.448467649E0,8.634387472E0,1.878856423E0,1.222535701E1
1.496285296E1,-8.705056921E0,8.548943864E0,1.821384287E0,1.233612167E1
1.497281796E1,-8.926772228E0,8.411246029E0,1.705431808E0,1.238324755E1
1.498278296E1,-9.129105771E0,8.208456988E0,1.555416812E0,1.237492060E1
1.499274696E1,-9.225438648E0,7.839591821E0,1.439159840E0,1.219176358E1
1.500271196E1,-9.084147699E0,7.305197825E0,1.487661470E0,1.175162931E1
1.501267696E1,-8.577228600E0,6.744587254E0,1.641957651E0,1.103423457E1
1.502264092E1,-7.958427123E0,6.130441915E0,1.841064845E0,1.021314839E1
1.503260592E1,-7.321952437E0,5.504451871E0,2.024239401E0,9.381232491E0
1.504257092E1,-6.763743902E0,4.636374235E0,2.170211631E0,8.482571317E0
1.505253492E1,-5.985335072E0,3.296387120E0,2.239857963E0,7.190783522E0
1.506249992E1,-4.430278594E0,1.273451064E0,2.449285201E0,5.219965903E0
1.507246492E1,-2.255233070E0,-1.771917427E0,2.502286702E0,3.806206289E0
1.508242892E1,2.945242524E-1,-5.594186751E0,1.766184086E0,5.873761671E0
1.509239392E1,3.028211006E0,-8.708099812E0,4.594333486E-1,9.231042370E0
1.510235892E1,4.911298621E0,-1.038121917E1,-1.144273133E0,1.154122726E1
1.511232392E1,7.327011448E0,-1.149309062E1,-2.833824999E0,1.392145082E1
1.512228792E1,1.020168159E1,-1.200876359E1,-3.800058675E0,1.620879872E1
1.513225292E1,1.155182473E1,-1.237033903E1,-3.854017950E0,1.735866921E1
1.514221792E1,1.259936277E1,-1.319494028E1,-3.507085104E0,1.857821404E1
1.515218192E1,1.540606254E1,-1.432853881E1,-3.467493607E0,2.132316344E1
1.516214692E1,1.746555597E1,-1.509501522E1,-4.145237356E0,2.345395751E1
1.517211192E1,1.849692061E1,-1.476054396E1,-3.758825279E0,2.396118732E1
1.518207592E1,1.760117044E1,-1.314954366E1,-3.341049907E0,2.222328315E1
1.519204092E1,1.610341902E1,-1.045797557E1,-3.916420605E0,1.959662490E1
1.520200592E1,1.316992589E1,-7.391493958E0,-4.478666643E0,1.575244698E1
1.521196992E1,9.205033035E0,-5.157208537E0,-3.731733960E0,1.119175015E1
1.522193492E1,6.265721342E0,-3.763684900E0,-2.015260416E0,7.581943188E0
1.523189992E1,3.858392837E0,-2.707768970E0,-8.814081911E-1,4.795423702E0
1.524186392E1,1.903175139E0,-1.532442371E0,-3.275937653E-1,2.465313957E0
1.525182892E1,2.369943162E0,-6.578526914E-1,2.327976087E-1,2.470545584E0
1.526179392E1,2.290468976E0,-2.787133813E-2,4.858276800E-1,2.341592082E0
1.527175792E1,-2.275806499E-1,6.465511930E-1,8.879395310E-1,1.121721003E0
1.528172292E1,-3.052426665E0,1.646706321E0,1.351607287E0,3.722336969E0
1.529168792E1,-4.569600787E0,3.081491420E0,1.526119777E0,5.718905690E0
1.530165192E1,-5.378061381E0,4.223872467E0,1.348372607E0,6.970132819E0
1.531161692E1,-5.765633546E0,5.055436580E0,1.207361228E0,7.762582710E0
1.532158192E1,-6.105849695E0,5.742417176E0,1.171503762E0,8.463402187E0
1.533154692E1,-6.305775939E0,6.330245367E0,1.220144411E0,9.017958138E0
1.534151092E1,-6.581034200E0,6.841921760E0,1.231945188E0,9.572857121E0
1.535147592E1,-6.934333495E0,7.258990788E0,1.071715107E0,1.009586557E1
1.536144092E1,-7.237190614E0,7.677508172E0,8.994619811E-1,1.058914971E1
1.537140492E1,-7.603554343E0,8.050578657E0,7.759757300E-1,1.110081050E1
1.538136992E1,-7.843094888E0,8.369375287E0,6.712311208E-1,1.148960971E1
1.539133492E1,-7.938743057E0,8.624609174E0,6.810227220E-1,1.174186172E1
1.540129892E1,-7.991093178E0,8.791353053E0,8.168292025E-1,1.190851244E1
1.541126392E1,-7.924983974E0,8.951646869E0,1.011570647E0,1.199835938E1
1.542122892E1,-7.858554341E0,9.049596502E0,1.136708078E0,1.203927649E1
1.543119292E1,-7.919933149E0,9.091862515E0,1.341704443E0,1.213208456E1
1.544115792E1,-7.981942286E0,9.039904742E0,1.625011396E0,1.216848152E1
1.545112292E1,-8.009587337E0,8.908441207E0,2.091529305E0,1.216093372E1
1.546108692E1,-8.129301476E0,8.331682965E0,2.482796763E0,1.190238477E1
1.547105192E1,-8.131436879E0,7.624574499E0,2.947468852E0,1.153004660E1
1.548101692E1,-8.011942595E0,6.901929980E0,3.434275575E0,1.111854803E1
1.549098092E1,-7.792032908E0,6.058228217E0,3.779670603E0,1.056900259E1
1.550094592E1,-7.461219665E0,5.072406954E0,3.850465182E0,9.809444088E0
1.551091092E1,-6.784881002E0,3.650671086E0,3.772090565E0,8.578500849E0
1.552087592E1,-5.607192128E0,1.115425383E0,3.740776094E0,6.832143377E0
1.553083992E1,-3.814039952E0,-2.369636183E0,3.523591794E0,5.707694414E0
1.554080492E1,-1.347918863E0,-6.224347029E0,2.657925550E0,6.901010754E0
1.555076992E1,1.259337639E0,-9.452950301E0,8.048144169E-1,9.570367126E0
1.556073392E1,3.532329288E0,-1.063565959E1,-9.767282581E-1,1.124938235E1
1.557069892E1,5.471322132E0,-9.912274818E0,-2.234634060E0,1.154045698E1
1.558066392E1,7.204911645E0,-8.912343639E0,-3.178970937E0,1.189312731E1
1.559062792E1,8.948216307E0,-8.701125253E0,-3.858018615E0,1.306386097E1
1.560059292E1,1.137891789E1,-9.330985569E0,-3.992109303E0,1.524742603E1
1.561055792E1,1.442921149E1,-1.069545439E1,-3.708746216E0,1.833983880E1
1.562052192E1,1.707792767E1,-1.199330355E1,-3.622144275E0,2.118053051E1
1.563048692E1,1.934240110E1,-1.222371308E1,-3.998259405E0,2.322786516E1
1.564045192E1,1.956190323E1,-1.120876391E1,-4.548973564E0,2.299994798E1
1.565041692E1,1.742318003E1,-9.952628793E0,-5.012081230E0,2.068194818E1
1.566038092E1,1.461196972E1,-9.579975214E0,-5.306049997E0,1.826033271E1
1.567034592E1,1.242608287E1,-9.577655039E0,-5.222431304E0,1.653519883E1
1.568031092E1,1.029819573E1,-9.130240715E0,-4.057208694E0,1.434834740E1
1.569027492E1,6.765592207E0,-7.723067338E0,-2.517083666E0,1.057141037E1
1.570023992E1,2.602577561E0,-5.736125572E0,-1.349286088E0,6.441825788E0
1.571020492E1,2.405390153E0,-4.370629978E0,3.567984147E-1,5.001561087E0
1.572016892E1,9.579423237E-1,-3.309870799E0,1.253285040E0,3.666554458E0
1.573013392E1,7.401475739E-1,-2.333817310E0,1.945468050E0,3.127198043E0
1.574009892E1,4.244505537E-1,-8.511657339E-1,2.433959649E0,2.613197457E0
1.575006292E1,-3.181508043E0,1.090251365E0,2.558020023E0,4.225412158E0
1.576002792E1,-5.556935894E0,3.006369317E0,2.671893378E0,6.859796442E0
1.576999292E1,-6.203678291E0,4.877999897E0,2.200894310E0,8.192950817E0
1.577995692E1,-6.852674205E0,5.720727514E0,1.685262130E0,9.084380854E0
1.578992192E1,-7.411483249E0,6.041022785E0,1.617576077E0,9.697452892E0
1.579988692E1,-7.353282403E0,6.501391615E0,1.442386479E0,9.920651883E0
1.580985192E1,-7.085642479E0,6.814391314E0,1.312150276E0,9.917862505E0
1.581981592E1,-6.954062001E0,7.130945536E0,1.135611214E0,1.002491772E1
1.582978092E1,-7.002837719E0,7.491293650E0,7.997436384E-1,1.028585468E1
1.583974592E1,-7.289472908E0,7.784021053E0,5.539255229E-1,1.067868122E1
1.584970992E1,-7.652740536E0,7.994716698E0,3.930616037E-1,1.107404308E1
1.585967492E1,-7.920706151E0,8.191004219E0,2.573934098E-1,1.139720963E1
1.586963992E1,-8.000983744E0,8.454233004E0,4.120546027E-1,1.164729950E1
1.587960392E1,-7.993289393E0,8.737351677E0,7.979392608E-1,1.186889619E1
1.588956892E1,-7.919727327E0,8.904772080E0,1.183897448E0,1.197575300E1
1.589953392E1,-7.924396913E0,8.846625613E0,1.610165462E0,1.198546970E1
1.590949792E1,-7.960440904E0,8.654457455E0,2.109872897E0,1.194653995E1
1.591946292E1,-8.011056742E0,8.263628392E0,2.651424615E0,1.181078477E1
1.592942792E1,-7.954182045E0,7.573853996E0,3.202154854E0,1.144054509E1
1.593939192E1,-7.414774062E0,6.984099732E0,3.583566685E0,1.079807731E1
1.594935692E1,-6.817838248E0,6.509697585E0,3.704573351E0,1.012832389E1
1.595932192E1,-6.217103498E0,6.054404138E0,3.498829420E0,9.356815306E0
1.596928692E1,-5.592406858E0,5.488570833E0,3.058545191E0,8.411547001E0
1.597925092E1,-4.680600235E0,4.702629620E0,2.555090568E0,7.109938939E0
1.598921592E1,-3.831744152E0,3.377516068E0,2.183151519E0,5.554820302E0
1.599918092E1,-2.746119688E0,1.551339988E0,2.063008633E0,3.768797384E0
1.600914492E1,-1.097290244E0,-8.126828688E-1,1.763640693E0,2.230454622E0
1.601910983E1,6.000383466E-1,-3.487569437E0,8.248912704E-1,3.633680256E0
1.602907483E1,3.194901676E0,-6.132469729E0,-3.476450372E-1,6.923542357E0
1.603903883E1,5.745816162E0,-8.535703429E0,-1.378163002E0,1.038132793E1
1.604900383E1,7.866891886E0,-1.074461661E1,-2.695837727E0,1.358684346E1
1.605896883E1,9.518511037E0,-1.259184091E1,-4.028744448E0,1.629071183E1
1.606893283E1,1.165731903E1,-1.402834042E1,-4.936420598E0,1.889591676E1
1.607889783E1,1.405363430E1,-1.548962042E1,-5.213603178E0,2.155492138E1
1.608886283E1,1.635449495E1,-1.670062790E1,-4.809537188E0,2.386445317E1
1.609882683E1,1.839400728E1,-1.737115384E1,-5.724972593E0,2.593977257E1
1.610879183E1,1.781394711E1,-1.565776763E1,-6.831941732E0,2.468152805E1
1.611875683E1,1.551159659E1,-1.156225032E1,-6.669144723E0,2.046393786E1
1.612872183E1,1.320581259E1,-8.657185181E0,-5.234422774E0,1.663548987E1
1.613868583E1,1.061363547E1,-7.803091747E0,-3.590417283E0,1.365388571E1
1.614865083E1,8.535559587E0,-7.635715199E0,-2.831056927E0,1.179723728E1
1.615861583E1,5.780249830E0,-7.005042120E0,-2.019376856E0,9.303751184E0
1.616857983E1,3.165077952E0,-5.615026812E0,-1.077570509E0,6.535090110E0
1.617854483E1,-2.234150934E-1,-3.670511858E0,-4.842558753E-1,3.709053162E0
1.618850983E1,-2.432544038E0,-2.382208866E0,8.791391060E-2,3.405865299E0
1.619847383E1,-2.725540997E0,-1.530537348E0,1.031935476E0,3.291809400E0
1.620843883E1,-1.430204390E0,-1.126552050E0,1.381520327E0,2.285432679E0
1.621840383E1,-8.491080987E-1,-8.163432258E-1,2.501755775E0,2.765173193E0
1.622836783E1,-2.829558286E0,1.152237114E0,3.236447897E0,4.450690446E0
1.623833283E1,-4.267557015E0,3.211463329E0,3.178889076E0,6.215374111E0
1.624829783E1,-4.762922600E0,4.752422755E0,2.869823967E0,7.314837205E0
1.625826283E1,-5.234159065E0,5.871764603E0,2.560329673E0,8.272202168E0
1.626822683E1,-5.744718055E0,6.729817772E0,2.345354451E0,9.153847294E0
1.627819183E1,-6.063421129E0,7.449335784E0,2.144455962E0,9.841563432E0
1.628815683E1,-6.312163437E0,7.994552976E0,1.982988610E0,1.037730834E1
1.629812083E1,-6.593735522E0,8.462246613E0,1.731361870E0,1.086667289E1
1.630808583E1,-6.900208560E0,8.830466248E0,1.525530378E0,1.131005107E1
1.631805083E1,-7.087205440E0,9.118817595E0,1.331290551E0,1.162556019E1
1.632801483E1,-7.235156368E0,9.331746876E0,1.136182998E0,1.186254185E1
1.633797983E1,-7.404819762E0,9.459985671E0,9.956404924E-1,1.205462503E1
1.634794483E1,-7.635305309E0,9.427385105E0,8.592894168E-1,1.216190180E1
1.635790983E1,-7.772937655E0,9.373236964E0,8.263505892E-1,1.220487551E1
1.636787383E1,-7.846745889E0,9.233672698E0,9.915648369E-1,1.215793294E1
1.637783883E1,-7.850039626E0,9.004105164E0,1.256982819E0,1.201153769E1
1.638780383E1,-7.738619177E0,8.571128200E0,1.606352931E0,1.165893799E1
1.639776783E1,-7.351544611E0,7.905180039E0,1.959144688E0,1.097156905E1
1.640773283E1,-6.726701206E0,7.322100956E0,2.203897440E0,1.018424447E1
1.641769783E1,-6.213622066E0,6.781635797E0,2.304423795E0,9.482091135E0
1.642766183E1,-6.028494540E0,6.230864335E0,2.336846752E0,8.979268875E0
1.643762683E1,-5.563181305E0,5.697484832E0,2.229094262E0,8.269170507E0
1.644759183E1,-5.020912864E0,4.970323339E0,1.997801654E0,7.341995065E0
1.645755583E1,-4.490520118E0,3.861736860E0,1.794217977E0,6.188457050E0
1.646752083E1,-3.523928593E0,2.401159108E0,1.711834509E0,4.594998931E0
1.647748583E1,-1.989750184E0,4.458250505E-1,1.783460416E0,2.708984464E0
1.648745083E1,-4.351287389E-1,-2.084799598E0,1.838912047E0,2.813773960E0
1.649741483E1,1.415513261E0,-5.002579504E0,1.335034085E0,5.367662014E0
1.650737983E1,2.663934149E0,-6.935447974E0,2.044478953E-1,7.432279778E0
1.651734483E1,3.303742332E0,-7.505215285E0,-1.029200002E0,8.264515867E0
