"Time (s)","Linear Acceleration x (m/s^2)","Linear Acceleration y (m/s^2)","Linear Acceleration z (m/s^2)","Absolute acceleration (m/s^2)"
1.342383336E-2,-8.615740702E-1,1.767578208E-1,-1.677046938E0,1.893684144E0
2.339183335E-2,-9.435923794E-1,2.645163417E-2,-1.076501638E0,1.431754882E0
3.335883335E-2,-9.809891242E-1,-1.721800357E-1,-3.808741790E-1,1.066325826E0
4.332683334E-2,-9.659945244E-1,-3.285158712E-1,1.051750374E-1,1.025733829E0
5.329383333E-2,-8.168569037E-1,-3.586383873E-1,2.142525065E-1,9.174861473E-1
6.326183333E-2,-6.534741502E-1,-2.545544404E-1,2.075416571E-1,7.313685579E-1
7.322883332E-2,-4.843232645E-1,1.865144849E-2,2.521962583E-2,4.853379550E-1
8.319683332E-2,-2.558091067E-1,2.326168567E-1,-5.719489074E-1,6.683370809E-1
9.316383337E-2,-2.624701086E-1,-5.432063341E-2,-1.260828094E0,1.289003015E0
1.031318334E-1,-8.502651165E-1,2.925914553E-1,-1.422008933E0,1.682459489E0
1.130988334E-1,-8.423867244E-1,5.873814636E-1,-1.895018858E0,2.155395289E0
1.230668334E-1,-8.083195303E-1,3.457090241E-1,-2.368770211E0,2.526651441E0
1.330338334E-1,-1.032479120E0,1.793732804E-1,-2.770995498E0,2.962533368E0
1.430018333E-1,-1.118968649E0,-1.164367747E-1,-2.555273001E0,2.791964984E0
1.529688333E-1,-1.048974116E0,-3.049086151E-1,-1.912264636E0,2.202287901E0
1.629368333E-1,-1.110205281E0,-5.258447814E-1,-1.111422379E0,1.656601402E0
1.729038333E-1,-9.772276103E-1,-6.633025888E-1,-1.274365568E-1,1.187932743E0
1.828718333E-1,-8.488427813E-1,-7.788157958E-1,1.103476013E0,1.595226449E0
1.928398333E-1,-5.760880052E-1,-7.147819139E-1,2.125180469E0,2.314990842E0
2.028068334E-1,-8.517280899E-1,8.802953929E-2,2.398636034E0,2.546889233E0
2.127748334E-1,-8.511173482E-1,5.394259630E-1,2.741505650E0,2.920827681E0
2.227418334E-1,-3.229317802E-1,8.170779285E-1,2.710556923E0,2.849389427E0
2.327098334E-1,2.576794848E-3,5.255278623E-1,2.618338146E0,2.670558147E0
2.426768334E-1,6.856315704E-1,-5.773643062E-2,2.770697290E0,2.854853344E0
2.526448334E-1,1.737603334E0,-5.208365681E-1,2.288087990E0,2.919911425E0
2.626118333E-1,2.725447734E0,-1.363190767E0,1.484633197E0,3.389762551E0
2.725798333E-1,3.027660198E0,-2.342351175E0,1.058869359E0,3.971717465E0
2.825468333E-1,3.128027363E0,-2.782789332E0,1.101728865E0,4.329235283E0
2.925148333E-1,2.467862974E0,-2.467254279E0,1.877323430E0,3.962579286E0
3.024818333E-1,1.839001801E0,-1.985331881E0,2.814095324E0,3.904177609E0
3.124498333E-1,1.482893212E0,-1.464015184E0,3.391921268E0,3.980884654E0
3.224168334E-1,1.581732206E0,-1.304797987E0,3.420134084E0,3.987692529E0
3.323848334E-1,2.493393380E0,-1.448765499E0,1.380681397E0,3.197219595E0
3.423518334E-1,1.785992845E0,1.904220329E-1,-1.106828222E0,2.109762950E0
3.523198334E-1,-3.927175681E-1,1.885853055E0,-1.095574086E0,2.216066653E0
3.622868333E-1,-1.251356044E0,1.365717788E0,-4.473400640E-1,1.905568198E0
3.722548333E-1,-1.056334445E0,2.866989237E-1,7.843981326E-2,1.097356613E0
3.822218333E-1,-8.612612441E-1,-6.385796839E-1,1.699504924E-1,1.085558894E0
3.921898333E-1,-7.199264404E-1,-1.240843188E0,-2.638982910E-1,1.458639162E0
4.021568333E-1,-1.149087511E0,-1.359332336E0,-8.661556560E-1,1.979497948E0
4.121248333E-1,-2.252900762E0,-1.537936123E0,-4.451620932E0,5.220894395E0
4.220918334E-1,-3.930528182E0,-1.749019438E0,-4.724438565E0,6.389713651E0
4.320598334E-1,-4.358838483E0,-1.992427332E0,-1.335896988E0,4.975325151E0
4.420268334E-1,-3.933628084E0,-2.112278003E0,-2.015362158E0,4.898656233E0
4.519948334E-1,-3.089585428E0,-1.251822213E0,-2.249158983E0,4.021357121E0
4.619618334E-1,-1.946508270E0,3.446003920E-1,-9.724369866E-1,2.203015562E0
4.719298334E-1,-8.044430456E-1,1.128903800E0,-4.481557506E-1,1.456844528E0
4.818978333E-1,1.351831308E-1,7.616393074E-1,-5.314838362E-1,9.385328879E-1
4.918648333E-1,9.027016309E-1,4.622697598E-1,-7.115149283E-1,1.238877338E0
5.018328333E-1,1.353951290E0,7.146674547E-1,-5.718582755E-1,1.634305832E0
5.117998333E-1,1.505044365E0,6.043877980E-1,9.290430450E-1,1.869107844E0
5.217678333E-1,1.494680468E0,-2.322654390E-1,2.133565376E0,2.615361954E0
5.317348333E-1,9.435688443E-1,-7.113064751E-1,5.915815187E-1,1.321456681E0
5.417028333E-1,1.124901234E-1,3.807677597E-2,-7.577067626E-1,7.669572392E-1
5.516698334E-1,-6.951981269E-1,5.614397067E-1,-1.487355076E0,1.735148438E0
5.616378334E-1,-1.381913259E0,7.334627447E-1,-1.995452973E0,2.535642803E0
5.716048334E-1,-2.006770259E0,7.652335909E-1,-2.455250530E0,3.262049124E0
5.815732917E-1,-2.315829228E0,7.631160218E-1,-2.470449198E0,3.471099295E0
5.915402917E-1,-1.802192556E0,7.527673271E-1,-1.481303793E0,2.451288963E0
6.015082917E-1,-1.150020142E0,4.953190997E-1,-1.580695934E0,2.016553241E0
6.114752917E-1,-6.106998673E-1,2.921415120E-2,-1.838052945E0,1.937071610E0
6.214432917E-1,1.039517999E-1,-2.250603537E-1,-1.754889166E0,1.772313213E0
6.314102917E-1,8.702829131E-1,-1.480705038E-1,-1.404983010E0,1.659305422E0
6.413782917E-1,1.572893117E0,1.654528141E-2,-1.134328262E0,1.939321301E0
6.513452917E-1,2.106759109E0,-3.680336203E-1,-2.143551251E0,3.027985247E0
6.613132917E-1,2.261755932E0,-3.499566608E-1,-1.533232915E0,2.754779979E0
6.712802917E-1,1.882279822E0,-6.464370078E-2,-1.219926236E0,2.243964384E0
6.812482917E-1,1.472985544E0,3.828984851E-1,-6.407355523E-1,1.651314540E0
6.912152917E-1,1.423549382E0,7.367157700E-1,2.336114681E-1,1.619820140E0
7.011832917E-1,1.374105619E0,9.448008527E-1,5.509041935E-1,1.756220468E0
7.111502917E-1,8.868407661E-1,9.679255673E-1,9.285776067E-1,1.607987195E0
7.211182917E-1,1.098884779E-1,5.901071432E-1,1.220964702E0,1.360535454E0
7.310862917E-1,-5.403812519E-1,8.178749040E-2,1.077536595E0,1.208216125E0
7.410532917E-1,-7.609712631E-1,-3.251465593E-1,8.892802244E-1,1.214749713E0
7.510212917E-1,-5.774885595E-1,-5.343293837E-1,1.059604939E0,1.319758899E0
7.609882917E-1,-4.123748839E-1,-8.137724975E-1,6.975202024E-1,1.148395905E0
7.709562917E-1,-3.387631166E-1,-1.089267864E0,-9.192232311E-2,1.144427648E0
7.809232917E-1,-5.627974302E-1,-8.464584330E-1,-1.070300665E0,1.476067865E0
7.908912917E-1,-9.115049064E-1,-5.678786606E-1,-1.944479871E0,2.221335034E0
8.008582917E-1,-8.004294437E-1,-5.145348045E-1,-1.552338107E0,1.820765487E0
8.108262917E-1,-9.483856344E-1,-3.933003893E-1,-6.504939705E-1,1.215427050E0
8.207932917E-1,-1.419404583E0,-5.323214498E-1,2.049706364E-1,1.529734767E0
8.307612917E-1,-1.658136458E0,-9.011676139E-1,7.700888264E-1,2.038272892E0
8.407282917E-1,-1.731499134E0,-9.824094129E-1,5.091246682E-1,2.054854115E0
8.506962917E-1,-1.580336330E0,-9.056392720E-1,-6.335844076E-1,1.928490241E0
8.606632917E-1,-1.427877198E0,-9.281241551E-1,-1.461037928E0,2.243853731E0
8.706312917E-1,-9.546602815E-1,-6.156229305E-1,-1.550659372E0,1.922215475E0
8.805982917E-1,-1.920985758E-1,4.172543854E-2,-1.383433097E0,1.397329599E0
8.905662917E-1,-2.887296617E-2,1.939606217E-1,-9.428027129E-1,9.629804393E-1
9.005332917E-1,3.185680032E-2,-2.105208135E-1,-4.608395308E-1,5.076484431E-1
9.105012917E-1,-2.460157514E-1,-4.532118380E-1,-3.798146635E-1,6.404560084E-1
9.204682917E-1,-8.031495684E-1,-2.860352647E-1,-4.793974239E-1,9.781039270E-1
9.304362917E-1,-9.265112007E-1,-8.160432637E-2,-6.903614563E-1,1.158309635E0
9.404042917E-1,-5.598059946E-1,4.490778565E-2,-1.086806771E0,1.223334957E0
9.503712917E-1,-2.204423690E-1,2.638023967E-1,-1.225385197E0,1.272696124E0
9.603392917E-1,3.368838215E-1,3.411043417E-1,-1.194252867E0,1.286888803E0
9.703062917E-1,1.198482158E0,3.978030378E-1,-1.344674243E0,1.844655946E0
9.802742917E-1,1.983453902E0,5.979877281E-1,-1.607148737E0,2.621946942E0
9.902412917E-1,2.762911722E0,8.954092759E-1,-1.651336146E0,3.341010330E0
1.000209292E0,3.792122834E0,1.240969196E0,-1.464039304E0,4.250130729E0
1.010176292E0,4.314398475E0,1.516489998E0,-1.290571126E0,4.751773347E0
1.020144292E0,3.771549990E0,1.427676639E0,-1.404500030E0,4.270300955E0
1.030111292E0,3.190650750E0,1.204054554E0,-1.237946478E0,3.628017511E0
1.040079292E0,2.639833680E0,8.905549175E-1,-7.565724027E-1,2.886903483E0
1.050046292E0,2.107740564E0,5.301734751E-1,2.955855221E-2,2.173597917E0
1.060014292E0,1.600413330E0,2.372080904E-1,9.849433038E-1,1.894123495E0
1.069981292E0,9.622756952E-1,-9.748887241E-2,1.582838061E0,1.854954156E0
1.079949292E0,1.931364566E-1,-6.324974102E-1,1.831474535E0,1.947216895E0
1.089916292E0,-4.061452603E-1,-8.911986959E-1,1.806216609E0,2.054655087E0
1.099884292E0,-7.166066837E-1,-1.009621185E0,1.330293601E0,1.817289504E0
1.109852292E0,-8.323605037E-1,-9.305329156E-1,7.224442515E-1,1.442442793E0
1.119819292E0,-8.159105319E-1,-4.850271231E-1,6.675482520E-1,1.160423188E0
1.129787292E0,-6.312092686E-1,-1.479158449E-1,1.017560242E0,1.206537643E0
1.139754292E0,-6.612329668E-1,-4.383832991E-2,1.339073780E0,1.494078119E0
1.149722292E0,-1.058717331E0,-1.376808786E-1,1.437371030E0,1.790495432E0
1.159689292E0,-1.624190447E0,-2.946487981E-1,1.100156549E0,1.983723004E0
1.169657292E0,-2.081431017E0,-4.620750475E-1,2.262512854E-1,2.144075109E0
1.179624292E0,-2.235800434E0,-4.189278585E-1,-7.582122543E-1,2.397746849E0
1.189592292E0,-2.215397744E0,-2.000227225E-1,-1.279697352E0,2.566246591E0
1.199559292E0,-2.017566558E0,-9.176620245E-2,-1.652171275E0,2.609342019E0
1.209527292E0,-1.536705576E0,-4.267297983E-3,-1.790457925E0,2.359496094E0
1.219494292E0,-1.051539874E0,1.465195298E-2,-1.691394397E0,1.991674118E0
1.229462292E0,-7.657431757E-1,-1.848597229E-2,-1.733294960E0,1.894997562E0
1.239429292E0,-5.240789223E-1,-4.287763238E-2,-1.771031135E0,1.847443772E0
1.249397292E0,-5.783305585E-1,-1.594904083E-1,-1.506112652E0,1.621196701E0
1.259364292E0,-6.546226895E-1,-3.101942056E-1,-1.210818028E0,1.410968323E0
1.269332292E0,-4.816924560E-1,-4.668767810E-1,-7.395891649E-1,9.984957103E-1
1.279299292E0,6.737395763E-2,-8.418037570E-1,1.807538080E-1,8.636230396E-1
1.289267292E0,9.016786605E-1,-1.384500214E0,1.508528282E0,2.237302579E0
1.299235292E0,1.473130555E0,-1.869369462E0,3.095097306E0,3.904392802E0
1.309202292E0,8.773589212E-1,-1.661765240E0,3.337579585E0,3.830229742E0
1.319170292E0,9.188098329E-1,-1.803299434E0,3.385278831E0,3.944136549E0
1.329137292E0,1.258346536E0,-1.666588608E0,3.782311791E0,4.320513404E0
1.339105292E0,2.000171092E0,-1.982796090E0,3.638645702E0,4.601294087E0
1.349072292E0,2.083875153E0,-1.835448595E0,3.382763944E0,4.376585324E0
1.359040292E0,1.529768440E0,-1.636930361E0,3.143020501E0,3.859832943E0
1.369007292E0,8.868968993E-1,-1.539604041E0,2.785204232E0,3.303684205E0
1.378975292E0,4.111563241E-1,-1.468520610E0,2.398413109E0,2.842180104E0
1.388942292E0,3.745895916E-1,-5.148830062E-1,4.637701553E-1,7.877211621E-1
1.398910292E0,8.978645217E-1,-9.042134285E-3,-2.067677781E-2,8.981480884E-1
1.408877292E0,1.349939076E0,8.389117241E-2,2.864865236E-1,1.382551181E0
1.418845292E0,1.142992081E0,1.281294519E-1,4.752309904E-1,1.244464764E0
1.428812292E0,5.299910420E-1,2.758991164E-1,1.020020458E0,1.182138977E0
1.438780292E0,-1.989515126E-1,6.475908279E-2,1.704590686E0,1.717383140E0
1.448748292E0,-4.714762008E-1,-9.446410775E-2,1.432159699E0,1.510726540E0
1.458715292E0,-9.560706300E-1,1.194399047E-1,6.160199565E-1,1.143598499E0
1.468683292E0,-9.661676019E-1,6.020053500E-1,-8.316624923E-1,1.409805936E0
1.478650292E0,-1.376212370E-1,1.321633290E0,-2.577137495E0,2.899533036E0
1.488618292E0,8.582917356E-1,1.815123088E0,-4.547840958E0,4.971337236E0
1.498585292E0,4.738232732E-1,1.902760572E0,-5.153732952E0,5.514160828E0
1.508553292E0,-3.189387167E-1,1.774221815E0,-4.868192655E0,5.191231518E0
1.518520292E0,-9.001262248E-1,1.660268353E0,-4.635311211E0,5.005280037E0
1.528488292E0,-9.504058474E-1,1.667234141E0,-3.873686230E0,4.323006588E0
1.538455292E0,-1.316827464E0,1.718218938E0,-3.049281448E0,3.739575943E0
1.548423292E0,-1.652150078E0,1.307411692E0,-2.043635784E0,2.935195468E0
1.558390292E0,-1.933352619E0,9.827777874E-1,-1.342877102E0,2.550886795E0
1.568358292E0,-2.254264187E0,1.226780342E0,-1.079627559E0,2.784293932E0
1.578324667E0,-1.298415751E0,6.176244324E-1,8.015947938E-3,1.437848273E0
1.588292667E0,2.549748552E-1,-2.644964612E-1,2.288288111E0,2.317592077E0
1.598259667E0,-1.251534530E0,-2.549865496E-1,2.596799342E0,2.893911478E0
1.608227667E0,-1.826915753E0,-1.029370741E0,2.590462714E0,3.332824983E0
1.618195667E0,-1.430578027E0,-2.099231111E0,2.667321441E0,3.683466902E0
1.628162667E0,-1.930771074E0,-1.813047912E0,2.606485255E0,3.716017364E0
1.638130667E0,-2.000484502E0,-1.526065398E0,2.113594942E0,3.286045864E0
1.648097667E0,-5.957248557E-1,-1.482477329E0,1.547183202E0,2.224051032E0
1.658065667E0,9.690555418E-1,-9.451012534E-1,1.280066019E0,1.863022822E0
1.668032667E0,1.026495372E0,-8.856777549E-2,1.532059963E0,1.846278617E0
1.678000667E0,2.137201175E-1,1.310361028E-1,1.706915100E0,1.725226335E0
1.687967667E0,2.612389773E-2,4.939143062E-2,1.458332860E0,1.459402858E0
1.697935667E0,1.056670806E-1,5.978602588E-2,7.204329555E-1,7.305912292E-1
1.707902667E0,-1.243340242E-1,4.100833601E-1,-7.813648894E-2,4.355830836E-1
1.717870667E0,-1.724434528E-1,8.995280546E-1,-5.455107218E-1,1.066053194E0
1.727837667E0,4.724325129E-1,1.147503793E0,-8.681828856E-1,1.514496271E0
1.737805667E0,6.708747330E-1,1.920710354E0,-4.593229093E-1,2.085708203E0
1.747772667E0,1.095049590E0,2.600640378E0,-2.161013961E-1,2.830046606E0
1.757740667E0,2.400727583E0,2.408915439E0,-5.408189160E-1,3.443668338E0
1.767708667E0,1.924811592E0,2.415817493E0,-4.370116885E-1,3.119623861E0
1.777675667E0,1.773027229E0,2.194476407E0,-3.943549347E-1,2.848660750E0
1.787643667E0,1.395803466E0,2.403264690E0,-8.562861407E-1,2.908122150E0
1.797610667E0,1.347923249E0,1.672821740E0,-1.288939753E0,2.505313423E0
1.807578667E0,1.212899930E0,5.175943601E-1,-1.571925549E0,2.051823601E0
1.817545667E0,5.313481808E-1,1.808368385E-2,-1.443741133E0,1.538520838E0
1.827513667E0,4.633614349E-1,-8.443683457E-1,-1.043352018E0,1.419945476E0
1.837480667E0,-2.961439312E-2,-5.164956683E-1,4.599922693E-1,6.922699441E-1
1.847448667E0,2.146425158E-1,3.550569677E-1,9.713868266E-1,1.056280847E0
1.857415667E0,6.107071763E-1,-1.309893250E-2,8.625352062E-1,1.056930376E0
1.867383667E0,1.198371060E0,-2.851195908E-1,7.652659699E-1,1.450178742E0
1.877350667E0,1.263592658E0,-6.249246812E-1,-2.409526473E-1,1.430124275E0
1.887318667E0,1.271300458E0,-1.786408582E0,-7.258289123E-1,2.309607777E0
1.897286667E0,9.998189127E-1,-3.039070455E0,1.648645842E-1,3.203555434E0
1.907253667E0,4.352182013E-1,-1.974049825E0,1.143738186E0,2.322590070E0
1.917221667E0,-5.386905295E-1,-1.757655483E0,8.481914015E-1,2.024591055E0
1.927188667E0,-1.346080499E0,-1.881215921E0,5.506866771E-1,2.377848159E0
1.937156667E0,-3.298443586E-1,-1.893536589E0,9.538812862E-1,2.145732421E0
1.947123667E0,1.639670366E-1,-8.574567533E-1,1.720252599E0,1.929089494E0
1.957091667E0,1.034547865E-1,-8.614468932E-2,1.813733205E0,1.818722612E0
1.967058667E0,-2.847184718E-2,4.959210706E-1,1.405019848E0,1.490244653E0
1.977026667E0,1.479842573E-1,4.610038376E-1,3.980445278E-1,6.267881020E-1
1.986993667E0,1.487958509E-1,1.952788764E0,7.185168229E-1,2.086094578E0
1.996961667E0,-8.854608232E-1,2.704299817E0,-1.212694985E-1,2.848154606E0
2.006928667E0,-1.920936057E0,3.017797700E0,-8.784429950E-1,3.683579833E0
2.016896667E0,-1.251407061E0,1.745272250E0,-1.114789644E0,2.419659234E0
2.026864667E0,-5.375111461E-1,7.762383431E-1,-2.561103845E-1,9.782927611E-1
2.036831667E0,-5.716179550E-1,-4.574803054E-2,4.642838332E-1,7.378342948E-1
2.046799667E0,-1.770801778E0,-1.235524853E0,9.577511197E-1,2.362106646E0
2.056766667E0,-2.544571427E0,-2.790564959E0,7.869998512E-1,3.857650231E0
2.066734667E0,-1.240055276E0,-1.558504581E0,1.276750063E0,2.365748156E0
2.076701667E0,-5.333754104E-1,-5.892853171E-1,1.551490553E0,1.743235340E0
2.086669667E0,-4.196090591E-1,1.322330278E-1,1.154449700E0,1.235439778E0
2.096636667E0,-3.792796433E-1,1.112380153E0,2.739291894E-1,1.206764208E0
2.106604667E0,-2.558981305E-1,1.525411094E0,-4.675638288E-2,1.547433042E0
2.116571667E0,7.598620462E-1,1.417560956E0,1.872708222E-1,1.619240487E0
2.126539667E0,6.091681892E-1,1.155838999E0,9.482955873E-2,1.309977984E0
2.136506667E0,4.227379042E-1,9.393984640E-1,-3.150915411E-1,1.077246253E0
2.146474667E0,2.608413666E-1,8.628771222E-1,-6.087553757E-1,1.087739975E0
2.156441667E0,8.773279309E-2,8.181125933E-1,-6.325544205E-1,1.037848907E0
2.166409667E0,2.315479857E-1,3.466843396E-1,-4.368492821E-1,6.038557744E-1
2.176377667E0,6.700371194E-1,-1.683401692E-1,3.585334298E-1,7.783536306E-1
2.186344667E0,9.361836648E-1,-4.698921901E-1,8.065868542E-1,1.322051768E0
2.196312667E0,8.819261813E-1,-1.291783254E0,1.033714052E0,1.874849996E0
2.206279667E0,1.020577113E0,-1.595708660E0,1.085676504E0,2.183244659E0
2.216247667E0,9.319017488E-1,-1.758680500E0,9.790861478E-1,2.218109027E0
2.226214667E0,7.356370318E-1,-1.894344090E0,7.229418495E-1,2.156929830E0
2.236182667E0,8.374534285E-1,-1.880064604E0,4.759171611E-1,2.112455516E0
2.246149667E0,8.934311628E-1,-1.879785692E0,3.799707842E-1,2.115701134E0
2.256117667E0,5.503773594E-1,-1.784870179E0,1.268436491E-1,1.872102055E0
2.266084667E0,3.835937190E-1,-1.841194069E0,9.615804613E-2,1.883185097E0
2.276052667E0,6.077584255E-1,-1.267501522E0,1.657925373E-1,1.415421342E0
2.286019667E0,7.413959545E-1,-9.520062304E-1,-9.251113772E-2,1.210182686E0
2.295987667E0,5.392857760E-1,-1.073314320E0,-2.462297595E-1,1.226157361E0
2.305955667E0,4.167193651E-1,-7.467046416E-1,-2.306311423E-1,8.856712566E-1
2.315922667E0,4.860451233E-1,-4.559629530E-1,-8.382802248E-2,6.716913084E-1
2.325890667E0,4.843342280E-1,-4.564535344E-1,3.794229001E-2,6.666101491E-1
2.335857667E0,2.185934794E-1,-4.640829813E-1,7.741158038E-2,5.187954082E-1
2.345825667E0,-2.435605055E-1,-5.370375216E-1,-3.298648238E-2,5.906091156E-1
2.355792667E0,-6.472791713E-1,-5.704274619E-1,-2.597014520E-1,9.010009207E-1
2.365760667E0,-6.248112452E-1,-4.335382962E-1,-3.499722290E-1,8.371529774E-1
2.375727667E0,-3.999214840E-1,-1.202409732E-1,-3.976989573E-1,5.766797601E-1
2.385695667E0,-3.468948394E-1,1.236346972E-1,-4.588634643E-1,5.883682918E-1
2.395662667E0,-3.000206351E-1,3.031389552E-1,-4.050196713E-1,5.881722042E-1
2.405630667E0,-2.329039550E-1,3.758058125E-1,-2.795656130E-1,5.230976896E-1
2.415597667E0,-1.136260182E-1,4.913982493E-1,-1.117285967E-1,5.165911253E-1
2.425565667E0,5.785995305E-2,5.885321957E-1,6.206556290E-2,5.946175692E-1
2.435532667E0,2.609512943E-1,5.888917994E-1,2.555420351E-1,6.929580515E-1
2.445500667E0,4.601524830E-1,5.946711874E-1,3.921511191E-1,8.480310306E-1
2.455468667E0,6.809825224E-1,5.066343391E-1,3.994993150E-1,9.380912813E-1
2.465435667E0,8.335796481E-1,4.638028997E-1,3.321814907E-1,1.010105293E0
2.475403667E0,1.094960713E0,4.428821468E-1,2.913106227E-1,1.216530081E0
2.485370667E0,1.152771549E0,4.744196892E-1,3.277978331E-1,1.288956053E0
2.495338667E0,1.173474786E0,7.110132372E-1,3.215448207E-1,1.409245886E0
2.505305667E0,1.179311476E0,6.682151270E-1,1.289872384E-1,1.361589043E0
2.515273667E0,1.278613570E0,7.388296115E-1,-4.117024541E-2,1.477300527E0
2.525240667E0,1.431936336E0,7.381478262E-1,-1.412792552E-1,1.617177699E0
2.535208667E0,1.452293417E0,4.950176758E-1,-2.522547305E-1,1.554937657E0
2.545175667E0,1.398197901E0,2.490551341E-1,-4.835822761E-1,1.500279190E0
2.555143667E0,1.343025329E0,-6.129051447E-2,-7.591872776E-1,1.543968550E0
2.565110667E0,1.290506222E0,-3.969013971E-1,-9.470273262E-1,1.649180944E0
2.575079958E0,1.106538785E0,-8.211934912E-1,-1.175568089E0,1.811283292E0
2.585047958E0,1.009974357E0,-1.044816746E0,-1.351436548E0,1.984457351E0
2.595014958E0,9.743308997E-1,-1.305678577E0,-1.508358275E0,2.220194121E0
2.604982958E0,1.080419857E0,-1.297750922E0,-1.496356865E0,2.256224366E0
2.614949958E0,1.301491971E0,-1.399873713E0,-1.152894925E0,2.232194990E0
2.624917958E0,1.236478534E0,-1.542413628E0,-8.012568247E-1,2.133056836E0
2.634884958E0,9.744677246E-1,-1.714656814E0,-5.090346211E-1,2.036848443E0
2.644852958E0,4.935161108E-1,-1.924958941E0,-2.265293205E-1,2.000085151E0
2.654819958E0,1.394011295E-1,-1.868822163E0,2.211066127E-2,1.874144560E0
2.664787958E0,-2.350247401E-1,-1.859351428E0,2.288471568E-1,1.888066572E0
2.674754958E0,-5.171423703E-1,-1.824624229E0,3.672507513E-1,1.931725375E0
2.684722958E0,-5.776283079E-1,-1.756166198E0,4.698021430E-1,1.907482170E0
2.694690958E0,-5.754981673E-1,-1.756213560E0,5.223966783E-1,1.920516206E0
2.704657958E0,-5.673418862E-1,-1.636716937E0,4.903679699E-1,1.800327719E0
2.714625958E0,-5.641978383E-1,-1.417304848E0,3.528361952E-1,1.565747621E0
2.724592958E0,-7.457994926E-1,-1.370351121E0,5.651626289E-2,1.561176853E0
2.734560958E0,-9.087502831E-1,-1.367924819E0,-2.273052460E-1,1.657924324E0
2.744527958E0,-8.709193826E-1,-1.353393027E0,-4.771731430E-1,1.678650489E0
2.754495958E0,-8.135248679E-1,-1.422562079E0,-6.638817555E-1,1.768118934E0
2.764462958E0,-7.601292640E-1,-1.574076886E0,-7.296155691E-1,1.894162986E0
2.774430958E0,-5.729072660E-1,-1.564944119E0,-7.057250154E-1,1.809784692E0
2.784397958E0,-4.152897209E-1,-1.510882518E0,-5.261359727E-1,1.652891586E0
2.794365958E0,-2.728205574E-1,-1.672155157E0,-2.677656394E-1,1.715293667E0
2.804332958E0,-6.218338430E-2,-1.262920228E0,9.121130168E-2,1.267735689E0
2.814300958E0,-2.741800350E-1,-1.209090176E0,3.004983526E-1,1.275685308E0
2.824268958E0,-5.918838197E-1,-1.561042857E0,4.501788872E-1,1.729116043E0
2.834235958E0,-7.520150828E-1,-1.911681084E0,5.907412738E-1,2.137528129E0
2.844203958E0,-6.097885787E-1,-1.734721534E0,9.094197893E-1,2.051376432E0
2.854170958E0,-5.984958512E-1,-1.620195045E0,1.087113165E0,2.040844017E0
2.864138958E0,-6.625544375E-1,-1.692097671E0,1.144017098E0,2.147311815E0
2.874105958E0,-6.748996639E-1,-1.670122665E0,1.084145118E0,2.102420013E0
2.884073958E0,-6.626485777E-1,-1.617184314E0,1.024682736E0,2.025922740E0
2.894040958E0,-5.630044216E-1,-1.412918267E0,8.297675559E-1,1.732577907E0
2.904008958E0,-5.022559440E-1,-1.235686237E0,6.649488723E-1,1.490415550E0
2.913975958E0,-4.194394898E-1,-1.155213931E0,6.538417938E-1,1.392105529E0
2.923943958E0,-4.892628461E-1,-1.236226519E0,7.707472229E-1,1.536777610E0
2.933910958E0,-5.261698866E-1,-1.038647348E0,7.431255609E-1,1.381259810E0
2.943878958E0,-3.711508441E-1,-5.205489582E-1,5.022132593E-1,8.129835944E-1
2.953846958E0,-1.745867497E-1,-1.026975721E-1,2.856090027E-1,3.501425808E-1
2.963813958E0,-1.894211358E-1,1.027279776E-1,1.202593920E-1,2.467705927E-1
2.973781958E0,5.319738328E-2,2.003963596E-1,5.352482736E-2,2.141344663E-1
2.983748958E0,2.567249268E-1,3.581156462E-1,8.282113194E-2,4.483456747E-1
2.993716958E0,4.802978951E-1,5.020705873E-1,1.988246280E-1,7.226978451E-1
3.003683958E0,6.586134142E-1,6.507717133E-1,3.817226100E-1,1.001492687E0
3.013651958E0,9.988055903E-1,8.507301164E-1,5.795654905E-1,1.434311854E0
3.023618958E0,1.355978665E0,1.178281782E0,8.044786406E-1,1.968301801E0
3.033586958E0,1.566552104E0,1.442111660E0,9.994458604E-1,2.352161466E0
3.043553958E0,1.429679895E0,1.412434117E0,9.008407545E-1,2.202377988E0
3.053521958E0,8.695353466E-1,1.032815335E0,4.195295370E-1,1.413790744E0
3.063489958E0,6.247457564E-2,4.123146576E-1,-6.225647449E-2,4.216424054E-1
3.073456958E0,-7.794110423E-1,-2.751641214E-1,-3.952133060E-2,8.275015421E-1
3.083424958E0,-1.201361327E0,-6.277523947E-1,4.376734471E-1,1.424394662E0
3.093391958E0,-7.642100358E-1,-3.522894806E-1,1.090591673E0,1.377503196E0
3.103359958E0,2.016119957E-2,-7.531213760E-2,1.687505268E0,1.689305307E0
3.113326958E0,2.535960817E-1,-2.094344008E-1,1.951617567E0,1.979137405E0
3.123294958E0,5.421316159E-1,-6.414921820E-2,1.911031458E0,1.987476552E0
3.133261958E0,1.999110407E-1,2.580914211E-1,1.181018279E0,1.225308035E0
3.143229958E0,-2.731626195E-1,4.943622029E-1,-2.079328358E-2,5.651939180E-1
3.153196958E0,-2.503502923E-1,6.437275726E-1,-8.678168499E-1,1.109128731E0
3.163164958E0,-1.324522984E-1,5.081557846E-1,-1.248896851E0,1.354809676E0
3.173131958E0,1.407424808E-2,3.645586932E-1,-1.309910207E0,1.359766846E0
3.183099958E0,3.386029029E-1,2.701974964E-1,-1.172127587E0,1.249616619E0
3.193067958E0,3.984023774E-1,3.594301003E-1,-1.040746499E0,1.170926012E0
3.203034958E0,5.139234781E-1,5.449043655E-1,-9.903113401E-1,1.241674136E0
3.213002958E0,5.935719109E-1,4.950083202E-1,-7.754390287E-1,1.094836306E0
3.222969958E0,3.879726988E-1,2.331121159E-1,-3.535261667E-1,5.743211855E-1
3.232937958E0,2.692888391E-1,-3.535869777E-2,1.067023301E-1,2.918083337E-1
3.242904958E0,3.754619962E-1,-2.838127381E-1,4.772579277E-1,6.702958380E-1
3.252872958E0,3.790065783E-1,-4.105289179E-1,7.600807321E-1,9.433465419E-1
3.262839958E0,3.442758715E-1,-3.719793946E-1,8.861812001E-1,1.020887685E0
3.272807958E0,2.690426713E-1,-2.645520097E-1,8.640021265E-1,9.427997663E-1
3.282774958E0,1.122612780E-1,-1.465306395E-1,6.993749392E-1,7.233250503E-1
3.292742958E0,-1.362027025E-1,-1.222109002E-1,4.064083850E-1,4.457066925E-1
3.302710958E0,-1.614264214E-1,-2.339196163E-1,1.770712316E-1,3.348598177E-1
3.312677958E0,-5.365463555E-2,-2.940658307E-1,-5.603971481E-2,3.041282334E-1
3.322645958E0,1.384515417E-1,-2.922093397E-1,-1.140183663E-1,3.428634064E-1
3.332612958E0,3.291485399E-1,-3.636266470E-1,2.435879874E-1,5.476296261E-1
3.342580958E0,3.506464130E-1,-5.339700723E-1,6.172391009E-1,8.882910856E-1
3.352547958E0,2.488604218E-1,-7.765213484E-1,7.941664910E-1,1.138251874E0
3.362515958E0,3.576274037E-2,-1.010036922E0,7.113441896E-1,1.235906191E0
3.372482958E0,-5.546142519E-2,-1.017622515E0,3.579361367E-1,1.080161946E0
3.382450958E0,-3.589839578E-2,-8.516481292E-1,1.209625196E-1,8.609443431E-1
3.392417958E0,-1.819010317E-2,-8.768829578E-1,1.747615814E-1,8.943132627E-1
3.402385958E0,-1.117385370E-1,-9.875508696E-1,1.975926197E-1,1.013304033E0
3.412353958E0,-3.133856159E-1,-9.702811182E-1,2.787250757E-2,1.020016112E0
3.422320958E0,-3.430105340E-1,-8.879160690E-1,-2.082719743E-2,9.520950290E-1
3.432288958E0,-4.823701483E-1,-1.019891235E0,5.268926024E-3,1.128222873E0
3.442255958E0,-4.416477996E-1,-9.379524475E-1,-8.760824740E-2,1.040424326E0
3.452223958E0,-4.365922970E-1,-9.199050164E-1,-2.615664214E-1,1.051311118E0
3.462190958E0,-4.195079023E-1,-1.034083012E0,-3.808689165E-1,1.179141928E0
3.472158958E0,-3.529718506E-1,-1.027358129E0,-4.638221955E-1,1.181179445E0
3.482125958E0,-4.174730712E-1,-9.676446086E-1,-5.122874272E-1,1.171775688E0
3.492093958E0,-5.906699377E-1,-9.881695050E-1,-5.471713310E-1,1.274663254E0
3.502060958E0,-7.646316200E-1,-1.038193020E0,-4.424494529E-1,1.363182959E0
3.512028958E0,-7.420368093E-1,-1.059680368E0,-3.542477131E-2,1.294139105E0
3.521996958E0,-7.890607023E-1,-1.065452739E0,5.259909618E-1,1.426349474E0
3.531963958E0,-1.145247937E0,-1.032645766E0,8.085716915E-1,1.741188759E0
3.541931958E0,-1.514453997E0,-9.081895351E-1,7.957101560E-1,1.936887656E0
3.551898958E0,-1.491971453E0,-6.716392565E-1,7.530237275E-1,1.801144870E0
3.561866958E0,-1.593538173E0,-5.270411217E-1,8.174851871E-1,1.866927499E0
3.571833958E0,-1.648932940E0,-4.256755453E-1,9.519606221E-1,1.951001932E0
3.581800917E0,-1.733513499E0,-2.015821749E-1,1.112208245E0,2.069471335E0
3.591767917E0,-1.630907729E0,9.473249495E-2,1.254503161E0,2.059760289E0
3.601735917E0,-1.700414751E0,1.683454317E-1,1.224448765E0,2.102147780E0
3.611702917E0,-2.130653463E0,1.192182952E-1,1.038242136E0,2.373150630E0
3.621670917E0,-2.341343261E0,-3.618490934E-2,8.399946284E-1,2.487727595E0
3.631638917E0,-2.001594304E0,-2.543948114E-2,9.815194666E-1,2.229441048E0
3.641605917E0,-1.796051225E0,1.756930429E-1,1.303066626E0,2.225904464E0
3.651573917E0,-1.813216896E0,2.702483672E-1,1.425664612E0,2.322349947E0
3.661540917E0,-1.739683481E0,3.162039739E-1,1.571502064E0,2.365608232E0
3.671508917E0,-1.572729687E0,3.262834042E-1,1.863661118E0,2.460319551E0
3.681475917E0,-1.320190197E0,3.296514004E-1,2.166950347E0,2.558758685E0
3.691443917E0,-1.033891223E0,2.650794286E-1,2.506904833E0,2.724659613E0
3.701410917E0,-7.294565248E-1,2.041853553E-1,2.899413802E0,2.996731365E0
3.711378917E0,-4.343089592E-1,2.751085728E-1,3.354618079E0,3.393784238E0
3.721345917E0,-3.198122907E-1,4.168561900E-1,3.840760266E0,3.876530460E0
3.731313917E0,-3.209332019E-1,4.572861779E-1,4.185869073E0,4.222985753E0
3.741281917E0,-3.667917448E-1,4.586070639E-1,4.466540687E0,4.504979726E0
3.751248917E0,-3.441700369E-1,6.001383340E-1,4.663785982E0,4.714819055E0
3.761216917E0,-5.631400770E-1,7.353341460E-1,4.719865458E0,4.809882846E0
3.771183917E0,-2.949645478E-1,8.516761959E-1,4.732605371E0,4.817666451E0
3.781151917E0,5.432121813E-2,1.080220467E0,4.778624128E0,4.899497485E0
3.791118917E0,2.551479328E-1,1.280851884E0,4.659114349E0,4.838701121E0
3.801086917E0,5.367352206E-1,1.507404009E0,4.391942202E0,4.674345714E0
3.811053917E0,9.916605851E-1,1.632173066E0,4.149422209E0,4.567831466E0
3.821021917E0,1.168471323E0,1.565514808E0,4.069396631E0,4.513994991E0
3.830988917E0,9.888012967E-1,1.406955861E0,3.872236120E0,4.236916965E0
3.840956917E0,3.662897614E-1,1.197133790E0,3.093718825E0,3.337423207E0
3.850924917E0,-2.477427265E-1,1.265995279E0,2.004933941E0,2.384089053E0
3.860891917E0,-4.049761096E-1,1.846034394E0,1.250897476E0,2.266405332E0
3.870859917E0,-4.477590171E-1,2.354488971E0,7.725639528E-1,2.518126588E0
3.880826917E0,-6.031733313E-1,2.667494518E0,4.317879322E-1,2.768715567E0
3.890794917E0,-7.367456639E-1,2.831094350E0,2.422212008E-1,2.935397844E0
3.900761917E0,-8.834876803E-1,2.851529199E0,2.944219261E-1,2.999742243E0
3.910729917E0,-8.990976995E-1,2.790791831E0,7.142441162E-1,3.017787331E0
3.920696917E0,-6.793645978E-1,2.808850957E0,1.350023276E0,3.189630511E0
3.930664917E0,-4.317586961E-1,2.841064437E0,1.737617368E0,3.358180582E0
3.940631917E0,-1.466490456E-1,3.008117049E0,1.983643937E0,3.606260860E0
3.950599917E0,1.483467847E-2,3.222160226E0,2.105801042E0,3.849277155E0
3.960567917E0,1.441949692E-1,3.374211806E0,2.195997852E0,4.028461750E0
3.970534917E0,5.062919846E-1,3.369234071E0,2.317886571E0,4.120760604E0
3.980502917E0,8.403787905E-1,3.238137742E0,2.502168004E0,4.177632974E0
3.990469917E0,1.096913683E0,3.160097879E0,2.661463992E0,4.274672948E0
4.000437917E0,1.663227044E0,3.033781648E0,2.880626406E0,4.502017745E0
4.010404917E0,2.209404640E0,2.887519396E0,3.044936966E0,4.742454877E0
4.020372917E0,2.671857418E0,2.936034329E0,2.988968880E0,4.969210663E0
4.030339917E0,2.901745379E0,3.100535801E0,2.576063654E0,4.966845321E0
4.040307917E0,2.946748767E0,3.318920535E0,1.926706089E0,4.838466510E0
4.050274917E0,3.080789169E0,3.332767911E0,1.370217805E0,4.740896612E0
4.060242917E0,3.009725326E0,3.208554924E0,9.550204700E-1,4.501703604E0
4.070210917E0,3.139524450E0,3.282395318E0,4.935149413E-1,4.568838998E0
4.080177917E0,3.684705097E0,3.644837319E0,-3.323791265E-2,5.182952391E0
4.090145917E0,4.088314127E0,3.852240981E0,-5.294566065E-1,5.642197912E0
4.100112917E0,4.325126069E0,3.943207285E0,-8.839376235E-1,5.919201376E0
4.110080917E0,4.377807435E0,3.972746249E0,-1.426541694E0,6.081359380E0
4.120047917E0,4.431024992E0,3.937209796E0,-1.878174199E0,6.217969265E0
4.130015917E0,4.681877852E0,3.797463681E0,-2.185415561E0,6.412234540E0
4.139982917E0,4.832225554E0,3.529710320E0,-2.283783855E0,6.405070448E0
4.149950917E0,5.069997901E0,3.133857914E0,-2.026109340E0,6.295320738E0
4.159917917E0,5.093963299E0,2.788809040E0,-1.626190195E0,6.030788713E0
4.169885917E0,5.084755104E0,2.440123783E0,-1.203627707E0,5.766945309E0
4.179853917E0,5.009993774E0,2.077237979E0,-1.323364651E0,5.582674022E0
4.189820917E0,4.759277153E0,1.484212198E0,-1.647554752E0,5.250527738E0
4.199788917E0,4.695953270E0,6.841131216E-1,-1.913572658E0,5.116810353E0
4.209755917E0,4.526890677E0,-1.427539229E-2,-2.447439820E0,5.146154356E0
4.219723917E0,4.249987886E0,-9.900634181E-1,-2.820568192E0,5.195981864E0
4.229690917E0,4.540986560E0,-2.060223166E0,-2.772140967E0,5.705247056E0
4.239658917E0,4.413368154E0,-2.820476975E0,-2.455521256E0,5.784677474E0
4.249625917E0,4.791160851E0,-3.284747652E0,-2.044508774E0,6.158311909E0
4.259593917E0,5.153645829E0,-3.464693375E0,-1.978033533E0,6.517421436E0
4.269560917E0,5.458280502E0,-3.551011142E0,-1.627106454E0,6.711928306E0
4.279528917E0,5.850879518E0,-3.608189895E0,-1.233193569E0,6.983737669E0
4.289496917E0,5.932521851E0,-3.030323605E0,-1.174498633E0,6.764401208E0
4.299463917E0,5.517275984E0,-2.084386200E0,-1.550746495E0,6.098345252E0
4.309431917E0,5.015704165E0,-5.230293471E-1,-1.940827115E0,5.403485713E0
4.319398917E0,4.223086309E0,5.821248168E-1,-2.477822537E0,4.930814516E0
4.329366917E0,3.827381252E0,1.606927713E0,-2.613478525E0,4.905235358E0
4.339333917E0,3.505870637E0,2.292569296E0,-2.308738017E0,4.783019353E0
4.349301917E0,3.054771983E0,2.552390324E0,-1.954862187E0,4.434840967E0
4.359268917E0,2.402879943E0,2.687369789E0,-1.369654133E0,3.856389613E0
4.369236917E0,1.710534234E0,2.714828314E0,-6.103656989E-1,3.266307767E0
4.379203917E0,1.284899327E0,2.674448612E0,-8.668029428E-2,2.968358996E0
4.389171917E0,1.139158354E0,2.551351858E0,4.728157979E-1,2.833837123E0
4.399139917E0,9.484356281E-1,2.396889471E0,1.039454849E0,2.779402033E0
4.409106917E0,8.259791449E-1,2.382483101E0,1.477717111E0,2.922689709E0
4.419074917E0,6.379107624E-1,2.272326236E0,1.728017117E0,2.925139282E0
4.429041917E0,4.999498022E-1,2.080880209E0,1.953766419E0,2.897794932E0
4.439009917E0,4.782268113E-1,1.959479148E0,2.187832800E0,2.975713659E0
4.448976917E0,3.535337681E-1,1.971509795E0,2.154646343E0,2.941825600E0
4.458944917E0,2.289529914E-1,1.667537026E0,2.103607167E0,2.694116241E0
4.468911917E0,1.118788701E-1,1.448383384E0,2.240598074E0,2.670320400E0
4.478879917E0,-1.739248449E-1,1.394532866E0,2.412448912E0,2.791931503E0
4.488846917E0,-1.511978871E-1,1.605223249E0,2.554314643E0,3.020616787E0
4.498814917E0,-5.736305666E-1,1.435188557E0,2.556508518E0,2.987399207E0
4.508782917E0,-1.488723325E0,8.882271409E-1,2.227373427E0,2.822487728E0
4.518749917E0,-2.032058297E0,4.116129917E-1,1.907689775E0,2.817439699E0
4.528717917E0,-1.856025531E0,-1.461084706E-1,1.662573325E0,2.496062603E0
4.538684917E0,-1.789146248E0,-4.820351028E-1,8.158514750E-1,2.024602619E0
4.548652917E0,-1.893637746E0,-5.064279324E-1,-1.273523569E-3,1.960187436E0
4.558619917E0,-1.749503880E0,-6.773899931E-1,-5.882123530E-2,1.876987205E0
4.568587917E0,-1.534611104E0,-8.413962060E-1,3.215366346E-1,1.779428173E0
4.578554792E0,-1.449159894E0,-9.946482199E-1,7.625511807E-1,1.915952448E0
4.588522792E0,-1.563675274E0,-1.353560257E0,1.025828497E0,2.308577449E0
4.598489792E0,-1.723491372E0,-1.430413136E0,1.014389005E0,2.458757674E0
4.608457792E0,-1.877502939E0,-1.374455282E0,8.756491953E-1,2.486142820E0
4.618425792E0,-1.957786379E0,-1.430431847E0,6.792996937E-1,2.518037103E0
4.628392792E0,-2.022933133E0,-1.481302038E0,7.475782156E-1,2.616369121E0
4.638360792E0,-2.065294456E0,-1.667045276E0,8.972716141E-1,2.801709744E0
4.648327792E0,-2.150278473E0,-1.871741093E0,9.781900620E-1,3.013962181E0
4.658295792E0,-2.222247173E0,-1.881977229E0,8.952011150E-1,3.046572799E0
4.668262792E0,-2.408647637E0,-1.948260096E0,5.807787877E-1,3.151920817E0
4.678230792E0,-2.534274480E0,-2.200203170E0,2.277636677E-1,3.363824820E0
4.688197792E0,-2.501645848E0,-2.312932810E0,2.554297686E-1,3.416596917E0
4.698165792E0,-2.522464859E0,-2.395670911E0,2.644040751E-1,3.488836137E0
4.708132792E0,-2.695771653E0,-2.586591858E0,2.377203065E-1,3.743548208E0
4.718100792E0,-2.772260835E0,-2.661744366E0,2.348154098E-1,3.850383291E0
4.728068792E0,-2.806764085E0,-2.664210137E0,3.731786585E-1,3.887827491E0
4.738035792E0,-2.873207166E0,-2.576477344E0,6.511950517E-1,3.913771828E0
4.748003792E0,-3.126592748E0,-2.552545860E0,6.693559188E-1,4.091345735E0
4.757970792E0,-3.317549948E0,-2.545065517E0,6.384925604E-1,4.229795372E0
4.767938792E0,-3.495148598E0,-2.581955016E0,5.646024656E-1,4.381932378E0
4.777905792E0,-3.565353193E0,-2.642454987E0,5.038969651E-1,4.466343459E0
4.787873792E0,-3.561581154E0,-2.629035042E0,4.919885257E-1,4.454069855E0
4.797840792E0,-3.119281974E0,-2.421920816E0,5.145137545E-1,3.982504850E0
4.807808792E0,-2.362465158E0,-1.942049768E0,5.093211347E-1,3.100355938E0
4.817775792E0,-1.954875051E0,-1.415031450E0,3.198631614E-1,2.434371153E0
4.827743792E0,-1.682912865E0,-1.032057536E0,3.365657330E-2,1.974454667E0
4.837711792E0,-1.486789650E0,-7.903868508E-1,-1.391532075E-1,1.689561616E0
4.847678792E0,-1.393752263E0,-6.128846794E-1,-2.122995365E-1,1.537284650E0
4.857646792E0,-1.367875995E0,-4.577890384E-1,-1.922371548E-1,1.455201246E0
4.867613792E0,-1.216929538E0,-3.885357857E-1,-1.196562517E-1,1.283041378E0
4.877581792E0,-9.596795315E-1,-2.839945865E-1,-1.270588267E-1,1.008851661E0
4.887548792E0,-8.271927345E-1,-2.215808219E-1,-3.342695314E-1,9.192834167E-1
4.897516792E0,-5.989601201E-1,-2.026387668E-1,-1.718350500E-1,6.552426876E-1
4.907483792E0,-2.605016434E-1,-1.986661685E-1,-2.002788305E-2,3.282231997E-1
4.917451792E0,7.302353740E-2,-1.833955801E-1,-7.176404715E-2,2.100391732E-1
4.927418792E0,3.321820754E-1,-1.608604109E-1,-3.275165820E-1,4.934451484E-1
4.937386792E0,5.353868526E-1,-1.528386158E-1,-4.438492763E-1,7.120399599E-1
4.947353792E0,1.043035099E0,1.480830753E-1,-5.787375247E-1,1.201993318E0
4.957321792E0,1.315967923E0,5.819078851E-1,-9.511051744E-1,1.724815762E0
4.967289792E0,2.184841949E0,1.513786245E0,-1.004339980E0,2.841440116E0
4.977256792E0,3.132921190E0,2.195970955E0,-7.402007836E-1,3.896842416E0
4.987224792E0,3.391371045E0,2.159929302E0,-1.267150104E-1,4.022778747E0
4.997191792E0,3.595274565E0,2.162762278E0,-1.370175120E-1,4.197893956E0
5.007159792E0,3.486025772E0,2.044023455E0,-5.308716327E-1,4.075810626E0
5.017126792E0,2.891554559E0,1.730516801E0,-4.176400092E-1,3.395614723E0
5.027094792E0,2.312167409E0,1.645879524E0,-2.174643821E-1,2.846458904E0
5.037061792E0,1.817706388E0,1.394779619E0,2.559302902E-1,2.305421222E0
5.047029792E0,1.396871168E0,1.374154150E0,7.441043848E-1,2.096005731E0
5.056996792E0,3.897163385E-1,1.216850601E0,1.187626802E0,1.744437339E0
5.066964792E0,-1.893328428E-1,1.176945693E0,1.459207165E0,1.884232905E0
5.076932792E0,-7.934431905E-1,9.763873655E-1,1.588168091E0,2.026120003E0
5.086899792E0,-1.431260397E0,6.297714382E-1,1.578888559E0,2.222162792E0
5.096867792E0,-1.788756239E0,4.123526645E-1,1.706780907E0,2.506548357E0
5.106834792E0,-2.078460631E0,1.647628427E-1,1.575784565E0,2.613473242E0
5.116802792E0,-2.007928008E0,8.424259007E-2,1.293671905E0,2.390075040E0
5.126769792E0,-1.663381995E0,1.634343553E-1,8.547570938E-1,1.877274657E0
5.136737792E0,-1.480389288E0,1.000575542E-1,6.325243074E-1,1.612963409E0
5.146704792E0,-1.382963566E0,-3.695943153E-1,3.447062266E-1,1.472416573E0
5.156672792E0,-1.042336941E0,-8.247643858E-1,-5.381262732E-1,1.433974364E0
5.166639792E0,-8.257285917E-1,-1.206433786E0,-1.800100422E0,2.318980749E0
5.176607792E0,-6.827472121E-1,-1.484025671E0,-2.465686056E0,2.957715956E0
5.186575792E0,-4.563675803E-1,-1.861774514E0,-2.171805582E0,2.896759430E0
5.196542792E0,-3.018104678E-1,-2.158900192E0,-1.885920591E0,2.882470481E0
5.206510792E0,-2.253277177E-1,-2.258808643E0,-1.631104195E0,2.795262056E0
5.216477792E0,-8.822688282E-2,-2.176508498E0,-1.274249793E0,2.523625519E0
5.226445792E0,-1.704065752E-1,-2.076377853E0,-1.019643313E0,2.319494746E0
5.236412792E0,-2.270555699E-1,-1.878082398E0,-9.459467608E-1,2.115079904E0
5.246380792E0,-2.627686089E-1,-1.628296947E0,-5.057671970E-1,1.725166295E0
5.256347792E0,-4.228700513E-1,-1.334936875E0,1.822869480E-2,1.400431300E0
5.266315792E0,-3.501739579E-1,-9.748390228E-1,4.761335081E-1,1.140015806E0
5.276282792E0,-1.375575024E-1,-4.365770942E-1,4.378225511E-1,6.334115660E-1
5.286250792E0,1.514873242E-1,2.063482404E-2,1.251865482E-1,1.976002966E-1
5.296218792E0,3.326247096E-1,3.767624170E-1,1.400992870E-2,5.027776789E-1
5.306185792E0,4.969297153E-1,6.358694994E-1,-8.328364670E-2,8.112985443E-1
5.316153792E0,5.215850848E-1,8.410728550E-1,-4.351731777E-2,9.906302565E-1
5.326120792E0,4.983722234E-1,8.324786174E-1,7.087059259E-2,9.728402553E-1
5.336088792E0,5.022167677E-1,7.344097012E-1,7.870410740E-2,8.931817438E-1
5.346055792E0,6.324471241E-1,7.692380565E-1,-1.380293727E-2,9.959453165E-1
5.356023792E0,7.746970171E-1,1.028619958E0,-2.478851062E-1,1.311358651E0
5.365990792E0,4.033567232E-1,8.115064090E-1,-9.834315062E-2,9.115430178E-1
5.375958792E0,5.110478175E-1,3.630963045E-1,6.553126609E-1,9.068866973E-1
5.385925792E0,3.954197127E-1,-1.116479051E-1,3.088879377E-1,5.140367321E-1
5.395893792E0,-5.194140136E-2,-2.508092988E-1,4.047501147E-2,2.593095449E-1
5.405860792E0,-2.582732695E-1,-3.706304419E-1,-1.405290574E-1,4.730966309E-1
5.415828792E0,-3.205075246E-1,-5.353663874E-1,-2.911474854E-1,6.885558077E-1
5.425796792E0,-4.060487813E-1,-6.871770626E-1,-3.862834382E-1,8.867371780E-1
5.435763792E0,-4.056032234E-1,-6.797136766E-1,-4.775871259E-1,9.244534168E-1
5.445731792E0,-3.470018435E-1,-5.907979918E-1,-5.296133119E-1,8.659923825E-1
5.455698792E0,-2.495767057E-1,-4.741805381E-1,-4.944259375E-1,7.291040546E-1
5.465666792E0,-1.912805504E-1,-3.095632911E-1,-4.737800038E-1,5.973986710E-1
5.475633792E0,-2.165165484E-2,-1.175945234E-1,-4.128064084E-1,4.297748212E-1
5.485601792E0,9.059734404E-2,1.730600417E-2,-3.523923916E-1,3.642633308E-1
5.495568792E0,1.414792299E-1,5.204723597E-2,-2.093858689E-1,2.580072274E-1
5.505536792E0,8.894082785E-2,1.612018883E-1,-2.220035756E-1,2.884130843E-1
5.515503792E0,-2.231706798E-2,1.039892220E-1,-1.347993708E-1,1.717052130E-1
5.525471792E0,-1.231078631E-1,-8.457003415E-2,1.758234358E-1,2.306978916E-1
5.535439792E0,-1.943602788E-1,-2.645327139E-1,4.822438484E-1,5.833631837E-1
5.545406792E0,-1.745393872E-3,-4.282038814E-1,5.971837360E-1,7.348401356E-1
5.555374792E0,4.374068141E-2,-4.936546898E-1,1.817694694E-1,5.278715184E-1
5.565341792E0,-8.577631474E-2,-4.493988687E-1,-3.562252414E-1,5.798390656E-1
5.575309792E0,-1.152819496E-1,-3.958822274E-1,-8.039032745E-1,9.034783565E-1
5.585277042E0,-3.868909639E-1,-2.414882523E-1,-1.063276405E0,1.156960634E0
5.595245042E0,-5.522385281E-1,-4.618540227E-2,-8.080162060E-1,9.797911372E-1
5.605212042E0,-6.100382549E-1,-1.420937723E-1,-5.521128130E-1,8.349645925E-1
5.615180042E0,-7.770540297E-1,-1.400507551E-1,-2.757546902E-1,8.363419326E-1
5.625147042E0,-4.327120847E-1,5.509883934E-1,-3.570935529E-1,7.863483728E-1
5.635115042E0,-3.293286341E-1,7.669634897E-1,-2.767305905E-1,8.793578131E-1
5.645082042E0,4.377634943E-2,6.408577591E-1,6.182629484E-1,8.915515182E-1
5.655050042E0,2.763294715E-1,4.762609774E-1,8.235674608E-1,9.906794930E-1
5.665018042E0,2.102927721E-1,2.326314747E-1,8.924628639E-1,9.459547645E-1
5.674985042E0,1.174477583E-1,7.290776253E-2,4.239278126E-1,4.458971945E-1
5.684953042E0,1.060690767E-1,-3.099258184E-2,2.587644356E-1,2.813720354E-1
5.694920042E0,1.525866008E-1,-4.041028279E-1,1.766040391E-1,4.666591399E-1
5.704888042E0,2.647630942E-1,-8.382275999E-1,5.164670169E-1,1.019540673E0
5.714855042E0,-1.496758568E-1,-9.648660117E-1,1.281475782E-1,9.847797137E-1
5.724823042E0,-4.177648473E-1,-6.266841084E-1,-9.422595066E-1,1.206280820E0
5.734790042E0,-4.701155537E-1,-2.767925709E-1,-1.132013349E0,1.256613299E0
5.744758042E0,-5.616274023E-1,-1.901725030E-1,-1.311461474E0,1.439278332E0
5.754725042E0,-4.487702930E-1,-4.991768003E-3,-1.073050611E0,1.163123943E0
5.764693042E0,-3.620169085E-1,2.301446539E-1,-2.032731897E-1,4.747028475E-1
5.774661042E0,-4.769345766E-1,4.753879881E-1,3.666391325E-1,7.667363191E-1
5.784628042E0,-6.198340952E-1,6.583543825E-1,2.764861768E-1,9.455524335E-1
5.794596042E0,-6.909496862E-1,7.732884228E-1,8.839808929E-1,1.362647670E0
5.804563042E0,-5.559158421E-1,1.166630620E0,1.347503711E0,1.867039281E0
5.814531042E0,-3.891526669E-1,1.306969058E0,1.468763269E0,2.004213925E0
5.824498042E0,-2.129178795E-1,1.090068932E0,1.988952039E0,2.278050595E0
5.834466042E0,9.550578922E-2,1.064831765E0,1.496314180E0,1.839006299E0
5.844433042E0,6.856898233E-1,1.453088053E0,1.212554651E0,2.012939196E0
5.854401042E0,1.345240839E0,1.626214753E0,8.699773961E-1,2.282785143E0
5.864368042E0,1.573646531E0,1.452961754E0,3.808788568E-1,2.175437879E0
5.874336042E0,1.665929334E0,1.119465224E0,2.404626507E-1,2.021471054E0
5.884303042E0,1.766045361E0,7.752174193E-1,2.297178072E-1,1.942330697E0
5.894271042E0,1.668595080E0,5.242087305E-1,-1.048557794E-1,1.752141281E0
5.904239042E0,1.349016386E0,3.948273897E-1,-7.058290958E-1,1.572872719E0
5.914206042E0,1.072972843E0,2.692245197E-1,-1.123560614E0,1.576750144E0
5.924174042E0,7.606473273E-1,1.058749491E-1,-1.290148957E0,1.501425387E0
5.934141042E0,3.696364152E-1,-9.145630002E-3,-1.410097570E0,1.457768801E0
5.944109042E0,1.383784515E-1,1.789189517E-2,-1.596673450E0,1.602758504E0
5.954076042E0,-2.240617955E-1,6.098236620E-2,-1.434207394E0,1.452884506E0
5.964044042E0,-7.657595479E-1,-2.520196724E-1,-6.160135245E-1,1.014580831E0
5.974011042E0,-6.763965511E-1,-4.781233156E-1,6.274623728E-1,1.039145432E0
5.983979042E0,-4.036613631E-1,-3.103070569E-1,7.339261365E-1,8.932415908E-1
5.993946042E0,-4.305725884E-1,-4.821847916E-2,2.998171520E-1,5.268852819E-1
6.003914042E0,-6.547139060E-1,-5.003462434E-2,3.423995000E-1,7.405343881E-1
6.013881042E0,-6.932792169E-1,-2.750600410E-1,6.807001019E-1,1.009775583E0
6.023849042E0,-7.100303203E-1,-5.868546295E-1,1.162919977E0,1.483551241E0
6.033817042E0,-5.228527611E-1,-6.576345903E-1,1.047542717E0,1.342834319E0
6.043784042E0,-2.269549978E-1,-5.270808828E-1,7.418251401E-1,9.378845166E-1
6.053752042E0,-6.373465061E-4,-4.363455445E-1,4.672860861E-1,6.393388199E-1
6.063719042E0,2.437037623E-1,-1.836627978E-1,2.951931739E-1,4.245733823E-1
6.073687042E0,5.576290762E-1,8.114765882E-2,3.963429880E-1,6.889288014E-1
6.083654042E0,6.123549217E-1,-4.751505911E-2,5.009678024E-1,7.925938241E-1
6.093622042E0,3.406918207E-1,-3.065648389E-1,7.312177062E-1,8.629787083E-1
6.103589042E0,4.769851550E-1,-3.015403265E-1,1.200419925E0,1.326442386E0
6.113557042E0,5.340890631E-1,-2.337553096E-1,1.282148212E0,1.408473184E0
6.123524042E0,5.794561476E-1,-3.716414255E-1,1.369125545E0,1.532446258E0
6.133492042E0,5.892400011E-1,-2.362824762E-1,1.156814899E0,1.319565799E0
6.143459042E0,7.721987942E-1,-1.014947999E-1,1.110795557E0,1.356635155E0
6.153427042E0,1.025271258E0,-1.804515070E-1,7.317059487E-1,1.272453337E0
6.163395042E0,8.361591473E-1,-4.185290784E-1,2.382231671E-1,9.649243423E-1
6.173362042E0,5.803072098E-1,-5.722693348E-1,-9.726492405E-2,8.207978525E-1
6.183330042E0,3.733824340E-1,-5.729224688E-1,-3.158069479E-1,7.532520332E-1
6.193297042E0,3.272365004E-1,-5.109834981E-1,-4.669954795E-1,7.656844261E-1
6.203265042E0,1.873073673E-1,-4.325039238E-1,-6.824554360E-1,8.293908102E-1
6.213232042E0,-1.251394781E-1,-5.557170367E-1,-6.101066673E-1,8.346924340E-1
6.223200042E0,-6.149344209E-1,-8.581736219E-1,-2.605291253E-1,1.087419759E0
6.233167042E0,-8.528026620E-1,-8.870559436E-1,1.563218021E-1,1.240393943E0
6.243135042E0,-2.969371060E-1,-2.670774221E-2,5.486968696E-1,6.244623312E-1
6.253102042E0,-5.590403017E-1,1.029811621E-1,4.615756953E-1,7.322453832E-1
6.263070042E0,-5.611298043E-1,-2.808862066E-1,-4.742226380E-1,7.865435962E-1
6.273038042E0,-1.413440423E0,-8.087576330E-1,-5.635078669E-1,1.723207432E0
6.283005042E0,-1.962701841E0,-9.175661302E-1,2.664757437E-1,2.182919019E0
6.292973042E0,-2.147583199E0,-4.558705670E-1,2.369970059E-1,2.208189111E0
6.302940042E0,-3.340353211E0,-1.078511910E0,-1.544904542E-1,3.513547327E0
6.312908042E0,-3.574488298E0,-1.888091077E0,-3.171178937E-1,4.054925186E0
6.322875042E0,-1.998761913E0,-1.323607895E0,6.091477239E-1,2.473468818E0
6.332843042E0,-7.904558480E-3,8.753375387E-1,1.007886316E0,1.334958095E0
6.342810042E0,1.862588446E0,2.134937718E0,1.349011123E-1,2.836440214E0
6.352778042E0,3.428965426E0,2.232592067E0,-4.808223903E-2,4.092014556E0
6.362745042E0,3.901324849E0,1.736828286E0,1.989164293E-2,4.270515630E0
6.372713042E0,3.266806056E0,7.762348348E-1,5.777300495E-1,3.407100576E0
6.382680042E0,2.599252541E0,7.389687753E-1,7.777416623E-1,2.811951407E0
6.392648042E0,2.125924820E0,8.253555393E-1,-4.159182966E-2,2.280898504E0
6.402616042E0,1.653235322E0,6.512792516E-1,-7.022786665E-1,1.910640473E0
6.412583042E0,9.951443562E-1,3.094176954E-1,-9.310907400E-1,1.397491168E0
6.422551042E0,2.277414483E-1,-1.490110284E-1,-5.067208779E-1,5.751838853E-1
6.432518042E0,-2.680544919E-1,-3.496968251E-1,-8.321348011E-2,4.484033490E-1
6.442486042E0,-6.054060906E-1,-4.919034487E-1,1.482696015E-1,7.940210401E-1
6.452453042E0,-3.900262409E-1,-2.342002827E-1,2.974139464E-1,5.435304008E-1
6.462421042E0,-1.374844122E-1,-1.831289470E-2,4.420810783E-1,4.633281834E-1
6.472388042E0,1.339006537E-1,1.380077380E-1,7.441809833E-1,7.686227012E-1
6.482356042E0,5.595411158E-1,1.680080473E-2,1.158902940E0,1.287021581E0
6.492323042E0,1.067888104E0,-8.928055108E-2,1.497708741E0,1.841599167E0
6.502291042E0,1.175016696E0,7.041334033E-2,1.092842851E0,1.606215357E0
6.512258042E0,1.126984159E0,4.716481090E-2,3.105526400E-1,1.169940492E0
6.522226042E0,1.169122703E0,-1.446080750E-1,5.370281661E-1,1.294665455E0
6.532194042E0,6.274424922E-1,-1.433912694E-1,6.433825868E-1,9.100474110E-1
6.542161042E0,-6.236640215E-3,3.465352356E-2,1.062386459E-1,1.119214558E-1
6.552129042E0,-4.150324434E-1,-4.621990085E-2,-9.889863610E-2,4.291493313E-1
6.562096042E0,-3.577151120E-1,6.088822603E-2,-1.261817443E-1,3.841735415E-1
6.572064042E0,-2.468168199E-2,2.232233047E-1,-4.062645435E-3,2.246204227E-1
6.582031208E0,3.214401555E-1,2.792039627E-1,3.286450946E-1,5.378533486E-1
6.591999208E0,4.733566654E-1,2.060944712E-1,4.754400283E-1,7.018437748E-1
6.601966208E0,1.093686604E-1,3.019852996E-2,2.741151309E-1,2.966691088E-1
6.611934208E0,-9.419355708E-1,-2.511946303E-1,-1.511364913E-1,9.865006847E-1
6.621901208E0,-1.851628425E0,-5.584827697E-1,-4.594116408E-1,1.987835477E0
6.631869208E0,-2.148582196E0,-8.352841115E-1,-3.057620162E-1,2.325423705E0
6.641836208E0,-2.018407388E0,-9.576534712E-1,-4.593163311E-2,2.234542071E0
6.651804208E0,-1.820641690E0,-8.966839689E-1,-1.112818694E-1,2.032526005E0
6.661771208E0,-1.360186906E0,-8.678583652E-1,-1.957121551E-1,1.625296838E0
6.671739208E0,-6.709381753E-1,-8.276891631E-1,-1.369347739E-1,1.074233922E0
6.681707208E0,-3.368873298E-2,-8.043663740E-1,6.197814703E-2,8.074537046E-1
6.691674208E0,6.284335953E-1,-8.493221068E-1,3.367680466E-1,1.108913677E0
6.701642208E0,1.041150541E0,-8.083401418E-1,4.213445127E-1,1.383813366E0
6.711609208E0,1.214978907E0,-7.221048206E-1,3.180873621E-1,1.448719671E0
6.721577208E0,1.117920974E0,-5.254208583E-1,1.806421262E-1,1.248377331E0
6.731544208E0,8.915085983E-1,-3.108871007E-1,-1.069794881E-1,9.502015476E-1
6.741512208E0,8.422873217E-1,-4.574744582E-2,-3.391542953E-1,9.091569706E-1
6.751479208E0,4.552905232E-1,1.591419142E-1,-6.800341040E-1,8.337037795E-1
6.761447208E0,1.173179501E-1,3.786510676E-1,-8.747697741E-1,9.603969440E-1
6.771414208E0,-1.645792401E-1,5.850624579E-1,-8.931966895E-1,1.080363241E0
6.781382208E0,-3.924771014E-1,7.786649376E-1,-7.299055910E-1,1.137154137E0
6.791349208E0,-5.274551046E-1,9.503374350E-1,-5.183974752E-1,1.204195196E0
6.801317208E0,-9.370733187E-1,1.060460971E0,-5.729993597E-1,1.526765254E0
6.811285208E0,-6.552389860E-1,1.082515499E0,-4.370533499E-1,1.338728339E0
6.821252208E0,-2.778763524E-1,1.380373834E0,3.867962390E-2,1.408596217E0
6.831220208E0,-2.179549634E-3,1.439182790E0,3.082956147E-1,1.471834923E0
6.841187208E0,3.249628106E-1,1.324383820E0,4.154429179E-1,1.425547667E0
6.851155208E0,5.798923498E-1,1.086798000E0,4.214953709E-1,1.301945996E0
6.861122208E0,9.108131808E-1,8.936697292E-1,2.384974015E-1,1.298116807E0
6.871090208E0,1.107480479E0,6.866350257E-1,1.880002624E-1,1.316557924E0
6.881057208E0,1.126497963E0,2.347686321E-1,3.056640753E-1,1.190606777E0
6.891025208E0,1.076632908E0,-1.096563435E-1,1.930677518E-1,1.099289811E0
6.900992208E0,1.054446233E0,-3.819418806E-1,8.004838228E-4,1.121488787E0
6.910960208E0,1.510945375E0,-5.019495499E-1,4.849446774E-2,1.592878210E0
6.920927208E0,2.774100077E0,-2.101629639E-1,3.442016119E-1,2.803261397E0
6.930895208E0,4.075770973E0,7.860645890E-2,7.793154404E-1,4.150351859E0
6.940862208E0,5.398537745E0,-6.672082365E-2,1.267184603E0,5.545666621E0
6.950830208E0,6.444857225E0,-1.441280186E-2,1.712186950E0,6.668431340E0
6.960798208E0,6.485043969E0,5.614169025E-1,1.738956380E0,6.737577718E0
6.970765208E0,4.542134368E0,1.646764208E0,7.514011252E-1,4.889521513E0
6.980733208E0,2.182188775E0,2.353291461E0,-5.457390556E-1,3.255420045E0
6.990700208E0,8.107421780E-1,2.596801681E0,-6.405270991E-1,2.794808905E0
7.000668208E0,-5.911306983E-1,2.374244374E0,-1.125282034E-1,2.449313056E0
7.010635208E0,-1.922075095E0,1.999529067E0,6.725847512E-2,2.774349088E0
7.020603208E0,-3.116145236E0,1.647069433E0,-1.522614956E-2,3.524688735E0
7.030570208E0,-3.817771353E0,1.094447327E0,-2.486651248E-1,3.979324993E0
7.040538208E0,-2.948630401E0,7.680569190E-1,2.219948047E-1,3.055096458E0
7.050505208E0,-8.371020108E-1,1.089178986E0,1.196792312E0,1.821911765E0
7.060473208E0,8.666126159E-1,2.103051097E0,1.120578242E0,2.535653158E0
7.070440208E0,1.718097900E0,2.526705844E0,5.723973888E-1,3.108655914E0
7.080408208E0,2.000470469E0,1.904369726E0,1.141282940E-1,2.764332002E0
7.090376208E0,1.570506868E0,7.798817432E-1,1.555914849E-1,1.760373843E0
7.100343208E0,9.699498734E-1,1.479556060E-1,6.528843123E-1,1.178537884E0
7.110311208E0,4.673919207E-1,1.077875733E-2,7.123838246E-1,8.520927782E-1
7.120278208E0,8.525591254E-2,8.609089494E-2,3.978170711E-1,4.158589122E-1
7.130246208E0,-1.350546017E-1,1.964453959E-1,3.502955800E-1,4.237186949E-1
7.140213208E0,-5.528416684E-1,3.758122444E-2,9.016877237E-1,1.058341632E0
7.150181208E0,-9.329519087E-1,-2.023411435E-1,1.515325525E0,1.790964167E0
7.160148208E0,-6.345895439E-1,4.444176257E-2,1.804019811E0,1.912894779E0
7.170116208E0,4.344203487E-1,1.101568651E0,1.330362014E0,1.781021510E0
7.180083208E0,8.668201920E-1,1.718668004E0,6.380791622E-1,2.027891015E0
7.190051208E0,1.447291709E0,2.041605046E0,6.024801439E-1,2.574060368E0
7.200018208E0,1.296494356E0,1.666740636E0,3.621531487E-1,2.142446467E0
7.209986208E0,6.136483258E-1,1.150961836E0,7.920755267E-2,1.306733045E0
7.219953208E0,-9.512712353E-1,-1.356554031E-1,6.732346693E-1,1.173270758E0
7.229921208E0,-1.590173978E0,-1.010164976E0,1.429633410E0,2.364939375E0
7.239888208E0,-2.138206019E0,-1.132454229E0,1.720582090E0,2.968969567E0
7.249856208E0,-2.491810246E0,-1.020371876E0,1.726047482E0,3.198361608E0
7.259824208E0,-2.361488673E0,-6.972126389E-1,1.562073137E0,2.915957253E0
7.269791208E0,-2.440218508E0,-8.555441290E-1,1.353431618E0,2.918629690E0
7.279759208E0,-2.654322203E0,-1.368902766E0,1.940419564E0,3.561537481E0
7.289726208E0,-3.023924997E0,-1.868474838E0,2.269972731E0,4.217593723E0
7.299694208E0,-3.062202917E0,-1.792421274E0,1.829602548E0,3.992155585E0
7.309661208E0,-2.229446849E0,-8.179810309E-1,1.360913131E-1,2.378664976E0
7.319629208E0,-9.809429312E-1,4.345141965E-1,-1.253200402E0,1.649715996E0
7.329596208E0,-2.166153663E-1,9.172521347E-1,-1.208047618E0,1.532205189E0
7.339564208E0,1.613357896E-1,6.834301668E-1,-7.216952232E-1,1.006950855E0
7.349531208E0,4.505285507E-1,5.400921071E-1,-8.195018917E-2,7.080898902E-1
7.359499208E0,2.065347666E-1,6.768976575E-1,5.679996979E-1,9.074528668E-1
7.369466208E0,2.930443221E-1,1.082194487E0,7.753226691E-1,1.363137969E0
7.379434208E0,2.518214518E-1,1.320555063E0,6.149645340E-1,1.478330510E0
7.389401208E0,1.455167323E-1,1.249712538E0,8.850193584E-1,1.538250893E0
7.399369208E0,-1.732114846E-1,9.166124493E-1,1.384833505E0,1.669713879E0
7.409337208E0,-4.572104564E-1,5.739673662E-1,1.758138756E0,1.905133020E0
7.419304208E0,-6.416161430E-1,5.863494301E-1,1.645297434E0,1.860774187E0
7.429272208E0,-7.599795753E-1,7.674078780E-1,1.404942080E0,1.772102157E0
7.439239208E0,-9.915912956E-1,8.076811606E-1,1.214067911E0,1.763395318E0
7.449207208E0,-1.286973335E0,8.066152132E-1,1.124910151E0,1.890066484E0
7.459174208E0,-1.615525458E0,7.376917434E-1,1.044503335E0,2.060363762E0
7.469142208E0,-1.885096426E0,6.409220785E-1,9.325092745E-1,2.198623022E0
7.479109208E0,-1.982696395E0,5.068553638E-1,9.450214389E-1,2.254119091E0
7.489077208E0,-2.000850538E0,3.655983281E-1,8.203380436E-1,2.193175670E0
7.499044208E0,-1.984987334E0,3.403401107E-1,7.380797061E-1,2.144940037E0
7.509012208E0,-1.900297140E0,3.047510326E-1,7.697514421E-1,2.072804789E0
7.518979208E0,-1.785831754E0,2.862475187E-1,8.901561373E-1,2.015815131E0
7.528947208E0,-1.735712930E0,1.847000939E-1,1.133738278E0,2.081387994E0
7.538914208E0,-1.704465702E0,4.609301627E-2,1.447458939E0,2.236619162E0
7.548882208E0,-1.779264746E0,-2.118984175E-1,1.780111130E0,2.525763174E0
7.558850208E0,-1.790363054E0,-4.459852642E-1,2.047719187E0,2.756348416E0
7.568817208E0,-1.975009938E0,-8.765765637E-1,2.099854424E0,3.013044860E0
7.578784958E0,-2.279354589E0,-1.462229006E0,2.194824316E0,3.485803320E0
7.588751958E0,-2.394898786E0,-1.914106509E0,2.236158868E0,3.794700305E0
7.598719958E0,-2.544779880E0,-2.241787398E0,2.075464518E0,3.976061914E0
7.608686958E0,-2.792865254E0,-2.456474937E0,1.625409592E0,4.059103569E0
7.618654958E0,-2.592522689E0,-2.481634337E0,1.441687152E0,3.867576078E0
7.628621958E0,-2.469095567E0,-2.302330053E0,9.746829021E-1,3.513853064E0
7.638589958E0,-2.413778569E0,-2.091675339E0,3.647162756E-1,3.214724041E0
7.648556958E0,-1.783387910E0,-1.585379553E0,1.163449734E-2,2.386217955E0
7.658524958E0,-1.061533350E0,-8.439344823E-1,-1.971429688E-1,1.370380901E0
7.668491958E0,-5.961563802E-1,-1.359395778E-1,-4.499239486E-1,7.591531848E-1
7.678459958E0,-3.939356893E-1,3.629553866E-1,-5.861178803E-1,7.940126634E-1
7.688426958E0,-4.582363504E-1,6.684414142E-1,-5.542616647E-1,9.818352561E-1
7.698394958E0,-7.380074930E-1,7.038568300E-1,-4.283661416E-1,1.106149650E0
7.708362958E0,-1.040789768E0,5.329245901E-1,-6.501840681E-2,1.171101769E0
7.718329958E0,-1.321628612E0,3.805519974E-1,1.938784683E-1,1.388924358E0
7.728297958E0,-1.461841920E0,2.444750100E-1,3.546921015E-1,1.523993542E0
7.738264958E0,-1.484629104E0,5.487494946E-2,5.611607945E-1,1.588092023E0
7.748232958E0,-1.414813934E0,-3.050919253E-1,7.673482364E-1,1.638170585E0
7.758199958E0,-1.500558674E0,-7.402481461E-1,9.438394243E-1,1.921061298E0
7.768167958E0,-1.600801000E0,-1.120766814E0,1.075744131E0,2.230674232E0
7.778134958E0,-1.642610346E0,-1.502477730E0,1.086731926E0,2.477215041E0
7.788102958E0,-1.581077757E0,-1.786911442E0,1.228337164E0,2.683593032E0
7.798069958E0,-1.422238144E0,-1.942865455E0,1.083490522E0,2.640348315E0
7.808037958E0,-1.210028654E0,-1.959845184E0,7.277690184E-1,2.415535186E0
7.818004958E0,-9.748413616E-1,-1.818591657E0,4.920613235E-1,2.121253318E0
7.827972958E0,-8.958805615E-1,-1.621659188E0,2.790396559E-1,1.873564419E0
7.837939958E0,-7.601684403E-1,-1.442190598E0,8.165870547E-2,1.632310608E0
7.847907958E0,-5.151823837E-1,-1.263408471E0,-2.461373734E-1,1.386433359E0
7.857874958E0,-2.763183618E-1,-1.052696453E0,-3.303460497E-1,1.137387433E0
7.867842958E0,-1.273757458E-1,-1.018131807E0,-3.585764068E-1,1.086919499E0
7.877810958E0,-3.545166850E-3,-1.021734862E0,-3.199035072E-1,1.070650713E0
7.887777958E0,4.426073277E-1,-9.706956857E-1,-1.160005724E-1,1.073129766E0
7.897745958E0,8.171010250E-1,-7.140859491E-1,3.546219349E-2,1.085739561E0
7.907712958E0,9.948043406E-1,-3.181820869E-1,1.400162566E-1,1.053793181E0
7.917680958E0,9.747758728E-1,-1.723174453E-3,1.780962485E-1,9.909133389E-1
7.927647958E0,9.772188395E-1,2.620920861E-1,1.765186697E-2,1.011909339E0
7.937615958E0,8.105819643E-1,5.961680746E-1,-1.962427899E-1,1.025168633E0
7.947582958E0,5.697275501E-1,8.674975920E-1,-3.652089036E-1,1.100235928E0
7.957550958E0,3.999980825E-1,1.155675861E0,-4.948656482E-1,1.319271455E0
7.967517958E0,7.237192369E-1,1.624785109E0,-4.174502671E-1,1.827008733E0
7.977485958E0,9.771007258E-1,1.849981849E0,5.227410793E-3,2.092172554E0
7.987452958E0,8.326025784E-1,2.093775074E0,3.150196204E-1,2.275161198E0
7.997420958E0,1.012440712E0,2.500017398E0,2.374644908E-1,2.707676600E0
8.007387958E0,1.200946759E0,2.771565601E0,1.830637506E-1,3.026113239E0
8.017355958E0,1.403290241E0,2.922800326E0,3.163869917E-1,3.257619679E0
8.027322958E0,1.675424920E0,2.932027232E0,6.122204357E-1,3.432003236E0
8.037290958E0,1.798871337E0,2.974559879E0,6.919416663E-1,3.544393859E0
8.047257958E0,1.685986161E0,2.899896197E0,5.081350270E-1,3.392660976E0
8.057225958E0,1.473317081E0,2.584146552E0,4.169555926E-1,3.003719126E0
8.067193958E0,1.256068461E0,2.344186762E0,-4.925694466E-3,2.659500670E0
8.077160958E0,1.478385447E0,2.298469137E0,-3.237310946E-2,2.733062737E0
8.087128958E0,1.541141859E0,2.175982833E0,1.252967682E-1,2.669404203E0
8.097095958E0,1.615342441E0,2.090662016E0,-9.844840050E-2,2.643840191E0
8.107063958E0,1.750760447E0,1.959865649E0,-4.914681235E-1,2.673532574E0
8.117030958E0,1.779130552E0,1.865813770E0,-6.605158058E-1,2.661361997E0
8.126998958E0,1.761617557E0,1.719137535E0,-7.460784048E-1,2.572034850E0
8.136965958E0,1.836792870E0,1.682771362E0,-9.102050704E-1,2.652169069E0
8.146933958E0,1.852386809E0,1.583655794E0,-1.000911465E0,2.634601739E0
8.156900958E0,1.808063745E0,1.606383922E0,-9.481435597E-1,2.597795223E0
8.166868958E0,1.744395753E0,1.691473188E0,-8.670982271E-1,2.579894847E0
8.176835958E0,1.692581236E0,1.660838456E0,-6.916697708E-1,2.470146289E0
8.186803958E0,1.369249506E0,1.467502609E0,-5.504849482E-1,2.081211617E0
8.196770958E0,1.071453736E0,1.113882303E0,-2.520734668E-2,1.545762693E0
8.206738958E0,8.449314326E-1,7.902166969E-1,6.021085533E-1,1.304180303E0
8.216705958E0,4.357181382E-1,3.111636740E-1,1.010845884E0,1.143889212E0
8.226673958E0,1.546003819E-3,-3.802859491E-1,1.474512544E0,1.522762961E0
8.236641958E0,-4.883460027E-1,-1.192291126E0,1.498671485E0,1.976374501E0
8.246608958E0,-9.772486603E-1,-2.025152151E0,1.371754453E0,2.634001985E0
8.256576958E0,-1.197135251E0,-2.751855807E0,1.316997325E0,3.277243529E0
8.266543958E0,-1.207653808E0,-3.210789145E0,9.495895761E-1,3.559398126E0
8.276511958E0,-9.597359571E-1,-3.565615733E0,3.552575272E-1,3.709570942E0
8.286478958E0,-5.236848199E-1,-3.714604542E0,-2.519939446E-1,3.759791702E0
8.296446958E0,-1.837949449E-1,-3.653418108E0,-7.579008901E-1,3.735727267E0
8.306413958E0,1.236326507E-1,-3.407136893E0,-1.071977939E0,3.573933903E0
8.316381958E0,1.532561070E-1,-3.054071487E0,-1.477506611E0,3.396154570E0
8.326348958E0,1.571904060E-1,-2.647628018E0,-1.762609245E0,3.184561869E0
8.336316958E0,1.809450120E-1,-2.192246863E0,-1.859428026E0,2.880305538E0
8.346283958E0,1.840566078E-1,-1.554780489E0,-2.030837983E0,2.564278089E0
8.356251958E0,1.089725116E-1,-8.155708086E-1,-2.015664751E0,2.177139210E0
8.366218958E0,-2.494656086E-2,-7.161435843E-2,-1.719367915E0,1.721039504E0
8.376186958E0,-1.835943854E-1,5.031084681E-1,-1.336296353E0,1.439622510E0
8.386153958E0,-3.951036707E-1,9.739800668E-1,-1.218089041E0,1.608876935E0
8.396121958E0,-6.101589999E-1,1.441394792E0,-1.197316808E0,1.970654837E0
8.406088958E0,-8.506190193E-1,1.879910823E0,-1.110057347E0,2.343041769E0
8.416056958E0,-1.125950956E0,2.268969934E0,-1.129665399E0,2.773469674E0
8.426023958E0,-1.345447538E0,2.594168095E0,-1.197091690E0,3.158000268E0
8.435991958E0,-1.403831986E0,2.915999429E0,-1.166585304E0,3.440162523E0
8.445959958E0,-1.527897915E0,3.147233419E0,-1.083690789E0,3.662504056E0
8.455926958E0,-1.659728655E0,3.259539721E0,-9.441279843E-1,3.777654835E0
8.465894958E0,-1.776481179E0,3.323647424E0,-9.336453885E-1,3.882552162E0
8.475861958E0,-1.853237579E0,3.315615689E0,-8.513703865E-1,3.892637724E0
8.485829958E0,-1.785206394E0,3.237616171E0,-6.938542905E-1,3.761722227E0
8.495796958E0,-1.713708980E0,3.000762421E0,-4.218900579E-1,3.481287808E0
8.505764958E0,-1.529620797E0,2.656052102E0,3.287801653E-2,3.065197141E0
8.515731958E0,-1.385729299E0,2.186789657E0,6.693579653E-1,2.674010991E0
8.525699958E0,-1.268612200E0,1.711497563E0,1.524167392E0,2.619482212E0
8.535666958E0,-1.176068611E0,1.181325257E0,2.536403744E0,3.035129436E0
8.545634958E0,-9.175333858E-1,5.107835233E-1,3.551359636E0,3.703366386E0
8.555601958E0,-5.723488569E-1,-2.429284215E-1,4.408381357E0,4.452013434E0
8.565569958E0,-7.949289680E-2,-1.123084651E0,5.094453295E0,5.217383696E0
8.575536958E0,4.804160088E-1,-2.278656431E0,5.717435532E0,6.173503360E0
8.585505542E0,1.264936641E0,-3.691240237E0,6.137532248E0,7.272868849E0
8.595472542E0,2.211525718E0,-5.302548684E0,6.555108815E0,8.716497010E0
8.605440542E0,3.281236399E0,-7.044026676E0,6.743395007E0,1.028874144E1
8.615407542E0,4.543092434E0,-8.632958413E0,6.199802756E0,1.155877217E1
8.625375542E0,5.835064554E0,-1.002709659E1,5.621230123E0,1.289142632E1
8.635342542E0,7.011213271E0,-1.118722277E1,5.230976425E0,1.420120344E1
8.645310542E0,7.705692337E0,-1.187131543E1,4.811377307E0,1.494841717E1
8.655278542E0,7.735181599E0,-1.187183349E1,3.409254754E0,1.457382869E1
8.665245542E0,6.770505037E0,-1.063707813E1,6.804103723E-1,1.262735633E1
8.675213542E0,5.313157872E0,-8.778540049E0,-1.556313629E0,1.037856079E1
8.685180542E0,3.689083492E0,-7.005198240E0,-2.869033424E0,8.421014914E0
8.695148542E0,1.813895758E0,-5.091912680E0,-3.184629872E0,6.273727758E0
8.705115542E0,1.707264179E-1,-3.377038935E0,-3.395290141E0,4.791819552E0
8.715083542E0,-1.072082020E0,-2.023730693E0,-3.414372237E0,4.111299496E0
8.725050542E0,-2.201950610E0,-7.651888597E-1,-3.436001673E0,4.152132943E0
8.735018542E0,-3.054036111E0,4.329892427E-1,-3.609732390E0,4.748134811E0
8.744985542E0,-3.668807687E0,1.556176220E0,-3.879389604E0,5.561609297E0
8.754953542E0,-3.961172270E0,2.757794239E0,-4.174870461E0,6.381681454E0
8.764920542E0,-4.124601948E0,3.842211252E0,-4.348528672E0,7.119313882E0
8.774888542E0,-4.000189278E0,4.844521079E0,-4.465642262E0,7.707973765E0
8.784855542E0,-3.983214227E0,5.689281188E0,-4.471745586E0,8.260170979E0
8.794823542E0,-4.082544387E0,6.304595386E0,-4.203391424E0,8.607182531E0
8.804790542E0,-4.311973342E0,6.669567477E0,-3.714946019E0,8.767956909E0
8.814758542E0,-4.352833100E0,7.024247299E0,-3.503748098E0,8.975714838E0
8.824725542E0,-4.474293510E0,7.364730667E0,-3.586349375E0,9.333834263E0
8.834693542E0,-4.579387271E0,7.653238719E0,-3.507298527E0,9.583527202E0
8.844660542E0,-4.768249706E0,7.593701200E0,-3.362307460E0,9.576304852E0
8.854628542E0,-4.964926359E0,7.482901141E0,-2.985388337E0,9.463447932E0
8.864595542E0,-4.972197956E0,7.602631068E0,-2.662803005E0,9.466428657E0
8.874563542E0,-4.854680032E0,7.702492155E0,-2.580903686E0,9.463475443E0
8.884531542E0,-4.845875879E0,7.684918934E0,-2.595381977E0,9.448624220E0
8.894498542E0,-4.972436523E0,7.532641650E0,-2.691594110E0,9.418624850E0
8.904466542E0,-5.123932618E0,7.151681517E0,-2.485979110E0,9.142282326E0
8.914433542E0,-5.247431660E0,6.600589043E0,-2.123580086E0,8.695568246E0
8.924401542E0,-4.897669346E0,6.045627467E0,-1.291634735E0,7.887020780E0
8.934368542E0,-4.306825453E0,5.532361216E0,1.717093349E-2,7.011138349E0
8.944336542E0,-3.272164737E0,4.935863943E0,2.013700671E0,6.254982440E0
8.954303542E0,-1.774251051E0,4.108029769E0,4.588138507E0,6.408969522E0
8.964271542E0,-4.768784434E-2,2.940464764E0,7.869449458E0,8.401002436E0
8.974238542E0,2.629001420E0,1.797718266E0,1.164738461E1,1.207497444E1
8.984206542E0,5.225980564E0,1.015150897E0,1.499513542E1,1.591211773E1
8.994173542E0,6.769250810E0,-3.247596198E-1,1.753989513E1,1.880362057E1
9.004141542E0,7.503442994E0,-3.404218547E0,1.872804000E1,2.046044581E1
9.014108542E0,8.768883957E0,-8.002689961E0,1.928613802E1,2.264710781E1
9.024076542E0,1.047572889E1,-1.360365480E1,1.874168857E1,2.541753745E1
9.034043542E0,1.068052294E1,-1.983020506E1,1.118937221E1,2.514980424E1
9.044011542E0,1.087782788E1,-2.681423171E1,-2.668731204E0,2.905946124E1
9.053978542E0,1.601576692E1,-3.100714141E1,-1.154697739E1,3.675976462E1
9.063946542E0,1.658968283E1,-2.872255941E1,-1.354810041E1,3.582951326E1
9.073913542E0,1.022033187E1,-1.795548949E1,-1.195522882E1,2.387011274E1
9.083881542E0,5.162927699E0,-8.982542387E0,-8.990130903E0,1.371730089E1
9.093849542E0,2.500954999E0,-4.871140528E0,-6.640382854E0,8.606826965E0
9.103816542E0,9.012310562E-1,-1.474791749E0,-4.587428362E0,4.902216549E0
9.113784542E0,-3.584965923E-1,1.013389131E0,-3.315515116E0,3.485415015E0
9.123751542E0,-1.680195664E0,2.732475210E0,-2.128329780E0,3.849579963E0
9.133719542E0,-2.897507025E0,4.117530325E0,-1.446093029E0,5.238395555E0
9.143686542E0,-3.538952429E0,5.442749712E0,-1.268911578E0,6.614971302E0
9.153654542E0,-4.159551048E0,6.484141159E0,-1.342542349E0,7.819742416E0
9.163621542E0,-4.628677838E0,7.194116516E0,-1.258190123E0,8.646560782E0
9.173589542E0,-4.823006249E0,7.824525300E0,-1.021374673E0,9.248123684E0
9.183556542E0,-5.332895733E0,8.184143681E0,-1.104716792E0,9.830584107E0
9.193524542E0,-5.877404827E0,8.558515171E0,-2.073817357E0,1.058738815E1
9.203491542E0,-5.980845580E0,8.835039940E0,-2.952334320E0,1.106999198E1
9.213459542E0,-5.853900189E0,8.874434386E0,-2.707998766E0,1.097073336E1
9.223426542E0,-5.847297513E0,8.712032064E0,-2.165775349E0,1.071358828E1
9.233394542E0,-5.590255083E0,8.816072157E0,-1.967835989E0,1.062292138E1
9.243361542E0,-5.313438538E0,8.994905155E0,-1.869378233E0,1.061298840E1
9.253329542E0,-5.123381225E0,9.102985674E0,-1.710932137E0,1.058492665E1
9.263296542E0,-4.854303763E0,9.157894537E0,-1.619733115E0,1.049070220E1
9.273264542E0,-4.538733627E0,9.073121604E0,-1.611837620E0,1.027227624E1
9.283231542E0,-4.431362961E0,8.576971908E0,-1.650352206E0,9.794135347E0
9.293199542E0,-4.739734297E0,7.970764164E0,-1.595483542E0,9.409767813E0
9.303166542E0,-5.134162906E0,7.662044041E0,-1.395325749E0,9.328101714E0
9.313134542E0,-5.314367076E0,7.368105095E0,-8.373534411E-1,9.123191925E0
9.323101542E0,-5.252688307E0,6.974931883E0,2.388558358E-1,8.734841803E0
9.333069542E0,-4.867840652E0,6.309397119E0,1.561564283E0,8.120520158E0
9.343036542E0,-4.175108735E0,5.000602561E0,3.343202852E0,7.322196680E0
9.353004542E0,-3.162553124E0,2.879167233E0,6.730006637E0,7.973978653E0
9.362972542E0,-4.920174694E-1,-3.277908164E-1,1.340389755E1,1.341692951E1
9.372939542E0,6.018415110E0,-4.526323789E0,2.257144525E1,2.379451761E1
9.382907542E0,1.190126136E1,-6.988216757E0,2.951805673E1,3.258513263E1
9.392874542E0,7.968251030E0,-1.009811103E1,3.160984200E1,3.412692459E1
9.402842542E0,3.128124719E0,-1.479841872E1,2.951362922E1,3.316372522E1
9.412809542E0,6.173947538E0,-1.798611487E1,2.588858005E1,3.212221246E1
9.422777542E0,1.054979791E1,-2.199505714E1,1.912679204E1,3.099862816E1
9.432744542E0,1.175743155E1,-2.834077599E1,-2.315997628E0,3.077012553E1
9.442712542E0,2.329180351E1,-4.069992813E1,-3.586803469E1,5.903819249E1
9.452679542E0,2.233745371E1,-3.849595350E1,-3.269943087E1,5.522819075E1
9.462647542E0,6.411121715E0,-1.858332609E1,-1.985542995E1,2.794066192E1
9.472614542E0,1.913127100E0,-5.909947506E0,-1.289349760E1,1.431187672E1
9.482582542E0,4.044080526E-1,-1.277860449E0,-8.282605530E0,8.390353244E0
9.492549542E0,-3.310395294E-1,1.707327914E0,-4.771700732E0,5.078748237E0
9.502517542E0,-1.542345508E0,4.002079976E0,-2.874499693E0,5.163160106E0
9.512484542E0,-2.603265193E0,5.410024016E0,-1.477162502E0,6.182827717E0
9.522452542E0,-3.708002158E0,6.624136366E0,-5.447283643E-1,7.610860108E0
9.532419542E0,-4.277402264E0,7.830038055E0,2.594935834E-1,8.925973504E0
9.542387542E0,-4.382161272E0,8.594428185E0,3.296169019E-1,9.652780975E0
9.552354542E0,-4.679745080E0,9.060706796E0,-2.885688633E-1,1.020194558E1
9.562322542E0,-4.907518396E0,9.631504387E0,-1.478425208E0,1.091033247E1
9.572289542E0,-5.669815807E0,1.020576528E1,-3.175311457E0,1.209905199E1
9.582257042E0,-6.145673912E0,1.000897607E1,-3.592428140E0,1.228228194E1
9.592224042E0,-6.325533096E0,9.597901608E0,-2.429411684E0,1.174879251E1
9.602192042E0,-5.945032554E0,9.328894604E0,-8.931968357E-1,1.109817495E1
9.612159042E0,-5.294334515E0,9.218012685E0,3.081066035E-1,1.063469160E1
9.622127042E0,-4.811902387E0,9.251439462E0,9.224472396E-1,1.046873658E1
9.632094042E0,-4.598127598E0,9.320934205E0,9.502273612E-1,1.043673914E1
9.642062042E0,-4.397425721E0,9.448784160E0,8.390600972E-1,1.045566339E1
9.652030042E0,-3.972460612E0,9.627831751E0,6.466709147E-1,1.043521781E1
9.661997042E0,-3.664219084E0,9.738924755E0,2.959829865E-1,1.040964758E1
9.671965042E0,-3.428484492E0,9.735549742E0,-1.107335468E-1,1.032219437E1
9.681932042E0,-3.399568549E0,9.672887471E0,-4.072362046E-1,1.026097752E1
9.691900042E0,-3.447679147E0,9.451873244E0,-1.933082186E-1,1.006289061E1
9.701867042E0,-3.645787784E0,8.886077946E0,8.053944607E-1,9.638610381E0
9.711835042E0,-3.479136875E0,8.215253792E0,2.155306494E0,9.178242443E0
9.721802042E0,-2.887286969E0,7.293273014E0,3.576100960E0,8.620716639E0
9.731770042E0,-1.786145457E0,5.459889656E0,6.704342038E0,8.828868150E0
9.741737042E0,1.361502822E0,1.609111648E0,1.414691259E1,1.430307891E1
9.751705042E0,8.082266473E0,-4.866051697E0,2.506615981E1,2.678271566E1
9.761672042E0,1.336427447E1,-8.528042407E0,3.157043878E1,3.532738236E1
9.771640042E0,9.430551372E0,-6.647559727E0,3.154882513E1,3.359246518E1
9.781607042E0,7.615419513E-1,-1.281962037E1,2.960895053E1,3.227402305E1
9.791575042E0,2.049512236E0,-1.809728447E1,2.551122881E1,3.134541436E1
9.801542042E0,7.306367269E0,-2.139299273E1,2.121261782E1,3.100029509E1
9.811510042E0,9.978427877E0,-2.488026747E1,9.909656435E0,2.857967849E1
9.821477042E0,1.462942015E1,-3.191471348E1,-1.638966478E1,3.874519302E1
9.831445042E0,2.689031568E1,-4.278713151E1,-4.244877419E1,6.599792520E1
9.841412042E0,1.593728091E1,-3.108184076E1,-2.592275585E1,4.349789672E1
9.851380042E0,3.502666655E0,-1.204874685E1,-2.018655076E1,2.376842035E1
9.861347042E0,5.851174217E-1,-3.327442852E0,-1.296774554E1,1.340062173E1
9.871315042E0,-2.883273733E-1,2.057752132E-2,-7.645401696E0,7.650864213E0
9.881282042E0,-2.165121922E0,2.144371031E0,-5.981341424E0,6.712862674E0
9.891250042E0,-3.109197866E0,3.795471534E0,-3.743479847E0,6.171414498E0
9.901217042E0,-3.560450887E0,5.136491268E0,-1.918785159E0,6.537743460E0
9.911185042E0,-4.026387143E0,5.911426851E0,-7.775314549E-1,7.194533759E0
9.921152042E0,-4.586480236E0,6.522436329E0,-4.139486620E-1,7.984317761E0
9.931120042E0,-4.529392116E0,7.666870918E0,-5.926957056E-1,8.924549894E0
9.941087042E0,-4.727883452E0,8.545420917E0,-9.811844212E-1,9.815285195E0
9.951055042E0,-5.233490728E0,9.176544231E0,-1.443774024E0,1.066221706E1
9.961022042E0,-5.218240020E0,9.993057611E0,-2.754221590E0,1.160504054E1
9.970990042E0,-5.726589348E0,1.024101698E1,-4.228132163E0,1.247194275E1
9.980957042E0,-5.877943940E0,9.763535686E0,-4.311771028E0,1.218475373E1
9.990925042E0,-5.657677572E0,9.245939571E0,-2.790451815E0,1.119300386E1
1.000089304E1,-5.078906134E0,8.996983255E0,-7.482155621E-1,1.035861099E1
1.001086004E1,-4.648667714E0,8.973813663E0,3.610385232E-1,1.011285281E1
1.002082804E1,-4.324344589E0,8.937998298E0,3.620712876E-1,9.935736777E0
1.003079504E1,-3.990947754E0,8.952666623E0,1.132596901E-1,9.802587995E0
1.004076304E1,-3.819256253E0,8.994048538E0,-3.425854415E-1,9.777371437E0
1.005073004E1,-3.848592611E0,8.996019049E0,-8.949917847E-1,9.825529712E0
1.006069804E1,-3.769605206E0,9.097821997E0,-1.306694239E0,9.934170239E0
1.007066504E1,-3.889862552E0,9.006710098E0,-1.461006353E0,9.918991735E0
1.008063304E1,-3.800112177E0,8.788975575E0,-1.015601425E0,9.629038917E0
1.009060004E1,-3.517018354E0,8.576012380E0,-1.635466218E-3,9.269164424E0
1.010056804E1,-3.390173243E0,8.040153072E0,8.624198699E-1,8.768187046E0
1.011053504E1,-2.988368663E0,7.296410045E0,1.762820621E0,8.079324437E0
1.012050304E1,-2.129172656E0,6.126951712E0,3.570172760E0,7.403988588E0
1.013047004E1,-8.670888716E-1,3.986787168E0,7.124242288E0,8.209819926E0
1.014043804E1,2.232897584E0,4.640859050E-1,1.330577776E1,1.349981219E1
1.015040504E1,7.982223537E0,-3.792890573E0,2.130962079E1,2.306950042E1
1.016037304E1,1.214297473E1,-5.364281248E0,2.865285592E1,3.157868745E1
1.017034004E1,9.979591473E0,-5.511673767E0,3.086623053E1,3.290433073E1
1.018030804E1,2.257176685E0,-1.314314096E1,2.878586605E1,3.172480236E1
1.019027504E1,4.576880570E0,-2.019569346E1,2.713900711E1,3.413707043E1
1.020024304E1,9.467130384E0,-2.562288257E1,2.140591040E1,3.470405839E1
1.021021004E1,1.033713935E1,-3.131698537E1,1.081037206E1,3.470553510E1
1.022017804E1,1.305786985E1,-3.938712062E1,-1.378596865E1,4.372534926E1
1.023014504E1,1.985508614E1,-4.498335507E1,-3.728853855E1,6.171030535E1
1.024011304E1,1.299782479E1,-2.851695961E1,-2.301736795E1,3.888392550E1
1.025008004E1,3.631629336E0,-1.254552863E1,-1.831278945E1,2.249304954E1
1.026004804E1,9.187382045E-1,-4.553479428E0,-1.204138637E1,1.290632560E1
1.027001504E1,-6.880687630E-1,-1.229716229E-1,-8.203103278E0,8.232828434E0
1.027998304E1,-1.116397190E0,2.165045031E0,-5.513356011E0,6.027508372E0
1.028995004E1,-2.125650878E0,3.898502398E0,-2.604925510E0,5.148043270E0
1.029991804E1,-2.780718248E0,5.366754035E0,-6.615960789E-1,6.080473026E0
1.030988504E1,-3.649390253E0,6.064447315E0,-1.688789901E-1,7.079836903E0
1.031985304E1,-4.504511921E0,6.779782230E0,-2.892687750E-1,8.144921801E0
1.032982004E1,-4.007141325E0,7.999990886E0,-6.046015137E-1,8.967863668E0
1.033978804E1,-3.932148153E0,8.609935001E0,-1.112424884E0,9.530491013E0
1.034975504E1,-4.249192080E0,9.126580358E0,-1.782451186E0,1.022385615E1
1.035972304E1,-4.841918483E0,9.764827335E0,-2.917211265E0,1.128300266E1
1.036969004E1,-5.189867576E0,1.013992563E1,-3.756892775E0,1.199445958E1
1.037965804E1,-5.263900927E0,9.950985725E0,-3.715655871E0,1.185482469E1
1.038962504E1,-5.066132891E0,9.493812398E0,-2.667783371E0,1.108671477E1
1.039959304E1,-4.651436663E0,9.198590573E0,-1.014102199E0,1.035752552E1
1.040956004E1,-4.308348068E0,9.179560810E0,-2.149629432E-1,1.014260365E1
1.041952804E1,-4.121728626E0,9.250707976E0,-5.383560687E-2,1.012754379E1
1.042949504E1,-3.906836726E0,9.294976661E0,-1.519054002E-1,1.008380085E1
1.043946304E1,-3.694027605E0,9.332536835E0,-4.240150823E-1,1.004598788E1
1.044943004E1,-3.597932124E0,9.380168839E0,-7.654129542E-1,1.007564092E1
1.045939804E1,-3.408976134E0,9.490591167E0,-1.045892633E0,1.013835935E1
1.046936504E1,-3.336724137E0,9.472979938E0,-1.276083188E0,1.012420195E1
1.047933304E1,-3.236254062E0,9.301099865E0,-1.069976291E0,9.905990527E0
1.048930104E1,-3.129047994E0,8.957127464E0,-2.189179999E-1,9.490468842E0
1.049926804E1,-3.203417560E0,8.344248632E0,6.685805780E-1,8.963000016E0
1.050923604E1,-2.897863998E0,7.560067431E0,1.574874884E0,8.248179569E0
1.051920304E1,-2.101969362E0,6.310895176E0,3.326743817E0,7.437264117E0
1.052917104E1,-4.819921258E-1,3.879521166E0,7.219212180E0,8.209751847E0
1.053913804E1,3.048580659E0,-5.362007850E-1,1.439426385E1,1.472332120E1
1.054910604E1,9.390335392E0,-6.700642505E0,2.347782683E1,2.615884862E1
1.055907304E1,1.311778276E1,-6.740085483E0,3.064476607E1,3.400892036E1
1.056904104E1,7.258183288E0,-7.109254121E0,3.223398081E1,3.379722234E1
1.057900804E1,-1.090903330E-1,-1.556103831E1,3.050603737E1,3.424581916E1
1.058897571E1,5.032657582E0,-1.977433141E1,2.697547219E1,3.382348185E1
1.059894271E1,9.398088216E0,-2.261557770E1,1.876345073E1,3.085215552E1
1.060891071E1,1.041713862E1,-2.652886653E1,9.671985830E0,3.009725646E1
1.061887771E1,1.212495829E1,-3.355874704E1,-2.087927975E1,4.134184852E1
1.062884571E1,1.866043449E1,-3.931465257E1,-4.418821794E1,6.201977368E1
1.063881271E1,1.110509278E1,-2.624752424E1,-2.300767093E1,3.662797477E1
1.064878071E1,3.266922708E0,-1.087100535E1,-1.853470064E1,2.173445810E1
1.065874771E1,8.898716703E-1,-1.971741929E0,-1.362753249E1,1.379816219E1
1.066871571E1,-8.270360291E-2,1.806691988E0,-9.177407865E0,9.353918481E0
1.067868271E1,-1.013433570E0,3.586331248E0,-6.209133743E0,7.241696021E0
1.068865071E1,-2.885515263E0,5.119457159E0,-3.159280730E0,6.672038269E0
1.069861771E1,-3.202627017E0,5.909130650E0,-8.703282291E-1,6.777323666E0
1.070858571E1,-3.453017363E0,6.186840649E0,1.353077862E-1,7.086510729E0
1.071855271E1,-3.928552701E0,6.430137445E0,6.416181895E-1,7.562530514E0
1.072852071E1,-4.689450873E0,7.117564768E0,2.153415504E-1,8.526256488E0
1.073848771E1,-4.351007015E0,8.486894966E0,-6.956707281E-1,9.562562730E0
1.074845571E1,-4.578453471E0,9.318491238E0,-1.516713069E0,1.049270860E1
1.075842271E1,-4.986717178E0,9.745525677E0,-2.895174278E0,1.132363250E1
1.076839071E1,-5.272479962E0,1.017959198E1,-4.047552895E0,1.215754178E1
1.077835771E1,-5.682290842E0,1.010949672E1,-4.204436029E0,1.233562465E1
1.078832571E1,-5.672614285E0,9.482431962E0,-2.632934258E0,1.135902335E1
1.079829271E1,-5.173186054E0,9.112587971E0,-6.650852586E-1,1.049968818E1
1.080826071E1,-4.672865539E0,8.847962286E0,5.616309106E-1,1.002185303E1
1.081822771E1,-4.356361895E0,8.798381991E0,9.691508514E-1,9.865529281E0
1.082819571E1,-4.169066514E0,8.823692833E0,6.265335426E-1,9.779121387E0
1.083816271E1,-4.000367034E0,8.889695619E0,-1.249938825E-1,9.749115245E0
1.084813071E1,-3.924873048E0,8.751319506E0,-8.417698431E-1,9.628021500E0
1.085809771E1,-4.014917538E0,8.481729535E0,-1.347803088E0,9.480288599E0
1.086806571E1,-3.902282330E0,8.335366711E0,-1.397300500E0,9.309059796E0
1.087803271E1,-3.770468840E0,8.086383498E0,-8.286032291E-1,8.960614748E0
1.088800071E1,-3.726867615E0,7.557354323E0,3.578659701E-1,8.433932335E0
1.089796771E1,-3.288414149E0,6.878450485E0,1.645104768E0,7.799558859E0
1.090793571E1,-2.846840317E0,5.851459562E0,3.073495352E0,7.196558377E0
1.091790271E1,-2.328167145E0,4.097440462E0,5.366605516E0,7.142117008E0
1.092787071E1,-6.967331672E-1,1.011900430E0,1.018605315E1,1.025987614E1
1.093783771E1,4.063962228E0,-4.258250002E0,1.922553748E1,2.010646098E1
1.094780571E1,1.119201982E1,-8.206457825E0,2.916015100E1,3.229429770E1
1.095777271E1,1.107957553E1,-6.668578713E0,3.494475466E1,3.726074093E1
1.096774071E1,-7.092508864E-1,-1.266203323E1,3.376407786E1,3.606720222E1
1.097770771E1,2.121842001E0,-1.781037563E1,2.980559941E1,3.478628249E1
1.098767571E1,1.129180841E1,-1.961116252E1,2.424320864E1,3.316377237E1
1.099764271E1,1.128256747E1,-2.281545892E1,1.403943960E1,2.906797823E1
1.100761071E1,1.301359590E1,-2.667530420E1,3.592946788E0,2.989707008E1
1.101757771E1,1.668005856E1,-3.666694679E1,-2.930347327E1,4.981348097E1
1.102754571E1,1.683714635E1,-3.810747853E1,-3.762225318E1,5.613468938E1
1.103751271E1,7.829494264E0,-2.378292752E1,-2.290649071E1,3.393576194E1
1.104748071E1,2.431678942E0,-9.475732808E0,-1.723729704E1,1.981986337E1
1.105744771E1,-4.262415558E-2,-2.913068805E0,-1.250433616E1,1.283924490E1
1.106741571E1,-1.576997862E0,5.636517084E-1,-7.805355788E0,7.982994707E0
1.107738271E1,-1.907783038E0,2.986516850E0,-4.583194686E0,5.793495710E0
1.108735071E1,-2.255226054E0,4.784418134E0,-2.189212451E0,5.724452165E0
1.109731771E1,-3.378275913E0,5.368438033E0,-4.303559491E-1,6.357521633E0
1.110728571E1,-3.856447468E0,5.784310722E0,7.831380576E-2,6.952450694E0
1.111725271E1,-4.208042884E0,6.541623382E0,3.977007115E-1,7.788364863E0
1.112722071E1,-4.512641597E0,7.654994638E0,-2.313123429E-1,8.889115957E0
1.113718771E1,-4.110373918E0,8.920739656E0,-1.186780125E0,9.893594737E0
1.114715571E1,-4.394185486E0,9.462517515E0,-2.325901642E0,1.068914974E1
1.115712271E1,-4.702502443E0,9.972798178E0,-3.363695589E0,1.152756179E1
1.116709071E1,-4.678380632E0,1.028443372E1,-3.435066703E0,1.180917040E1
1.117705771E1,-5.250905491E0,1.006637819E1,-2.572555909E0,1.164139262E1
1.118702571E1,-5.479811704E0,9.627531788E0,-1.485390996E0,1.117694462E1
1.119699271E1,-4.964311232E0,9.438464994E0,-3.623848446E-1,1.067053561E1
1.120696071E1,-4.376992918E0,9.358743471E0,4.074573755E-1,1.033973732E1
1.121692771E1,-4.113280276E0,9.301365913E0,5.430113295E-1,1.018476037E1
1.122689571E1,-3.814928144E0,9.327214115E0,2.685134983E-1,1.008080847E1
1.123686271E1,-3.455265617E0,9.391591959E0,-2.294994137E-1,1.000967182E1
1.124683071E1,-3.110457941E0,9.461356843E0,-7.336127257E-1,9.986511380E0
1.125679771E1,-2.984361859E0,9.381917741E0,-1.090523407E0,9.905353981E0
1.126676571E1,-3.067051136E0,8.975380132E0,-1.036166521E0,9.541377901E0
1.127673271E1,-3.327596341E0,8.306397851E0,-3.203379554E-1,8.953868386E0
1.128670071E1,-3.269655989E0,7.536952218E0,7.039755285E-1,8.245718923E0
1.129666771E1,-3.303971836E0,6.550856720E0,1.821128179E0,7.559527862E0
1.130663571E1,-3.153039705E0,5.291257710E0,3.449624516E0,7.059672573E0
1.131660271E1,-2.958223343E0,3.397386076E0,5.795485920E0,7.340366104E0
1.132657071E1,-2.541505147E0,4.393112522E-1,9.838202291E0,1.017066699E1
1.133653771E1,-5.179054320E-2,-4.280511521E0,1.749890030E1,1.801490974E1
1.134650571E1,6.866094149E0,-7.531373389E0,2.550705858E1,2.746770597E1
1.135647271E1,9.567453986E0,-6.482965869E0,3.145407685E1,3.351005778E1
1.136644071E1,1.947181577E0,-1.110582017E1,3.305632153E1,3.492636755E1
1.137640771E1,2.593240142E-3,-1.821951584E1,2.964952319E1,3.480007168E1
1.138637571E1,9.067042254E0,-1.909864354E1,2.448389641E1,3.234857994E1
1.139634271E1,1.343523394E1,-2.087007857E1,1.638479873E1,2.974100402E1
1.140631071E1,1.666251341E1,-2.444257999E1,5.401123969E0,3.007077002E1
1.141627771E1,2.263584882E1,-3.444911894E1,-3.195166321E1,5.215392822E1
1.142624571E1,1.760376193E1,-3.815500470E1,-4.046935136E1,5.833922537E1
1.143621271E1,6.684754450E0,-2.162949623E1,-1.693389672E1,2.827150345E1
1.144618071E1,2.311790848E0,-9.455363447E0,-1.498764865E1,1.787114677E1
1.145614771E1,3.575736094E-1,-2.626948171E0,-1.129443264E1,1.160141906E1
1.146611571E1,-1.595430625E0,1.073562827E0,-8.592122043E0,8.804686095E0
1.147608271E1,-2.696534422E0,3.179752709E0,-5.853245886E0,7.186279467E0
1.148605071E1,-2.531970385E0,4.966106327E0,-2.777259035E0,6.227861096E0
1.149601771E1,-3.108277222E0,6.027847254E0,-7.188116688E-1,6.820045456E0
1.150598571E1,-3.791589568E0,6.332291307E0,-2.192530453E-1,7.383910654E0
1.151595271E1,-3.977682176E0,6.742943017E0,6.528094679E-2,7.829016389E0
1.152592071E1,-4.508031068E0,7.688172909E0,-6.157705727E-1,8.933617419E0
1.153588771E1,-4.023177314E0,9.091929173E0,-2.026789664E0,1.014677329E1
1.154585571E1,-3.918207807E0,9.537015721E0,-2.974089470E0,1.073090068E1
1.155582271E1,-4.430417174E0,9.824826200E0,-3.525596804E0,1.133956079E1
1.156579071E1,-4.936239334E0,9.919542907E0,-2.919845728E0,1.145815384E1
1.157575771E1,-5.162700827E0,9.890102177E0,-1.625045603E0,1.127423497E1
1.158572621E1,-5.069205603E0,9.641893135E0,-1.329521476E0,1.097408657E1
1.159569321E1,-4.715367487E0,9.444354894E0,-1.215202125E0,1.062578214E1
1.160566121E1,-4.136357775E0,9.238990740E0,-7.123709607E-1,1.014770309E1
1.161562821E1,-4.196502820E0,8.996856371E0,-2.393972880E-1,9.930325852E0
1.162559621E1,-3.928072937E0,8.971957172E0,-2.524646455E-1,9.797423686E0
1.163556321E1,-3.494208073E0,8.867078004E0,-8.235037261E-1,9.566228137E0
1.164553121E1,-3.375525091E0,8.657381063E0,-1.503810310E0,9.413068679E0
1.165549821E1,-3.388402706E0,8.477142395E0,-1.969853863E0,9.339354385E0
1.166546621E1,-3.400265537E0,8.207498045E0,-1.954699927E0,9.096465340E0
1.167543321E1,-3.269458061E0,7.810700728E0,-1.174231854E0,8.548404665E0
1.168540121E1,-2.951686741E0,7.354344842E0,1.974569643E-1,7.927031722E0
1.169536821E1,-2.563599436E0,6.778302299E0,1.517689261E0,7.404107294E0
1.170533621E1,-2.271392728E0,5.861198099E0,2.921953649E0,6.931859867E0
1.171530321E1,-1.789598530E0,4.258132473E0,4.847973860E0,6.696058960E0
1.172527121E1,-8.927224803E-1,1.609115156E0,7.677530977E0,7.894978588E0
1.173523821E1,1.653621530E0,-1.662154080E0,1.319746277E1,1.340411294E1
1.174520621E1,6.004991072E0,-4.940358698E0,2.018955857E1,2.163527991E1
1.175517321E1,1.032479939E1,-6.270023723E0,2.656745114E1,2.918465590E1
1.176514121E1,6.891134266E0,-8.184727818E0,3.075702325E1,3.256488877E1
1.177510821E1,3.843841164E0,-1.415197160E1,2.824381044E1,3.182398849E1
1.178507621E1,8.642178887E0,-1.688498359E1,2.247942879E1,2.941283130E1
1.179504321E1,1.119600996E1,-1.987539702E1,1.648956797E1,2.814760910E1
1.180501121E1,1.140374750E1,-2.530768022E1,7.443521898E0,2.873900057E1
1.181497821E1,1.238207439E1,-3.243713881E1,-1.192971859E1,3.671242196E1
1.182494621E1,9.731078961E0,-3.847424396E1,-3.354628078E1,5.196454849E1
1.183491321E1,5.487139435E0,-2.641772032E1,-2.007521743E1,3.363062594E1
1.184488121E1,2.869403845E0,-1.362540645E1,-1.570462955E1,2.098858187E1
1.185484821E1,1.317925863E0,-5.845214151E0,-1.311688346E1,1.442068267E1
1.186481621E1,-1.235528069E0,-1.348390734E0,-8.220325667E0,8.421308761E0
1.187478321E1,-2.314899521E0,1.393931188E0,-4.264544237E0,5.048578166E0
1.188475121E1,-2.316413949E0,3.910736527E0,-2.148276679E0,5.027397583E0
1.189471821E1,-2.643563619E0,5.586120517E0,-9.474895486E-1,6.252272185E0
1.190468621E1,-2.982842752E0,6.324261326E0,-1.501985979E-1,6.994011140E0
1.191465321E1,-3.632346497E0,6.665900688E0,-5.489687651E-2,7.591520712E0
1.192462121E1,-4.104998865E0,7.136597455E0,-2.157070014E-1,8.235810126E0
1.193458821E1,-3.679013709E0,8.241952178E0,-1.754078449E0,9.194656535E0
1.194455621E1,-3.218827605E0,9.120742498E0,-2.770709569E0,1.006109469E1
1.195452321E1,-3.639369880E0,9.656012406E0,-3.643916090E0,1.094356949E1
1.196449121E1,-4.216023457E0,9.958619850E0,-3.776348215E0,1.145468328E1
1.197445821E1,-4.243635179E0,9.912651379E0,-2.908431086E0,1.116817211E1
1.198442621E1,-4.054239186E0,9.856781234E0,-1.964680539E0,1.083757174E1
1.199439321E1,-3.880989402E0,9.808698410E0,-1.607593126E0,1.067037951E1
1.200436021E1,-3.691924069E0,9.723315028E0,-1.527833888E0,1.051225165E1
1.201432821E1,-3.405675089E0,9.560592279E0,-1.356932639E0,1.023937565E1
1.202429521E1,-3.082981290E0,9.366250711E0,-1.153367673E0,9.927823679E0
1.203426321E1,-2.804995303E0,9.158135442E0,-1.163014702E0,9.648421976E0
1.204423021E1,-2.543109916E0,8.973598486E0,-1.496476879E0,9.446286089E0
1.205419821E1,-2.411356652E0,8.873019944E0,-1.882636502E0,9.385597692E0
1.206416521E1,-2.409912974E0,8.676548821E0,-2.053702936E0,9.236226271E0
1.207413321E1,-2.472367377E0,8.244991561E0,-1.858884527E0,8.806130704E0
1.208410021E1,-2.404836714E0,7.697310938E0,-1.153905324E0,8.146369301E0
1.209406821E1,-2.127469362E0,7.090642433E0,-1.659201528E-1,7.404786661E0
1.210403521E1,-1.665202233E0,6.075947619E0,1.167256126E0,6.407224423E0
1.211400321E1,-1.164770620E0,4.456120949E0,3.379742687E0,5.712824620E0
1.212397021E1,1.771033913E-2,1.973261620E0,7.171133450E0,7.437689832E0
1.213393821E1,3.607135642E0,-1.561636934E0,1.336221158E1,1.392834648E1
1.214390521E1,9.799548687E0,-4.984452551E0,2.120320848E1,2.388413640E1
1.215387321E1,1.251041142E1,-6.621954185E0,2.849400578E1,3.181617571E1
1.216384021E1,9.662052580E0,-9.564176037E0,3.182981893E1,3.461164683E1
1.217380821E1,7.353432677E0,-1.601338125E1,2.551350689E1,3.100710217E1
1.218377521E1,9.563777257E0,-1.849529275E1,2.024088542E1,2.903851119E1
1.219374321E1,8.728579684E0,-2.090846671E1,1.406109769E1,2.666583117E1
1.220371021E1,7.291217133E0,-2.628044173E1,4.889791977E0,2.770800480E1
1.221367821E1,6.836318958E0,-3.412106675E1,-1.906003087E1,3.967703656E1
1.222364521E1,9.425097089E0,-3.480300179E1,-2.292962931E1,4.272995774E1
1.223361321E1,6.235752023E0,-2.206625050E1,-1.607327428E1,2.800275273E1
1.224358021E1,2.302334731E0,-1.219671415E1,-1.533959373E1,1.973230136E1
1.225354821E1,2.700214952E-1,-6.295311177E0,-1.115741834E1,1.281373632E1
1.226351521E1,-1.604680628E0,-2.186049984E0,-6.425936805E0,6.974702737E0
1.227348321E1,-2.495453061E0,8.011217541E-1,-2.961310673E0,3.954547123E0
1.228345021E1,-2.672716959E0,3.203794121E0,-1.341600362E0,4.382648086E0
1.229341821E1,-2.984594578E0,4.922979019E0,-5.995501041E-1,5.788176530E0
1.230338521E1,-3.388210917E0,6.039254002E0,8.154088408E-2,6.925258915E0
1.231335321E1,-3.741365201E0,6.794256427E0,-4.854902226E-1,7.771449976E0
1.232332021E1,-3.610451890E0,7.689494964E0,-1.708281010E0,8.664982381E0
1.233328821E1,-3.286128180E0,8.138276367E0,-2.241958721E0,9.058507579E0
1.234325521E1,-3.237821116E0,8.670061920E0,-2.504194941E0,9.587724004E0
1.235322321E1,-3.544391217E0,9.023017983E0,-2.741129674E0,1.007429176E1
1.236319021E1,-3.669502628E0,9.267747931E0,-2.599830246E0,1.030123869E1
1.237315821E1,-3.958328769E0,9.485652024E0,-2.332491746E0,1.053975705E1
1.238312521E1,-4.459904974E0,9.752286227E0,-1.916475216E0,1.089360897E1
1.239309321E1,-4.411373669E0,9.891015512E0,-1.655520414E0,1.095596428E1
1.240306021E1,-4.198715991E0,1.000998647E1,-1.644633629E0,1.097879159E1
1.241302821E1,-3.995967004E0,1.001889997E1,-1.440383954E0,1.088213282E1
1.242299521E1,-3.698703916E0,9.927333738E0,-1.232752689E0,1.066546037E1
1.243296321E1,-3.262453973E0,9.748480859E0,-1.252814778E0,1.035596591E1
1.244293021E1,-2.838535809E0,9.601846139E0,-1.317102867E0,1.009888582E1
1.245289821E1,-2.477379318E0,9.490628005E0,-1.468255439E0,9.917923283E0
1.246286521E1,-2.273609115E0,9.314471278E0,-1.756569217E0,9.747523224E0
1.247283321E1,-2.295625636E0,9.045699917E0,-2.099710875E0,9.565739376E0
1.248280021E1,-2.277221232E0,8.764309096E0,-2.210067422E0,9.321118413E0
1.249276821E1,-2.134907605E0,8.418322329E0,-1.701534200E0,8.849926550E0
1.250273521E1,-1.889845827E0,7.733092389E0,-4.073591423E-1,7.971083779E0
1.251270221E1,-1.088883409E0,6.604542931E0,1.462699122E0,6.851652583E0
1.252267021E1,1.233309928E0,4.146785699E0,5.412620764E0,6.929166512E0
1.253263721E1,5.725363187E0,3.414616066E-1,1.324224776E1,1.443099114E1
1.254260521E1,1.185836969E1,-4.598093684E0,2.072851514E1,2.431943127E1
1.255257221E1,1.371195225E1,-7.428664708E0,2.645337898E1,3.070804379E1
1.256254021E1,9.744464407E0,-9.112468688E0,3.135528463E1,3.407558578E1
1.257250721E1,8.232424725E0,-1.255013623E1,2.873420940E1,3.241810492E1
1.258247629E1,9.131196735E0,-1.537132189E1,2.292104092E1,2.906940672E1
1.259244329E1,9.140971525E0,-1.748351160E1,1.978314901E1,2.793928280E1
1.260241129E1,7.187892154E0,-2.309830745E1,1.457347165E1,2.824152398E1
1.261237829E1,5.341033888E0,-2.811905191E1,2.892155069E0,2.876755611E1
1.262234629E1,2.925106760E0,-3.874766678E1,-2.602096101E1,4.676567483E1
1.263231329E1,8.018610760E0,-3.602076397E1,-2.854850651E1,4.665630482E1
1.264228129E1,3.632885610E0,-2.163089956E1,-1.944209729E1,2.931021701E1
1.265224829E1,4.074737477E-1,-1.055644970E1,-1.579007141E1,1.899818466E1
1.266221629E1,-9.919663945E-1,-4.028942084E0,-1.071148746E1,1.148705076E1
1.267218329E1,-2.165840253E0,7.928081828E-1,-5.370817266E0,5.845090839E0
1.268215129E1,-2.139263196E0,3.898860247E0,-2.704916991E0,5.205202606E0
1.269211829E1,-3.209493110E0,5.348513061E0,-2.139302664E0,6.594243996E0
1.270208629E1,-3.556374501E0,6.164606026E0,-1.145320735E0,7.208462155E0
1.271205329E1,-3.367861730E0,6.896785015E0,-4.040408474E-1,7.685791123E0
1.272202129E1,-3.726480237E0,7.283524536E0,5.485711545E-2,8.181649829E0
1.273198829E1,-4.069720566E0,7.973828105E0,-6.566510886E-2,8.952590242E0
1.274195629E1,-3.911551336E0,8.734744989E0,-1.646542891E0,9.711184653E0
1.275192329E1,-3.666938040E0,9.560694605E0,-2.889579955E0,1.063968929E1
1.276189129E1,-3.960688413E0,1.002282696E1,-3.848151146E0,1.144344267E1
1.277185829E1,-4.157111882E0,1.021069916E1,-4.137812270E0,1.177545952E1
1.278182629E1,-4.024290332E0,1.008396778E1,-3.451937674E0,1.139285709E1
1.279179329E1,-4.364595944E0,9.960489789E0,-2.123476883E0,1.108017187E1
1.280176129E1,-4.791792350E0,9.974206188E0,-5.212038463E-1,1.107780287E1
1.281172829E1,-4.483729162E0,9.892844521E0,-5.603913009E-2,1.086164538E1
1.282169629E1,-4.093114691E0,9.824800472E0,-4.591287817E-1,1.065321977E1
1.283166329E1,-3.905918129E0,9.700038432E0,-7.242946029E-1,1.048196283E1
1.284163029E1,-3.610325590E0,9.630319156E0,-6.416168739E-1,1.030481296E1
1.285159829E1,-3.224257622E0,9.613581501E0,-7.721373984E-1,1.016921741E1
1.286156529E1,-2.931209499E0,9.586297808E0,-1.156234855E0,1.009088568E1
1.287153329E1,-2.657841057E0,9.543064080E0,-1.417127677E0,1.000711956E1
1.288150029E1,-2.564345249E0,9.255901473E0,-1.491180325E0,9.719629488E0
1.289146829E1,-2.726405216E0,8.657171733E0,-9.820106328E-1,9.129307350E0
1.290143529E1,-2.708337027E0,7.900593483E0,1.588220716E-2,8.351929063E0
1.291140329E1,-2.419193383E0,6.458671272E0,1.485271128E0,7.054995503E0
1.292137029E1,-1.304525506E0,3.681911005E0,4.394974861E0,5.879971043E0
1.293133829E1,2.070352590E0,-1.204111272E0,1.203842066E1,1.227435603E1
1.294130529E1,7.795528958E0,-7.404856600E0,2.075590818E1,2.337541224E1
1.295127329E1,1.133620281E1,-7.999308516E0,2.446627992E1,2.812645168E1
1.296124029E1,7.312675245E0,-6.337638586E0,2.699802139E1,2.867985427E1
1.297120829E1,4.369890013E0,-1.025771195E1,2.698021545E1,2.919329750E1
1.298117529E1,5.476195786E0,-1.589098850E1,2.409550564E1,2.937865940E1
1.299114329E1,8.545403375E0,-1.980628761E1,2.409666105E1,3.234133611E1
1.300111029E1,9.848823173E0,-2.341982245E1,1.853530641E1,3.144908560E1
1.301107829E1,8.179189335E0,-2.984141477E1,8.601020336E-1,3.095398115E1
1.302104529E1,1.468499326E1,-3.981809316E1,-2.847539994E1,5.110751385E1
1.303101329E1,1.746346384E1,-3.528083391E1,-2.925910226E1,4.904900484E1
1.304098029E1,7.520129778E0,-1.927100075E1,-2.153528121E1,2.986121496E1
1.305094829E1,2.851349982E0,-9.003475419E0,-1.349695715E1,1.647302700E1
1.306091529E1,9.663196295E-1,-2.675354345E0,-6.827971473E0,7.396789096E0
1.307088329E1,-1.046208968E0,1.291436514E0,-3.543593364E0,3.914002479E0
1.308085029E1,-2.278425174E0,3.401906558E0,-2.162893256E0,4.630582765E0
1.309081829E1,-2.655749216E0,4.909987675E0,-1.177384819E0,5.705016904E0
1.310078529E1,-3.067015760E0,6.005843012E0,-1.892480582E-1,6.746299043E0
1.311075329E1,-3.734684465E0,6.600046422E0,5.062712270E-1,7.600315216E0
1.312072029E1,-4.146246878E0,7.214120425E0,-5.788606086E-1,8.340861843E0
1.313068729E1,-3.440140917E0,8.571893016E0,-1.460058812E0,9.351133147E0
1.314065529E1,-3.547563916E0,9.098720130E0,-2.285951418E0,1.002983009E1
1.315062229E1,-4.138619478E0,9.572003120E0,-3.062022823E0,1.086864291E1
1.316059029E1,-4.803787913E0,9.644368261E0,-2.863819461E0,1.114861782E1
1.317055729E1,-5.065800185E0,9.519748308E0,-2.482406754E0,1.106572558E1
1.318052529E1,-5.275987122E0,9.608244748E0,-2.320627745E0,1.120445092E1
1.319049229E1,-5.254640107E0,9.548086839E0,-2.051135131E0,1.108983139E1
1.320046029E1,-5.136445659E0,9.508207074E0,-1.455104173E0,1.090442130E1
1.321042729E1,-4.957661778E0,9.502166900E0,-7.146234544E-1,1.074152097E1
1.322039529E1,-4.588570324E0,9.462528625E0,-6.140454979E-1,1.053430005E1
1.323036229E1,-4.128940289E0,9.434162028E0,-8.305988838E-1,1.033157566E1
1.324033029E1,-3.687826340E0,9.427855806E0,-9.997803211E-1,1.017271296E1
1.325029729E1,-3.251274097E0,9.473593896E0,-1.221077553E0,1.009013354E1
1.326026529E1,-2.782637889E0,9.563830467E0,-1.554146066E0,1.008093730E1
1.327023229E1,-2.578671512E0,9.477391078E0,-1.949090400E0,1.001346303E1
1.328020029E1,-2.600502384E0,9.188895890E0,-2.179749902E0,9.795393302E0
1.329016729E1,-2.792946238E0,8.833445404E0,-2.197474566E0,9.521512530E0
1.330013529E1,-3.087824247E0,8.414166713E0,-1.692351440E0,9.121234206E0
1.331010229E1,-3.012236705E0,8.043687129E0,-7.477203029E-1,8.621691148E0
1.332007029E1,-2.933919099E0,7.319045202E0,5.533155853E-1,7.904584877E0
1.333003729E1,-2.790547417E0,5.960210171E0,2.246306126E0,6.953930643E0
1.334000529E1,-2.043775825E0,3.411893603E0,5.532799757E0,6.813949716E0
1.334997229E1,9.598254195E-1,-4.424722570E-1,1.315011669E1,1.319252120E1
1.335993929E1,8.166195652E0,-5.570790287E0,2.230132728E1,2.439404956E1
1.336990729E1,1.205590618E1,-9.313999992E0,2.801103513E1,3.188594610E1
1.337987429E1,8.203003290E0,-9.984229485E0,3.132018029E1,3.388108314E1
1.338984229E1,6.115433282E0,-1.375353064E1,3.153716578E1,3.494497038E1
1.339980929E1,6.665680833E0,-2.012280909E1,2.877548139E1,3.574055226E1
1.340977729E1,8.914890686E0,-2.515581400E1,2.647495286E1,3.759273045E1
1.341974429E1,8.838312042E0,-3.019351305E1,1.464781081E1,3.470334784E1
1.342971229E1,1.021484016E1,-3.977681182E1,-9.514353667E0,4.215519711E1
1.343967929E1,1.684876477E1,-4.349428442E1,-3.442952843E1,5.797435708E1
1.344964729E1,1.209428496E1,-2.947035514E1,-2.867564369E1,4.286100911E1
1.345961429E1,3.080193923E0,-1.473685689E1,-1.662912347E1,2.243190346E1
1.346958229E1,1.758584021E0,-7.292712266E0,-1.094642273E1,1.327028412E1
1.347954929E1,5.912137288E-1,-1.704807179E0,-7.363616188E0,7.581473772E0
1.348951729E1,-7.684209082E-1,1.598779033E0,-4.535203371E0,4.869767418E0
1.349948429E1,-1.466551560E0,3.981968477E0,-3.014468295E0,5.205176801E0
1.350945229E1,-2.066428231E0,5.619433274E0,-2.267585898E0,6.402351268E0
1.351941929E1,-2.618335222E0,6.452539882E0,-1.276041965E0,7.079493863E0
1.352938729E1,-3.126091934E0,6.942190983E0,-3.956483388E-1,7.623844439E0
1.353935429E1,-3.973065799E0,7.579976031E0,-3.458037490E-1,8.565095954E0
1.354932229E1,-3.486618680E0,8.725304659E0,-1.296523300E0,9.485168627E0
1.355928929E1,-3.279331961E0,9.386551074E0,-1.826948205E0,1.010935700E1
1.356925629E1,-3.626534657E0,9.553114859E0,-2.511907711E0,1.052252049E1
1.357922429E1,-3.969521802E0,9.877943476E0,-3.035444596E0,1.106999524E1
1.358919042E1,-4.472743121E0,1.008670662E1,-3.455818471E0,1.156242893E1
1.359915842E1,-4.902401497E0,1.015389112E1,-3.521506677E0,1.181253803E1
1.360912542E1,-5.106673976E0,1.001279547E1,-2.723509090E0,1.156510675E1
1.361909342E1,-4.870044760E0,9.739060410E0,-1.589899451E0,1.100429070E1
1.362906042E1,-4.357761134E0,9.401315294E0,-9.438879561E-1,1.040508221E1
1.363902842E1,-3.939575287E0,9.200740010E0,-7.049265781E-1,1.003348352E1
1.364899542E1,-3.767581485E0,9.140676826E0,-1.063987134E0,9.943777537E0
1.365896342E1,-3.633350171E0,9.143626746E0,-1.508961415E0,9.954100064E0
1.366893042E1,-3.467723987E0,9.163296779E0,-1.817171368E0,9.964598803E0
1.367889842E1,-3.173773347E0,9.186222543E0,-2.038160159E0,9.930438998E0
1.368886542E1,-2.982893915E0,9.112622470E0,-2.224553607E0,9.843077930E0
1.369883342E1,-3.032333293E0,8.946700124E0,-2.327258780E0,9.729060681E0
1.370880042E1,-3.296736783E0,8.589460391E0,-2.283877995E0,9.479630896E0
1.371876842E1,-3.317507848E0,8.178060822E0,-1.782333072E0,9.003513110E0
1.372873542E1,-3.089165890E0,7.735031911E0,-9.513609901E-1,8.383242349E0
1.373870342E1,-2.903227941E0,6.981190158E0,-7.131790459E-2,7.561139778E0
1.374867042E1,-2.695401524E0,5.736222051E0,1.349507552E0,6.480015696E0
1.375863742E1,-1.981703830E0,3.567440649E0,4.162021204E0,5.828910992E0
1.376860542E1,-6.766661078E-2,1.713994324E-1,1.044514561E1,1.044677096E1
1.377857242E1,4.605006847E0,-5.295375904E0,1.888307073E1,2.014491138E1
1.378854042E1,1.131090775E1,-9.563519395E0,2.626099857E1,3.015025013E1
1.379850742E1,1.026495197E1,-9.398251353E0,3.177318280E1,3.468762766E1
1.380847542E1,4.567639630E0,-1.265304021E1,3.327641540E1,3.589265357E1
1.381844242E1,3.130258952E0,-1.977542367E1,2.882536048E1,3.509654270E1
1.382841042E1,9.396557415E0,-2.424416291E1,2.736047859E1,3.774480779E1
1.383837742E1,1.048721048E1,-2.798086349E1,1.763399203E1,3.469680073E1
1.384834542E1,1.071051214E1,-3.408703596E1,-3.906670958E0,3.594305452E1
1.385831242E1,1.638458121E1,-3.785923850E1,-3.021021503E1,5.113153169E1
1.386828042E1,1.424865181E1,-3.162252110E1,-3.040093951E1,4.612184994E1
1.387824742E1,4.719243607E0,-1.883055338E1,-1.873623779E1,2.697976293E1
1.388821542E1,2.033951626E0,-9.659620723E0,-1.067763559E1,1.454156572E1
1.389818242E1,2.174260828E-1,-4.003396769E0,-6.107541295E0,7.305923655E0
1.390815042E1,-1.630096428E0,-7.003677964E-2,-2.714671901E0,3.167264283E0
1.391811742E1,-2.530800942E0,2.585422415E0,-1.662517484E0,3.981623645E0
1.392808542E1,-3.162173640E0,4.213989503E0,-1.220807704E0,5.408088489E0
1.393805242E1,-3.284183688E0,5.428756156E0,-4.033137462E-1,6.357666072E0
1.394801942E1,-3.640846594E0,6.211079696E0,-7.117461857E-1,7.234629054E0
1.395798742E1,-3.688505787E0,7.503671036E0,-2.392719529E0,8.696853494E0
1.396795442E1,-3.412822433E0,8.539119957E0,-3.070188752E0,9.694843246E0
1.397792242E1,-3.400817514E0,8.798100740E0,-2.751494156E0,9.825622448E0
1.398788942E1,-3.716386773E0,9.114780092E0,-2.235265414E0,1.009391689E1
1.399785742E1,-4.081003938E0,9.289324157E0,-1.868807837E0,1.031690744E1
1.400782442E1,-4.039645705E0,9.436352395E0,-2.108749208E0,1.047904133E1
1.401779242E1,-4.113677595E0,9.666125751E0,-2.426010359E0,1.078155168E1
1.402775942E1,-4.479458356E0,9.827700691E0,-2.198133840E0,1.102184378E1
1.403772742E1,-4.562589975E0,9.841150457E0,-1.897548656E0,1.101209156E1
1.404769442E1,-4.463214498E0,9.708024559E0,-1.598687524E0,1.080378759E1
1.405766242E1,-4.273307751E0,9.532805725E0,-1.475776127E0,1.055051939E1
1.406762942E1,-4.021708201E0,9.460253474E0,-1.463607487E0,1.038328847E1
1.407759742E1,-3.809056078E0,9.478727167E0,-1.611279503E0,1.034173093E1
1.408756442E1,-3.528113153E0,9.521924642E0,-1.691815397E0,1.029450682E1
1.409753242E1,-3.139527082E0,9.611944281E0,-1.877701891E0,1.028454508E1
1.410749942E1,-2.934503236E0,9.615592359E0,-2.235011937E0,1.029884479E1
1.411746742E1,-2.865482410E0,9.609165099E0,-2.437531713E0,1.031933158E1
1.412743442E1,-2.945664108E0,9.452180223E0,-2.460926422E0,1.020180410E1
1.413740142E1,-3.234061648E0,9.139876927E0,-2.536735573E0,1.002155339E1
1.414736942E1,-3.485272651E0,8.689685175E0,-2.436908984E0,9.674517006E0
1.415733642E1,-3.365043372E0,8.322135047E0,-1.759930635E0,9.147611955E0
1.416730442E1,-3.136940858E0,7.864876351E0,-7.849834388E-1,8.503697840E0
1.417727142E1,-3.094884759E0,6.978130310E0,6.067543124E-1,7.657725843E0
1.418723942E1,-3.386429271E0,5.038186124E0,3.221425815E0,6.872321799E0
1.419720642E1,-2.872692319E0,3.106988204E-1,9.473374625E0,9.904227467E0
1.420717442E1,2.656107943E0,-9.550369592E0,2.348915171E1,2.549519008E1
1.421714142E1,1.187021030E1,-1.755889390E1,3.290109432E1,3.913692189E1
1.422710942E1,9.716449227E0,-1.324740033E1,3.468014243E1,3.837466977E1
1.423707642E1,1.148712997E0,-1.613708495E1,3.583431029E1,3.931695368E1
1.424704442E1,-1.343125608E0,-2.507816999E1,2.985477917E1,3.901315721E1
1.425701142E1,7.594425670E0,-3.025902759E1,2.634443833E1,4.083275013E1
1.426697942E1,1.259186196E1,-3.598655308E1,1.140577532E1,3.979546081E1
1.427694642E1,1.714779488E1,-4.154798490E1,-2.230133663E1,5.017600556E1
1.428691442E1,2.068291622E1,-3.629071588E1,-3.633472904E1,5.536254706E1
1.429688142E1,9.453653136E0,-2.157783023E1,-2.377142488E1,3.346722211E1
1.430684842E1,2.561336271E0,-1.042604159E1,-1.351372580E1,1.725930392E1
1.431681642E1,1.228366692E0,-3.785883270E0,-8.630658118E0,9.504212562E0
1.432678342E1,-3.208378923E-1,4.855609739E-1,-4.483398795E0,4.521014395E0
1.433675142E1,-1.171378559E0,3.010592176E0,-1.820274193E0,3.707990172E0
1.434671842E1,-1.957289074E0,5.041523715E0,-9.641582063E-1,5.493409045E0
1.435668642E1,-2.459838548E0,6.027517471E0,-4.914818645E-1,6.528654300E0
1.436665342E1,-3.045940933E0,6.894676509E0,2.969637108E-1,7.543375092E0
1.437662142E1,-3.888455712E0,7.646467059E0,1.023844537E-1,8.578987637E0
1.438658842E1,-3.424533821E0,8.905215883E0,-1.578872479E0,9.670736276E0
1.439655642E1,-3.003157733E0,9.639646634E0,-2.436964825E0,1.038655579E1
1.440652342E1,-3.298521646E0,9.864763852E0,-3.114987779E0,1.085803664E1
1.441649142E1,-3.714001401E0,1.012990351E1,-3.336423298E0,1.129338177E1
1.442645842E1,-4.458985792E0,1.014924610E1,-2.840043221E0,1.144358319E1
1.443642642E1,-4.970274807E0,1.007582612E1,-2.372662702E0,1.148283205E1
1.444639342E1,-5.206972436E0,1.003842031E1,-2.115046660E0,1.150460198E1
1.445636042E1,-5.121841654E0,9.868996067E0,-1.710766954E0,1.124975861E1
1.446632842E1,-4.923861364E0,9.585854005E0,-1.316801443E0,1.085665574E1
1.447629542E1,-4.670527822E0,9.345660326E0,-9.435073024E-1,1.049025277E1
1.448626342E1,-4.496487787E0,9.190560592E0,-8.470166959E-1,1.026655949E1
1.449623042E1,-4.172789729E0,9.162609732E0,-8.977417302E-1,1.010799344E1
1.450619842E1,-3.782719049E0,9.211355045E0,-1.142566988E0,1.002314743E1
1.451616542E1,-3.499485478E0,9.229451593E0,-1.599657285E0,9.999403919E0
1.452613342E1,-3.358878068E0,9.195121420E0,-1.987772071E0,9.989172018E0
1.453610042E1,-3.286559412E0,9.127719980E0,-2.316244088E0,9.974052912E0
1.454606842E1,-3.421470172E0,8.982193308E0,-2.551195153E0,9.944589055E0
1.455603542E1,-3.693477382E0,8.764685072E0,-2.461335728E0,9.824441620E0
1.456600342E1,-3.731559713E0,8.476350682E0,-1.843911270E0,9.443149239E0
1.457597042E1,-3.417497282E0,8.158576730E0,-7.859264486E-1,8.880278279E0
1.458593867E1,-3.119217070E0,7.639054543E0,5.000959826E-1,8.266484467E0
1.459590567E1,-2.920516696E0,6.962069762E0,1.809154835E0,7.763560676E0
1.460587267E1,-2.323889030E0,5.525318245E0,3.728199903E0,7.058971345E0
1.461584067E1,-8.925210437E-1,2.231688087E0,8.428838546E0,8.764835696E0
1.462580767E1,3.394877036E0,-4.388629462E0,1.857536920E1,1.938632506E1
1.463577567E1,9.581334692E0,-1.395452634E1,2.874639032E1,3.335994209E1
1.464574267E1,1.201472073E1,-1.406299335E1,3.207299059E1,3.702428962E1
1.465571067E1,7.110004903E0,-9.422370533E0,3.219864492E1,3.429410985E1
1.466567767E1,2.952007753E-1,-1.480977401E1,2.483493517E1,2.891695964E1
1.467564567E1,4.427719561E0,-2.111187030E1,2.378193583E1,3.210757294E1
1.468561267E1,1.049743843E1,-2.771380946E1,2.021384790E1,3.587270683E1
1.469558067E1,1.350604606E1,-3.743758408E1,2.719494976E0,3.989212497E1
1.470554767E1,1.550597508E1,-4.403479636E1,-2.879481696E1,5.485107143E1
1.471551567E1,1.440875559E1,-3.338788204E1,-2.768149073E1,4.570150801E1
1.472548267E1,5.121513625E0,-1.839936333E1,-1.843875485E1,2.654720613E1
1.473545067E1,1.407441764E0,-9.247825883E0,-1.336490129E1,1.631330017E1
1.474541767E1,2.735210538E-1,-4.595620896E0,-8.886700090E0,1.000839566E1
1.475538467E1,-7.606110746E-1,-4.147511923E-1,-4.794633805E0,4.872274733E0
1.476535267E1,-2.187719364E0,2.808052227E0,-2.114543214E0,4.140358237E0
1.477531967E1,-2.623632215E0,4.874262357E0,-1.369890068E0,5.702497551E0
1.478528767E1,-2.346784095E0,6.166919770E0,-4.950776097E-1,6.616902362E0
1.479525467E1,-2.909375411E0,7.055876058E0,4.405724967E-1,7.644864705E0
1.480522267E1,-3.711286539E0,7.785571734E0,5.267756581E-2,8.625053619E0
1.481518967E1,-3.181302514E0,8.998650296E0,-1.636376337E0,9.683703855E0
1.482515767E1,-3.059756150E0,9.676477661E0,-2.437857695E0,1.043740762E1
1.483512467E1,-3.213727371E0,9.726194197E0,-2.803971163E0,1.062022370E1
1.484509267E1,-3.747805324E0,9.784168755E0,-2.531014658E0,1.077877721E1
1.485505967E1,-4.482062413E0,9.832412378E0,-2.059683468E0,1.100034148E1
1.486502767E1,-4.898529179E0,9.856695864E0,-2.335276190E0,1.125182458E1
1.487499467E1,-4.833472180E0,9.958146225E0,-2.785415901E0,1.141427489E1
1.488496167E1,-4.797286102E0,9.824330356E0,-2.795685658E0,1.128482517E1
1.489492967E1,-4.739251317E0,9.469775079E0,-2.165749036E0,1.080868225E1
1.490489667E1,-4.569833213E0,9.211333410E0,-1.271968210E0,1.036098171E1
1.491486467E1,-4.154030692E0,9.212082438E0,-9.528283489E-1,1.015018796E1
1.492483167E1,-3.764526315E0,9.199202777E0,-1.131799048E0,1.000389720E1
1.493479967E1,-3.483630753E0,9.161011103E0,-1.518573945E0,9.917957172E0
1.494476667E1,-3.208688825E0,9.048069209E0,-1.987876736E0,9.803820393E0
1.495473467E1,-3.003049560E0,8.936010829E0,-2.594735860E0,9.777691465E0
1.496470167E1,-2.955357623E0,8.803678399E0,-3.193559155E0,9.820270470E0
1.497466967E1,-3.167665053E0,8.523526602E0,-3.642163387E0,9.795405135E0
1.498463667E1,-3.399289052E0,8.268286868E0,-3.282259662E0,9.523285268E0
1.499460467E1,-3.309201293E0,8.004293852E0,-1.955718804E0,8.879435191E0
1.500457167E1,-3.059217621E0,7.572701510E0,-4.539376236E-1,8.179894863E0
1.501453967E1,-2.935769742E0,6.802064799E0,9.067774326E-1,7.463851206E0
1.502450667E1,-2.447160323E0,5.227620708E0,3.019288740E0,6.514039945E0
1.503447367E1,-8.565919501E-1,1.587354158E0,8.663462167E0,8.849238369E0
1.504444167E1,4.800381325E0,-5.981354873E0,1.874291882E1,2.025135237E1
1.505440867E1,1.177111637E1,-1.395124020E1,2.744838563E1,3.296377038E1
1.506437667E1,1.076003806E1,-1.307860057E1,3.059637685E1,3.497093776E1
1.507434367E1,6.445996263E0,-1.339864908E1,3.475088672E1,3.779813214E1
1.508431167E1,4.529446495E0,-1.883969258E1,2.893202071E1,3.482113904E1
1.509427867E1,1.007685640E1,-2.312345515E1,2.616410553E1,3.634277963E1
1.510424667E1,1.344899946E1,-2.770160048E1,1.999942816E1,3.671827041E1
1.511421367E1,1.123748193E1,-2.937633192E1,4.626941507E0,3.179085505E1
1.512418167E1,9.865658476E0,-3.290706316E1,-2.332394916E1,4.152363938E1
1.513414867E1,1.224791003E1,-3.178774002E1,-2.894370812E1,4.470134177E1
1.514411667E1,4.804653593E0,-2.069244484E1,-1.727973380E1,2.738341048E1
1.515408367E1,1.674623852E0,-1.166359309E1,-1.553626717E1,1.949921450E1
1.516405067E1,3.579261965E-1,-5.300071219E0,-1.116647919E1,1.236564287E1
1.517401867E1,-1.403769713E0,-8.933896476E-1,-6.827052290E0,7.026902408E0
1.518398567E1,-2.647214035E0,2.682409596E0,-2.484977190E0,4.514219204E0
1.519395367E1,-2.873678452E0,4.806816478E0,-1.178290552E0,5.722925924E0
1.520392067E1,-2.678960908E0,6.028803273E0,-6.771379781E-1,6.631878791E0
1.521388867E1,-3.100971126E0,6.856050972E0,-7.188961610E-1,7.558985947E0
1.522385567E1,-3.423755849E0,7.547070240E0,-1.033673999E0,8.351578010E0
1.523382367E1,-3.767245562E0,8.185803121E0,-1.254603733E0,9.097996614E0
1.524379067E1,-3.475493767E0,8.680070599E0,-2.392131007E0,9.651164348E0
1.525375867E1,-2.988521276E0,9.491413870E0,-3.025140633E0,1.040046501E1
1.526372567E1,-3.285822955E0,9.734062210E0,-2.879666293E0,1.066963343E1
1.527369367E1,-3.644611616E0,9.810734410E0,-2.280553268E0,1.071142506E1
1.528366067E1,-3.829522794E0,9.936215658E0,-1.744989537E0,1.079067259E1
1.529362867E1,-3.868697970E0,1.004080364E1,-2.416164817E0,1.102825526E1
1.530359567E1,-4.207452900E0,1.012115139E1,-2.602293094E0,1.126553571E1
1.531356267E1,-4.317981648E0,9.988702605E0,-1.926722754E0,1.105130788E1
1.532353067E1,-4.349872070E0,9.746129694E0,-1.055294956E0,1.072483466E1
1.533349767E1,-4.257339883E0,9.619792998E0,-4.302989388E-1,1.052855723E1
1.534346567E1,-3.809413635E0,9.586656243E0,-5.724827582E-1,1.033166718E1
1.535343267E1,-3.314747085E0,9.524664062E0,-1.189461950E0,1.015488028E1
1.536340067E1,-2.941918382E0,9.470963818E0,-1.680972174E0,1.005881240E1
1.537336767E1,-2.797935667E0,9.440367678E0,-1.983420281E0,1.004405007E1
1.538333567E1,-2.717870035E0,9.395521873E0,-2.289493953E0,1.004511978E1
1.539330267E1,-2.708985483E0,9.220879574E0,-2.552642047E0,9.943802285E0
1.540327067E1,-2.606953909E0,8.963890353E0,-2.702103603E0,9.718482538E0
1.541323767E1,-2.465056019E0,8.723728834E0,-2.510009705E0,9.406385845E0
1.542320567E1,-2.344101977E0,8.376908255E0,-1.615181935E0,8.847384849E0
1.543317267E1,-2.427242660E0,7.766015722E0,-3.941730863E-1,8.146034590E0
1.544313967E1,-2.378622477E0,7.029226204E0,8.856131431E-1,7.473431377E0
1.545310767E1,-1.649455097E0,5.405981251E0,2.805462495E0,6.309988527E0
1.546307467E1,-7.150384605E-1,2.184270676E0,7.575157340E0,7.916143450E0
1.547304267E1,3.773302693E0,-4.475814956E0,1.767653754E1,1.862070655E1
1.548300967E1,1.202999015E1,-1.383487476E1,2.780145689E1,3.330233367E1
1.549297767E1,1.299672551E1,-1.187598501E1,3.023804310E1,3.498990061E1
1.550294467E1,7.404616864E0,-1.017404999E1,3.320310301E1,3.550754418E1
1.551291267E1,4.749472250E0,-1.643033918E1,2.739857437E1,3.229853572E1
1.552287967E1,9.575175819E0,-2.161356608E1,2.444042120E1,3.400241784E1
1.553284767E1,1.313089572E1,-2.750998956E1,2.097052204E1,3.699976679E1
1.554281467E1,1.019581566E1,-3.134497716E1,7.986323605E0,3.391524163E1
1.555278267E1,8.232625870E0,-3.683550096E1,-1.794021657E1,4.179092761E1
1.556274967E1,1.267432642E1,-3.510347149E1,-2.844925821E1,4.692816375E1
1.557271667E1,6.253729872E0,-2.268166527E1,-2.082475330E1,3.142033460E1
1.558268467E1,1.251212348E0,-1.385501725E1,-1.518827597E1,2.059637741E1
1.559265158E1,5.748330465E-1,-6.601284862E0,-1.024852012E1,1.220407963E1
1.560261958E1,-1.357883396E0,-1.884773952E0,-6.600035312E0,6.996905479E0
1.561258658E1,-2.673869737E0,1.015711060E0,-2.595815548E0,3.862577726E0
1.562255458E1,-3.073248307E0,3.770370607E0,-6.024836522E-1,4.901381053E0
1.563252158E1,-3.205248908E0,5.310330158E0,-9.657904565E-2,6.203430863E0
1.564248958E1,-3.012143734E0,6.453434506E0,-4.565070364E-1,7.136401437E0
1.565245658E1,-3.399492828E0,7.539981076E0,-8.139993694E-1,8.310864039E0
1.566242458E1,-3.799202935E0,8.338286226E0,-8.950435326E-1,9.206631471E0
1.567239158E1,-3.589206032E0,8.879978131E0,-1.977546168E0,9.779933558E0
1.568235958E1,-3.383652136E0,9.660452782E0,-3.017502415E0,1.067139965E1
1.569232658E1,-3.708039873E0,9.866025681E0,-3.592921353E0,1.113539879E1
1.570229358E1,-3.973841432E0,9.829181206E0,-3.320474725E0,1.110989520E1
1.571226158E1,-4.082394699E0,9.575685697E0,-2.423076811E0,1.068789054E1
1.572222858E1,-4.188402672E0,9.534871547E0,-1.558280048E0,1.053018182E1
1.573219658E1,-4.246683917E0,9.677068815E0,-1.496714422E0,1.067333777E1
1.574216358E1,-4.343041353E0,9.729496704E0,-1.832161875E0,1.081119473E1
1.575213158E1,-4.328004361E0,9.498572032E0,-1.825770283E0,1.059659990E1
1.576209858E1,-4.313985954E0,9.413634208E0,-1.574942566E0,1.047413137E1
1.577206658E1,-4.154643188E0,9.450515521E0,-1.485124656E0,1.042971231E1
1.578203358E1,-3.854664068E0,9.455790294E0,-1.558207250E0,1.032949248E1
1.579200158E1,-3.447355211E0,9.360878874E0,-1.759767790E0,1.012951598E1
1.580196858E1,-3.309481959E0,9.210424753E0,-2.040411045E0,9.997393270E0
1.581193658E1,-3.262089984E0,9.050695778E0,-2.505987113E0,9.941644559E0
1.582190358E1,-3.380475051E0,8.809556605E0,-2.882163639E0,9.866243783E0
1.583187058E1,-3.399903302E0,8.512189436E0,-2.893233295E0,9.611842194E0
1.584183858E1,-3.317936448E0,8.256600623E0,-2.683596581E0,9.294183489E0
1.585180558E1,-3.267858262E0,7.898491994E0,-1.825984291E0,8.740668855E0
1.586177358E1,-3.150825072E0,7.359555296E0,-7.588773751E-1,8.041557540E0
1.587174058E1,-3.112891845E0,6.270668086E0,5.890666312E-1,7.025551465E0
1.588170858E1,-2.812488217E0,3.946137325E0,3.209061293E0,5.812070555E0
1.589167558E1,-1.758490466E0,-7.557134467E-1,1.046738024E1,1.064093232E1
1.590164358E1,4.891299389E0,-9.959873493E0,2.125179417E1,2.397420791E1
1.591161058E1,1.181620893E1,-1.557534996E1,2.830819764E1,3.440302855E1
1.592157858E1,7.874454675E0,-1.142758777E1,3.314575820E1,3.593380143E1
1.593154558E1,8.417835841E-1,-1.437248414E1,3.855778664E1,4.115798599E1
1.594151358E1,-1.950438184E-1,-2.135692243E1,3.066758892E1,3.737187696E1
1.595148058E1,9.281243305E0,-2.548550574E1,2.735449104E1,3.852169078E1
1.596144758E1,1.272706011E1,-2.632303285E1,1.781676079E1,3.423911626E1
1.597141558E1,1.304398739E1,-2.769119243E1,-4.296702461E0,3.090969746E1
1.598138258E1,1.991983586E1,-3.497382702E1,-3.638240022E1,5.425539128E1
1.599135058E1,1.479851461E1,-2.922549714E1,-2.605602091E1,4.185740011E1
1.600131758E1,4.750143218E0,-1.687719978E1,-1.794662745E1,2.508954304E1
1.601128558E1,2.185760547E0,-8.712237301E0,-1.339532085E1,1.612808881E1
1.602125258E1,-5.842157811E-2,-2.696210779E0,-8.542514266E0,8.958097768E0
1.603122058E1,-1.994681141E0,1.511766617E0,-4.934748294E0,5.533166533E0
1.604118758E1,-3.311464750E0,3.557260646E0,-3.006884749E0,5.715002886E0
1.605115558E1,-3.712122106E0,4.969203013E0,-1.971502486E0,6.508429239E0
1.606112258E1,-3.385984298E0,6.013242078E0,-1.001439469E0,6.973295560E0
1.607109058E1,-3.732642910E0,7.000286579E0,-8.167653948E-1,7.975195358E0
1.608105758E1,-3.733580218E0,7.447770485E0,-1.045026661E0,8.396486596E0
1.609102458E1,-3.628803084E0,8.241140000E0,-2.470386340E0,9.337419825E0
1.610099258E1,-3.211585536E0,9.334991496E0,-3.172003979E0,1.036908661E1
1.611095958E1,-3.543427888E0,9.292232562E0,-2.886540864E0,1.035536505E1
1.612092758E1,-3.773685686E0,9.381511359E0,-1.739465380E0,1.026056523E1
1.613089458E1,-4.177844062E0,9.358820069E0,-4.751400661E-1,1.026000254E1
1.614086258E1,-4.315824611E0,9.541297637E0,-1.040282230E0,1.052353979E1
1.615082958E1,-4.158281617E0,9.703691188E0,-2.548771774E0,1.086044043E1
1.616079758E1,-4.017780334E0,9.588591671E0,-2.554998182E0,1.070568376E1
1.617076458E1,-4.187395197E0,9.451931131E0,-1.606115680E0,1.046197344E1
1.618073258E1,-4.241852362E0,9.316725379E0,-1.051304524E0,1.029076890E1
1.619069958E1,-4.146127887E0,9.380316773E0,-8.148404914E-1,1.028808458E1
1.620066658E1,-3.984937401E0,9.474992550E0,-7.676166236E-1,1.030749461E1
1.621063458E1,-3.697046522E0,9.515400319E0,-9.557718372E-1,1.025302375E1
1.622060158E1,-3.387264546E0,9.528717352E0,-1.254230243E0,1.019034391E1
1.623056958E1,-3.017675785E0,9.428576767E0,-1.658128564E0,1.003762010E1
1.624053658E1,-2.838314784E0,9.312299037E0,-2.096593578E0,9.958446104E0
1.625050458E1,-2.879375102E0,9.167405033E0,-2.335050195E0,9.888608367E0
1.626047158E1,-2.829845969E0,8.870066516E0,-2.057440037E0,9.535154310E0
1.627043958E1,-2.747771234E0,8.523492689E0,-1.023539312E0,9.013756547E0
1.628040658E1,-2.686664030E0,7.971839467E0,2.134105074E-1,8.415101434E0
1.629037458E1,-2.390785562E0,7.007724237E0,1.762977619E0,7.611316882E0
1.630034158E1,-1.693762373E0,5.121241729E0,4.382928135E0,6.950252287E0
1.631030958E1,-8.686717129E-1,1.257889869E0,1.058027711E1,1.069014224E1
1.632027658E1,3.464107484E0,-6.798284574E0,2.081838919E1,2.217255155E1
1.633024358E1,8.679697546E0,-1.408055605E1,2.814375991E1,3.264460798E1
1.634021158E1,8.686622404E0,-1.107308629E1,3.103329250E1,3.407544412E1
1.635017858E1,4.976324921E0,-1.075455922E1,3.362143153E1,3.564863268E1
1.636014658E1,2.780030908E0,-1.714823342E1,2.818763040E1,3.311091948E1
1.637011358E1,1.061484117E1,-2.368319741E1,2.549745277E1,3.638253414E1
1.638008158E1,1.865426100E1,-3.225230365E1,2.139818974E1,4.296597570E1
1.639004858E1,1.625394389E1,-3.614784034E1,5.842970574E-1,3.963834578E1
1.640001658E1,1.359201651E1,-4.086474009E1,-3.863578616E1,5.785666657E1
1.640998358E1,1.178073504E1,-3.202690752E1,-2.528117128E1,4.246935536E1
