"Time (s)","Linear Acceleration x (m/s^2)","Linear Acceleration y (m/s^2)","Linear Acceleration z (m/s^2)","Absolute acceleration (m/s^2)"
1.080166665E-3,-5.512294083E-1,1.468739076E-1,-1.032867960E0,1.179933061E0
1.108216669E-2,-8.342703505E-1,2.536156699E-2,-1.839334654E0,2.019852024E0
2.108416671E-2,-1.113552958E0,2.940919239E-2,-2.133491117E0,2.406792354E0
3.108716675E-2,-8.383163314E-1,6.211917456E-2,-1.028382561E0,1.328233321E0
4.108916665E-2,2.112661873E-1,5.626223791E-2,1.245596098E0,1.264637687E0
5.109216669E-2,9.197638793E-1,-9.681088775E-2,2.592389957E0,2.752421412E0
6.109416671E-2,8.325806513E-1,-3.288701759E-1,2.879666001E0,3.015596526E0
7.109616674E-2,3.674238288E-1,-5.534227720E-1,2.296493363E0,2.390639831E0
8.109916665E-2,-4.321665394E-1,-6.457640116E-1,9.851921028E-1,1.254744020E0
9.110116668E-2,-1.377247181E0,-5.755391709E-1,-5.802256411E-1,1.601473362E0
1.011041667E-1,-1.990854430E0,-3.862414113E-1,-2.147788144E0,2.953925812E0
1.111061667E-1,-2.079975353E0,-1.002226650E-1,-4.338781949E0,4.812626190E0
1.211086666E-1,-2.994526951E0,-1.468198136E0,-6.322666790E0,7.148350353E0
1.311106667E-1,-2.783633670E0,-1.691087565E0,-3.700371249E0,4.929618742E0
1.411126667E-1,-1.466129391E-1,6.322002985E-1,4.129841638E-1,7.692389037E-1
1.511156667E-1,1.728512814E0,1.345502794E0,2.834432525E0,3.582197937E0
1.611176668E-1,2.025783358E0,2.212427797E-1,3.303755196E0,3.881693571E0
1.711206667E-1,1.678520144E0,-9.607739110E-1,2.257830403E0,2.972930291E0
1.811226667E-1,2.051936784E0,-1.242353817E0,4.082030125E0,4.734644391E0
1.911256667E-1,2.406400844E0,-1.754346544E0,5.289685394E0,6.070359824E0
2.011276667E-1,1.822684708E0,-1.994705407E0,3.848962448E0,4.702716356E0
2.111296667E-1,8.436269188E-1,-1.672767215E0,1.754842973E0,2.566969106E0
2.211326667E-1,-2.456251574E-1,-1.560563385E0,-1.538279647E-1,1.587246938E0
2.311346667E-1,-1.750974455E0,-1.689140003E0,-2.565275248E0,3.535497503E0
2.411376667E-1,-2.098464833E0,-2.097641691E0,-3.366798121E0,4.487648038E0
2.511396667E-1,-9.397028115E-1,-2.497670910E0,-1.683463672E0,3.155226028E0
2.611416667E-1,6.438851550E-1,-3.076220739E0,2.554578352E-1,3.153249251E0
2.711446667E-1,4.198151734E-1,-3.392574402E0,-2.081316411E-1,3.424780961E0
2.811466667E-1,-1.935469604E0,-4.364763467E0,-1.501496567E0,5.005166795E0
2.911496666E-1,-6.915383838E0,-7.218050339E0,-1.510754464E0,1.010965694E1
3.011516667E-1,-6.893225230E0,-8.505979108E0,1.168899339E-1,1.094905923E1
3.111546667E-1,-3.951293692E0,-8.535294124E0,-1.037470888E0,9.462574357E0
3.211566667E-1,-2.135083021E0,-7.576459515E0,-1.579510118E0,8.028460033E0
3.311586668E-1,-4.480306202E-1,-5.393965223E0,-1.357604776E0,5.580204565E0
3.411616667E-1,9.023250702E-1,-2.958633817E0,-3.575309247E-1,3.113765078E0
3.511636667E-1,1.014923733E0,-9.273660636E-1,6.810200615E0,6.947583063E0
3.611666667E-1,-6.865999424E-1,-3.450254846E-1,7.965073069E0,8.002052928E0
3.711686668E-1,-4.340582599E-1,4.970133305E-4,4.493646625E0,4.514561641E0
3.811706667E-1,1.364169737E0,1.921286305E0,1.716199309E0,2.915071218E0
3.911736667E-1,3.693503695E0,4.787723565E0,5.542675120E-1,6.072188975E0
4.011756667E-1,5.634730175E0,7.226087337E0,2.601361924E-1,9.167016591E0
4.111786667E-1,6.141962099E0,8.256525194E0,5.073921382E-2,1.029060159E1
4.211806667E-1,6.260087550E0,8.500983247E0,-5.505539453E-1,1.057159032E1
4.311836667E-1,5.458395107E0,8.274311839E0,-2.443841443E0,1.020934251E1
4.411856667E-1,5.130432968E0,7.294706166E0,-1.968891996E0,9.132941267E0
4.511876667E-1,5.257719836E0,7.140347859E0,5.007368374E-1,8.881380681E0
4.611906667E-1,4.958542369E0,7.595664110E0,1.357081450E0,9.171855088E0
4.711926667E-1,4.368067728E0,7.197526612E0,5.540757233E-1,8.437499921E0
4.811956667E-1,4.161956593E0,5.249498066E0,-1.176214206E0,6.801661009E0
4.911976667E-1,1.158766992E0,3.305007670E0,-1.182553173E0,3.696518449E0
5.012006667E-1,7.278522681E-1,1.568143131E0,-3.678982719E0,4.064942269E0
5.112026667E-1,7.329092326E-1,8.150773036E-1,-6.455364672E0,6.547766031E0
5.212046667E-1,7.556964898E-1,1.859870076E0,-6.370692312E0,6.679514534E0
5.312076667E-1,1.014438267E0,9.717031610E-1,-4.483808684E0,4.698705391E0
5.412096668E-1,1.267762746E0,-1.028545114E0,2.691530083E0,3.147929735E0
5.512126667E-1,1.919887066E0,-4.094543166E0,3.433538241E0,5.678066127E0
5.612146667E-1,5.389651293E-1,-5.576182004E0,-1.840985323E0,5.896907335E0
5.712176667E-1,2.285709781E0,-5.824368827E0,4.763080475E-1,6.274919186E0
5.812196668E-1,5.283536462E0,-6.176764727E0,1.402721307E0,8.248382090E0
5.912216667E-1,5.777550171E0,-4.703335379E0,3.708885672E0,8.322096046E0
6.012246667E-1,4.554938309E0,-3.425783663E0,4.567116012E0,7.303561143E0
6.112266667E-1,2.412175847E0,-3.175001847E0,2.318537951E0,4.612466506E0
6.212296668E-1,1.505939866E0,-2.574871699E0,8.265669362E-1,3.095324223E0
6.312316667E-1,1.018063834E0,-1.762780568E0,-9.385482788E-2,2.037807162E0
6.412336667E-1,5.229102100E-1,-1.240460488E0,-1.276499217E0,1.855162409E0
6.512366667E-1,8.730474767E-1,-1.540346053E0,-5.568642604E-1,1.856064563E0
6.612386667E-1,1.125361556E0,-8.319962221E-1,-7.070025589E-1,1.567963317E0
6.712416667E-1,1.231954105E0,7.681194842E-2,-5.051707810E-1,1.333719802E0
6.812436667E-1,1.470052580E0,-1.338740489E0,1.673041010E0,2.598527835E0
6.912466667E-1,1.357746132E-1,-2.478405504E0,4.417267370E-1,2.521121001E0
7.012486667E-1,-4.315033921E-1,-8.825307834E-1,-5.176118652E-1,1.110395337E0
7.112506666E-1,1.455476933E0,1.248860013E0,7.192199506E-2,1.919176180E0
7.212536667E-1,1.733873542E0,8.321687150E-1,-6.819712865E-1,2.040565379E0
7.312556667E-1,2.134848256E0,6.225933963E-1,1.315617821E0,2.583805306E0
7.412586667E-1,1.390365264E0,4.589830399E-2,8.740707979E0,8.850717383E0
7.512606668E-1,-2.058735561E-1,-1.436110078E0,3.217079580E0,3.529078789E0
7.612636667E-1,-1.624344229E0,-2.293162204E0,-3.253825822E0,4.299356876E0
7.712656667E-1,-1.697081253E0,-7.724896932E-1,-5.205403043E0,5.529289823E0
7.812676667E-1,-1.500305928E0,-8.145013529E-1,-6.768832734E0,6.980789848E0
7.912706668E-1,-1.067844396E0,-1.248077656E0,-4.490996082E0,4.781948902E0
8.012726667E-1,-1.010079753E0,-1.250811229E0,-1.018740503E0,1.903318694E0
8.112756667E-1,-1.022182174E0,-1.168039799E0,6.344427788E-1,1.676809771E0
8.212776667E-1,2.204526747E-1,-1.040652359E-1,1.404491698E0,1.425491454E0
8.312796667E-1,-6.896095774E-1,-6.596483713E-1,2.322347850E0,2.510776151E0
8.412826667E-1,-1.173374067E0,3.928896224E-1,1.400324972E0,1.868710514E0
8.512846667E-1,-3.698882841E-2,2.849279775E0,-1.811349149E0,3.376499541E0
8.612876667E-1,2.049672011E-1,3.323663796E0,2.401159108E-1,3.338623704E0
8.712896667E-1,-1.159369109E-1,3.731826346E0,-5.645030630E-1,3.776060507E0
8.812926667E-1,-5.031977112E-1,4.025077659E0,-1.805769882E0,4.440187267E0
8.912946667E-1,-3.665028558E-1,3.903811085E0,-2.491986247E0,4.645864912E0
9.012966667E-1,7.906373309E-1,3.689130562E0,-4.157018327E0,5.613875048E0
9.112996667E-1,1.564081655E0,4.997789465E0,-4.118205678E0,6.662121957E0
9.213016666E-1,2.359564793E0,1.072610316E1,-2.781128722E0,1.132923263E1
9.313046667E-1,2.206436448E0,1.521487847E1,-7.636159587E-1,1.539298535E1
9.413066667E-1,1.901980992E0,1.463932300E1,-8.457073581E-1,1.478656588E1
9.513086667E-1,1.150744173E0,1.157469436E1,1.976738960E0,1.179852782E1
9.613116666E-1,1.749022947E0,7.883879217E0,3.716316022E0,8.889636525E0
9.713136667E-1,1.800511189E0,5.988836385E0,3.920043540E0,7.380700722E0
9.813166667E-1,2.333769363E0,6.110568398E0,5.064350660E0,8.272434538E0
9.913186667E-1,6.940797007E-1,6.274928368E0,4.519496580E0,7.764169111E0
1.001321667E0,7.110703207E-1,7.891643735E0,3.767439690E0,8.773668768E0
1.011323667E0,4.468850776E-1,8.281179394E0,4.377439938E0,9.377612641E0
1.021325667E0,-1.765401436E0,3.735860340E0,4.941050423E0,6.441061558E0
1.031328667E0,-2.886307268E0,2.278381028E0,4.135339190E0,5.533788934E0
1.041330667E0,-1.364894061E0,-2.460285568E0,6.146144028E0,6.759513835E0
1.051333667E0,-3.244131723E0,-8.311068022E0,6.017411728E0,1.076138867E1
1.061335667E0,-3.970644467E0,-9.920565001E0,3.142591900E0,1.113820054E1
1.071338667E0,-1.209268078E0,-1.103997117E1,1.320200722E0,1.118419522E1
1.081340667E0,4.161808366E-1,-9.694135668E0,-7.565384889E-1,9.732513720E0
1.091342667E0,9.222772318E-1,-7.282730484E0,-2.073690911E-1,7.343824653E0
1.101345667E0,3.399961774E0,-4.378372276E0,5.571473388E-1,5.571381966E0
1.111347667E0,8.959679773E0,2.054607500E0,2.923542337E0,9.645951141E0
1.121350625E0,1.082997777E1,1.013118756E1,5.422724753E0,1.579035540E1
1.131352625E0,9.700797985E0,-6.866830314E0,3.487961200E0,1.238647300E1
1.141354625E0,9.046489291E0,-3.972567441E1,2.375018545E1,4.715972312E1
1.151357625E0,7.373099202E0,-3.500801920E1,-2.327495446E0,3.585165596E1
1.161359625E0,5.642533869E0,-1.821304999E1,-1.656130278E1,2.525529901E1
1.171362625E0,3.972018855E0,-2.191133203E1,1.948198700E0,2.235349823E1
1.181364625E0,4.621924303E0,-1.933950205E1,8.464389033E0,2.161074745E1
1.191367625E0,3.732646126E0,-1.077964611E1,-3.926826310E0,1.206455064E1
1.201369625E0,2.009776313E0,-1.262569161E1,-5.004534813E0,1.372926284E1
1.211371625E0,1.044773915E-1,-2.133064738E1,5.628964235E0,2.206111220E1
1.221374625E0,-1.417784904E0,-1.801265187E1,4.836281183E0,1.870442079E1
1.231376625E0,-2.923506669E0,-1.780322917E1,-7.597934584E0,1.957627314E1
1.241379625E0,-4.901797480E0,-2.141027476E1,-1.204514028E1,2.505020735E1
1.251381625E0,-2.740922098E0,-1.381894928E1,2.678094753E-1,1.409069676E1
1.261384625E0,9.992490285E-1,-3.352168388E0,6.534745302E0,7.412046120E0
1.271386625E0,9.021783051E-1,-3.501055455E-1,5.351840712E0,5.438630213E0
1.281388625E0,-5.385292925E-1,1.813562467E0,3.430602354E0,3.917659394E0
1.291391625E0,-2.253662070E0,3.879467956E0,1.397325497E0,4.699125758E0
1.301393625E0,-2.470298924E0,5.488792443E0,-1.014979573E0,6.104048066E0
1.311396625E0,-2.143480792E0,8.263219671E0,-2.988714234E0,9.044762131E0
1.321398625E0,-1.470634378E0,1.006945499E1,-3.200844201E0,1.066780638E1
1.331400625E0,-1.286641213E0,1.171817217E1,-2.584804949E0,1.206864621E1
1.341403625E0,-1.066159156E0,1.322935699E1,-1.020913255E0,1.331145543E1
1.351405625E0,-3.250849443E-1,1.477683547E1,7.256510107E-1,1.479821328E1
1.361408625E0,-5.338803906E-2,1.584001365E1,1.571380734E0,1.591785538E1
1.371410625E0,-1.122808662E-1,1.667712443E1,1.497622933E0,1.674460990E1
1.381413625E0,1.990766064E-1,1.710154809E1,1.230690376E0,1.714692909E1
1.391415625E0,1.157683210E0,1.715702998E1,1.381416539E0,1.725144109E1
1.401417625E0,1.955821569E0,1.624385160E1,2.209024279E0,1.650962571E1
1.411420625E0,1.925551557E0,1.413347101E1,3.730965636E0,1.474390913E1
1.421422625E0,9.160742131E-1,1.186810764E1,5.003160717E0,1.291211788E1
1.431425625E0,-7.846322405E-1,9.813021841E0,5.209984921E0,1.113799750E1
1.441427625E0,-2.075170403E0,8.539623987E0,3.929575671E0,9.626685567E0
1.451430625E0,-2.161911508E0,8.153886094E0,2.240150031E0,8.728000456E0
1.461432625E0,-1.661146604E0,8.324426571E0,8.658918004E-1,8.532599509E0
1.471434625E0,-8.666468221E-1,8.241560415E0,5.173360594E-1,8.303133829E0
1.481437625E0,-1.380128543E-1,7.953675676E0,1.219575988E0,8.047817710E0
1.491439625E0,3.724916106E-1,7.816814577E0,1.652726322E0,7.998302596E0
1.501442625E0,1.049276855E0,7.856580321E0,1.517828425E0,8.070355593E0
1.511444625E0,1.772502441E0,8.007739032E0,1.120574295E0,8.277761537E0
1.521446625E0,1.887944458E0,7.993679402E0,6.611318099E-1,8.240166256E0
1.531449625E0,1.457198500E0,8.040840704E0,3.449800225E-1,8.179092732E0
1.541451625E0,1.189210812E0,8.411147795E0,-2.280289851E-2,8.494830755E0
1.551454625E0,1.074552761E0,8.776904583E0,-1.618556070E-1,8.843919659E0
1.561456625E0,1.003843990E0,9.094257535E0,-1.828892112E-1,9.151320742E0
1.571459625E0,8.261188933E-1,9.417342512E0,-3.465982394E-1,9.459859553E0
1.581461625E0,5.616814525E-1,9.609743389E0,-1.174441330E0,9.697523730E0
1.591463625E0,2.520979520E-1,9.739634607E0,-2.112268063E0,9.969238287E0
1.601466625E0,-1.333686759E-1,9.623725251E0,-2.289656214E0,9.893250249E0
1.611468625E0,-3.834035383E-1,9.410205401E0,-2.407249421E0,9.720792855E0
1.621471625E0,-8.420096520E-1,9.021249785E0,-1.615839308E0,9.203415920E0
1.631473625E0,-2.121000733E0,8.532024361E0,3.400438907E0,9.426402737E0
1.641476625E0,-2.374682915E0,7.998447222E0,8.187058518E0,1.168940563E1
1.651478625E0,-3.389357556E-1,6.123809418E0,9.832987744E0,1.158894159E1
1.661480625E0,-1.930174658E-1,-1.210455501E0,1.008215982E1,1.015639724E1
1.671483625E0,-6.407120465E0,-1.866236407E1,1.262828778E1,2.342666595E1
1.681485625E0,-7.002231948E0,-3.378005947E1,5.539258592E0,3.494004946E1
1.691488625E0,1.339037381E0,-3.357859951E1,-8.845259119E0,3.474987733E1
1.701490625E0,1.418588312E1,-2.027601784E1,-1.114604785E1,2.714020195E1
1.711492625E0,8.721842523E0,-1.325522390E1,-7.903224730E0,1.772660314E1
1.721495625E0,3.820716303E0,-1.338028181E1,8.467568164E0,1.628893873E1
1.731497625E0,7.242785230E-1,-1.877544688E1,1.464420191E1,2.382214589E1
1.741500625E0,-1.357815422E0,-2.337374873E1,9.392797655E0,2.522697842E1
1.751502625E0,1.090548989E0,-2.616762321E1,5.919424673E0,2.685094766E1
1.761505625E0,4.723101600E0,-2.616512528E1,1.020328533E0,2.660756546E1
1.771507625E0,6.584753029E0,-2.603512063E1,-1.475866467E0,2.689543940E1
1.781509625E0,5.513734326E0,-2.571321971E1,-1.287811241E0,2.632924974E1
1.791512625E0,2.721042442E0,-2.349167069E1,-7.659449047E-1,2.366113555E1
1.801514625E0,-1.249285947E-1,-2.061821327E1,-5.411831975E-2,2.061866277E1
1.811517625E0,-2.009621508E0,-1.774069319E1,1.327343096E0,1.790342463E1
1.821519625E0,-2.284504086E0,-1.459804165E1,2.083919592E0,1.492194692E1
1.831522625E0,-1.882946258E0,-1.145578305E1,1.821729273E0,1.175155944E1
1.841524625E0,-7.283253079E-1,-8.275567821E0,7.852214205E-1,8.344582266E0
1.851526625E0,4.790847075E-1,-5.315628905E0,-4.069743955E-1,5.352668584E0
1.861529625E0,1.307466802E0,-2.506326544E0,-1.030562403E0,3.008853777E0
1.871531625E0,1.442184750E0,1.908800161E-1,-1.105865258E0,1.827366959E0
1.881534625E0,9.136757583E-1,2.542724292E0,-7.732895923E-1,2.810378446E0
1.891536625E0,3.198538790E-1,4.750822372E0,-4.623963520E-2,4.761801951E0
1.901538625E0,-4.726370193E-1,7.309710122E0,8.929996383E-1,7.379207015E0
1.911541625E0,-6.205543260E-1,9.658444263E0,6.708558027E-1,9.701581354E0
1.921543625E0,8.314053610E-2,1.125842314E1,-4.973733728E-1,1.126971092E1
1.931546625E0,4.631618987E-1,1.260374117E1,-1.213708746E0,1.267051298E1
1.941548625E0,2.643405598E-1,1.375001412E1,-1.339063548E0,1.381759224E1
1.951551625E0,1.876228977E-1,1.514122928E1,-1.488838515E-1,1.514312361E1
1.961553625E0,-2.058416522E-1,1.598982399E1,1.517798020E0,1.606301817E1
1.971555625E0,-6.393403336E-1,1.606126527E1,2.001839887E0,1.619815919E1
1.981558625E0,-3.164643212E-1,1.584499781E1,1.788242269E0,1.594872772E1
1.991560625E0,-2.165463692E-1,1.477148410E1,2.081081646E0,1.491893213E1
2.001563625E0,-7.691340492E-1,1.273865397E1,2.933261579E0,1.309461323E1
2.011565625E0,-1.597435635E0,1.062339681E1,4.121879776E0,1.150644399E1
2.021567625E0,-2.051322242E0,9.336045749E0,4.775594978E0,1.068531612E1
2.031570625E0,-1.909146024E0,9.349411315E0,3.545534055E0,1.017974176E1
2.041572625E0,-6.263214348E-1,1.020798489E1,2.879545548E0,1.062483019E1
2.051575625E0,9.574249913E-1,1.081187596E1,3.760181834E0,1.148704888E1
2.061577625E0,2.282742173E0,1.122394562E1,4.525021030E0,1.231518098E1
2.071580625E0,3.379042776E0,1.165612152E1,4.751408848E0,1.303299601E1
2.081582625E0,3.991456754E0,1.207013362E1,3.488404419E0,1.318289870E1
2.091584625E0,3.844939271E0,1.200865366E1,5.957040980E-2,1.260931677E1
2.101587625E0,3.438868855E0,1.135885960E1,-2.275209059E0,1.208412540E1
2.111589625E0,3.084005722E0,1.054693161E1,-2.391197937E0,1.124574076E1
2.121595875E0,2.608960089E0,9.694008198E0,-1.844969616E0,1.020707503E1
2.131597875E0,1.831637672E0,9.066841695E0,-1.242501605E0,9.333076937E0
2.141600875E0,9.170930904E-1,8.831290705E0,-8.172746873E-1,8.916316121E0
2.151602875E0,5.034208556E-1,8.910188355E0,-6.692136852E-1,8.949454511E0
2.161604875E0,3.314847949E-1,9.040358486E0,-4.514787233E-1,9.057692684E0
2.171607875E0,3.400501253E-1,9.263681193E0,-1.569977403E-2,9.269933647E0
2.181609875E0,4.166043577E-1,9.644119754E0,4.053430223E-1,9.661620361E0
2.191612875E0,2.306946211E-1,1.019147703E1,1.103376464E0,1.025362685E1
2.201614875E0,-4.503363235E-1,1.056646832E1,2.223100720E0,1.080718430E1
2.211616875E0,-1.303445818E0,1.049453354E1,3.049776707E0,1.100615024E1
2.221619875E0,-2.410695916E0,1.043980828E1,4.804025602E0,1.174221928E1
2.231621875E0,-3.824348301E0,1.110470218E1,9.824233292E0,1.531194339E1
2.241624875E0,-3.975619863E0,1.124299351E1,1.240081589E1,1.720438000E1
2.251626875E0,-4.016610599E0,8.943109349E0,1.371604881E1,1.685948874E1
2.261629875E0,-5.706939780E0,8.415634364E-1,1.118397289E1,1.258406294E1
2.271631875E0,-9.954351382E0,-1.557552069E1,8.847547134E0,2.049304874E1
2.281633875E0,-1.403702821E1,-4.250813981E1,8.484658991E0,4.556280883E1
2.291636875E0,-3.698141706E-1,-6.234944990E1,-2.947597198E0,6.242018099E1
2.301638875E0,2.794872252E1,-4.572885635E1,-1.850000443E1,5.669664503E1
2.311641875E0,1.339676745E1,-2.573273070E1,-2.724905171E1,3.980147769E1
2.321643875E0,2.255923407E-1,-1.827071055E1,-9.537043787E0,2.061128235E1
2.331646875E0,2.713966142E0,-1.503460530E1,1.359671065E1,2.045178499E1
2.341648875E0,2.144998437E0,-1.956163543E1,1.920904482E1,2.749992731E1
2.351650875E0,-2.087723863E-1,-2.388858905E1,1.436059090E1,2.787355097E1
2.361653875E0,1.620668231E0,-2.680066149E1,7.365317727E0,2.784151445E1
2.371655875E0,3.665077163E0,-2.677254106E1,2.794756828E0,2.716638384E1
2.381658875E0,3.128999170E0,-2.469412720E1,7.292670751E-1,2.490225662E1
2.391660875E0,2.157518057E0,-2.247852364E1,-5.100905917E-1,2.258758733E1
2.401662875E0,1.068623465E0,-1.963790651E1,-1.688698685E0,1.973932703E1
2.411665875E0,-9.755786955E-3,-1.661720450E1,-3.015617273E0,1.688862126E1
2.421667875E0,-6.067839139E-1,-1.339936478E1,-3.396686164E0,1.383649667E1
2.431670875E0,-7.484587332E-1,-9.864334667E0,-2.889816767E0,1.030613069E1
2.441672875E0,-8.020409364E-1,-6.112870447E0,-1.469652046E0,6.338006935E0
2.451675875E0,-1.047289752E0,-2.492134767E0,3.671232820E-1,2.728063603E0
2.461677875E0,-1.314944952E0,8.549962449E-1,1.654162105E0,2.279550631E0
2.471679875E0,-1.627472197E0,3.834801076E0,2.939030442E0,5.098260977E0
2.481682875E0,-1.687392709E0,6.339086941E0,2.378736059E0,6.977800703E0
2.491684875E0,-1.494610740E0,8.602397355E0,1.307893503E0,8.828685459E0
2.501687875E0,-1.451287257E0,1.079006117E1,6.267596836E-1,1.090525023E1
2.511689875E0,-1.760099035E0,1.275743406E1,-2.045379424E-1,1.287990327E1
2.521692875E0,-1.814909080E0,1.449718888E1,-5.338320780E-1,1.462010113E1
2.531694875E0,-1.205291825E0,1.600806029E1,-1.335761333E-1,1.605392678E1
2.541696875E0,-2.985260137E-1,1.709610784E1,7.524606407E-1,1.711526272E1
2.551699875E0,5.016244447E-1,1.776684896E1,1.600583191E0,1.784585150E1
2.561701875E0,1.566307983E0,1.760949571E1,2.098288540E0,1.780310295E1
2.571704875E0,2.701248155E0,1.624783823E1,2.465451583E0,1.665435199E1
2.581706875E0,3.008636867E0,1.431338867E1,3.376459476E0,1.501084507E1
2.591708875E0,2.695791241E0,1.226570310E1,3.952138030E0,1.316564309E1
2.601711875E0,1.928423417E0,1.031469891E1,4.404909865E0,1.138046842E1
2.611713875E0,6.043078373E-1,8.503987547E0,4.425380967E0,9.605570720E0
2.621716875E0,-7.590214359E-1,7.251204636E0,3.072323570E0,7.911716270E0
2.631718875E0,-1.295286029E0,6.838230413E0,1.079074266E0,7.042979650E0
2.641721875E0,-1.574365153E0,6.592854931E0,-3.434582846E-1,6.786923115E0
2.651723875E0,-1.766460952E0,6.417358940E0,-1.336251183E0,6.788847272E0
2.661725875E0,-1.432274597E0,6.744363306E0,-1.386119893E0,7.032721754E0
2.671728875E0,-7.786780208E-1,7.361463243E0,-8.456769526E-1,7.450681180E0
2.681730875E0,-2.770053365E-1,8.094312322E0,-3.419241214E-1,8.106265233E0
2.691733875E0,2.037229136E-1,8.819077626E0,1.518331870E-1,8.822736906E0
2.701735875E0,7.530656813E-1,9.515932415E0,1.992600994E-1,9.547763206E0
2.711737875E0,1.416562836E0,1.005850900E1,8.893600389E-2,1.015815747E1
2.721740875E0,2.089272425E0,1.023690521E1,-6.892478541E-2,1.044815956E1
2.731742875E0,2.297650673E0,9.913170612E0,1.350354521E-1,1.017685535E1
2.741745875E0,2.271076978E0,9.474707791E0,4.944534194E-1,9.755632350E0
2.751747875E0,2.418548288E0,9.350462644E0,6.844598615E-1,9.682407386E0
2.761750875E0,2.639314739E0,9.478455856E0,3.607157569E-1,9.845670295E0
2.771752875E0,2.782418033E0,9.672216210E0,-4.355254725E-2,1.006456722E1
2.781754875E0,2.819985517E0,1.002761466E1,-2.697216792E-1,1.042008271E1
2.791757875E0,2.784478008E0,1.045496660E1,1.015579498E-1,1.081988717E1
2.801759875E0,2.460831698E0,1.087356760E1,1.172550341E0,1.121004189E1
2.811762875E0,1.142780485E0,1.126196422E1,2.749744377E0,1.164898620E1
2.821764875E0,-4.506479801E-1,1.185700729E1,3.768279058E0,1.244956355E1
2.831767875E0,-7.683455522E-1,1.280597531E1,6.205192720E0,1.425088682E1
2.841769875E0,-6.299831074E-1,1.363766221E1,1.273130051E1,1.866731695E1
2.851771875E0,-7.757222532E-1,1.242717513E1,1.620673464E1,2.043757996E1
2.861774875E0,-1.007798169E0,8.807036455E0,1.233816531E1,1.519242810E1
2.871776875E0,-3.689076475E0,-5.064980990E-1,6.984586805E0,7.915192885E0
2.881779875E0,-7.320032796E0,-1.770543799E1,5.848616061E0,2.003176788E1
2.891781875E0,-7.299800261E0,-4.549266626E1,7.015857130E0,4.660570801E1
2.901784875E0,1.023353722E1,-6.002872275E1,-6.990623471E0,6.129471148E1
2.911786875E0,2.326891049E1,-3.042217192E1,-2.218090036E1,4.425994895E1
2.921788875E0,7.353100555E0,-1.616909261E1,-1.439846449E1,2.286533234E1
2.931791875E0,-1.742798001E0,-1.620846542E1,6.942268751E0,1.771854372E1
2.941793875E0,-6.845200878E0,-2.217923274E1,1.453794748E1,2.738844750E1
2.951796875E0,-7.489755832E0,-2.975830713E1,1.291796118E1,3.329454920E1
2.961798875E0,-3.237101031E0,-2.889399744E1,6.462045701E0,2.978422310E1
2.971800875E0,6.133360845E-1,-2.723513534E1,2.205529398E0,2.733117520E1
2.981803875E0,2.650583201E0,-2.637886674E1,-1.817602308E0,2.657393234E1
2.991805875E0,3.131373139E0,-2.384676976E1,-2.721401169E0,2.420495714E1
3.001808875E0,1.684046494E0,-2.050462526E1,-1.800393367E0,2.065229009E1
3.011810875E0,-3.719749361E-1,-1.801189057E1,-8.297298414E-1,1.803482794E1
3.021813875E0,-1.981680441E0,-1.557172702E1,6.772414738E-1,1.571191891E1
3.031815875E0,-2.018785264E0,-1.309690937E1,1.976308604E0,1.339814631E1
3.041817875E0,-4.416632216E-1,-1.019437491E1,2.680783485E0,1.055021072E1
3.051820875E0,1.441434553E0,-7.417719305E0,3.395170566E0,8.284170231E0
3.061822875E0,2.484011815E0,-5.060228958E0,3.953925816E0,6.885474650E0
3.071825875E0,2.485004964E0,-2.140963274E0,4.816424038E0,5.827256123E0
3.081827875E0,1.790713010E0,1.146056607E0,6.179157407E0,6.534683243E0
3.091830875E0,1.204040594E0,4.248211502E0,5.218217801E0,6.835701261E0
3.101832875E0,7.660475233E-1,6.970245339E0,1.693236709E0,7.213750720E0
3.111834875E0,2.592591832E-1,9.324791613E0,-2.376468509E0,9.626346998E0
3.121834667E0,-5.004449151E-2,1.136641069E1,-4.407576195E0,1.219116583E1
3.131836667E0,-4.929835025E-1,1.296351099E1,-3.751807451E0,1.350450699E1
3.141839667E0,-5.437241051E-1,1.429531025E1,-2.056002645E0,1.445263567E1
3.151841667E0,-3.437657019E-1,1.545374892E1,-7.954343136E-1,1.547802462E1
3.161843667E0,-2.645088865E-1,1.643366742E1,-6.672164226E-1,1.644933335E1
3.171846667E0,-3.331642614E-1,1.713119464E1,-2.311790264E-1,1.713599346E1
3.181848667E0,-5.809562507E-1,1.733616410E1,3.686553986E-1,1.734981276E1
3.191851667E0,-9.067359173E-1,1.661312081E1,1.523994899E-1,1.663854496E1
3.201853667E0,-4.357284439E-1,1.497141210E1,9.944228098E-2,1.497808160E1
3.211856667E0,1.517626550E-1,1.288670430E1,5.044230683E-1,1.289746573E1
3.221858667E0,2.850578295E-1,1.104455539E1,1.112875851E0,1.110414131E1
3.231860667E0,2.296660593E-1,9.472131507E0,2.214823548E0,9.730337360E0
3.241863667E0,4.692244381E-2,7.975412700E0,3.311729629E0,8.635795423E0
3.251865667E0,-4.491750665E-2,7.000966026E0,4.200678316E0,8.164633561E0
3.261868667E0,6.514770336E-2,6.885525032E0,3.905413806E0,7.916246344E0
3.271870667E0,1.942537864E-1,7.633410811E0,2.658174641E0,8.085331630E0
3.281873667E0,5.557755820E-1,8.533759815E0,1.693153678E0,8.717838749E0
3.291875667E0,9.564482870E-1,9.044676070E0,1.023800683E0,9.152547534E0
3.301877667E0,1.304948699E0,9.353375142E0,4.025118005E-1,9.452541108E0
3.311880667E0,1.274732627E0,9.171032646E0,5.092815198E-2,9.259339973E0
3.321882667E0,1.022072904E0,8.702464265E0,-6.038430568E-1,8.783060045E0
3.331885667E0,9.073018547E-1,8.283063952E0,-1.116919858E0,8.407131202E0
3.341887667E0,5.279308487E-1,7.963004909E0,-1.698047798E0,8.159137484E0
3.351890667E0,2.335763848E-1,7.935276242E0,-2.107090938E0,8.213586257E0
3.361892667E0,1.631742273E-1,8.270467295E0,-1.935906683E0,8.495586489E0
3.371894667E0,6.619352905E-1,8.964576817E0,-1.298167244E0,9.082237281E0
3.381897667E0,1.642764420E0,9.989479115E0,-6.471044127E-1,1.014431427E1
3.391899667E0,2.861208387E0,1.107926212E1,3.541354465E-1,1.144823019E1
3.401902667E0,3.179152785E0,1.181780756E1,1.316980076E0,1.230861586E1
3.411904667E0,2.723685091E0,1.251562830E1,1.557824550E0,1.290295430E1
3.421906667E0,2.249908596E0,1.296394251E1,1.752395328E0,1.327391365E1
3.431909667E0,2.023123167E0,1.324838734E1,2.923316635E0,1.371709060E1
3.441911667E0,1.600941772E0,1.354179711E1,5.546605618E0,1.472100939E1
3.451914667E0,8.287190039E-1,1.388629634E1,7.815234075E0,1.595599840E1
3.461916667E0,-1.178601332E-1,1.326528462E1,8.796628411E0,1.591735966E1
3.471919667E0,-2.625432719E-1,1.044757572E1,7.729284682E0,1.299856181E1
3.481921667E0,-1.261781775E0,3.428828309E0,4.530152546E0,5.819900249E0
3.491923667E0,-7.880253943E0,-1.256484315E1,6.790543445E0,1.631211715E1
3.501926667E0,-1.312608931E1,-3.824868177E1,1.305924160E1,4.249470166E1
3.511928667E0,-1.152031584E0,-5.259187838E1,2.939759590E0,5.268657357E1
3.521931667E0,2.097896776E1,-3.937146412E1,-9.129871171E0,4.553662068E1
3.531933667E0,1.387707178E1,-2.390619385E1,-1.328574871E1,3.066904537E1
3.541936667E0,6.309891794E0,-2.033342580E1,-5.819599253E-1,2.129792517E1
3.551938667E0,4.648145265E0,-2.409163478E1,8.772306333E0,2.605696604E1
3.561940667E0,-1.051564725E0,-2.735648144E1,8.023852789E0,2.852832064E1
3.571943667E0,-3.616882950E0,-2.734609912E1,1.818929918E0,2.764415825E1
3.581945667E0,-2.855848245E0,-2.608368760E1,-1.135376667E0,2.626411446E1
3.591948667E0,-3.398845541E0,-2.636863645E1,2.603836758E-1,2.658806008E1
3.601950667E0,-2.251686880E0,-2.527171751E1,1.619664264E0,2.542347560E1
3.611953667E0,-1.136525938E0,-2.332752766E1,1.769476799E0,2.342213239E1
3.621955667E0,1.739140275E-1,-2.105386826E1,9.422758788E-1,2.107566128E1
3.631957667E0,1.940600536E0,-1.793822851E1,4.752687049E-1,1.804915103E1
3.641960667E0,2.967511937E0,-1.465617584E1,4.830099068E-1,1.496138082E1
3.651962667E0,2.733565131E0,-1.137232457E1,7.528542314E-1,1.172044939E1
3.661965667E0,1.693831663E0,-7.967438852E0,8.685085025E-1,8.191669829E0
3.671967667E0,8.882463636E-1,-4.427241551E0,7.723440975E-1,4.581044068E0
3.681970667E0,2.251269389E-1,-1.035369984E0,3.578303021E-1,1.118353999E0
3.691972667E0,-1.910995790E-1,2.389911988E0,9.035257959E-1,2.562139189E0
3.701974667E0,-5.955615722E-1,5.083019065E0,2.010606033E0,5.498573726E0
3.711977667E0,-9.291634977E-1,7.228284720E0,2.800991714E0,7.807496358E0
3.721979667E0,-1.468090986E0,9.483111409E0,1.778869182E0,9.759562936E0
3.731982667E0,-2.246023121E0,1.188228363E1,-1.523351705E-1,1.209365496E1
3.741984667E0,-2.442645687E0,1.370135827E1,-5.475333468E-1,1.392815599E1
3.751986667E0,-2.047771081E0,1.476490716E1,1.878452381E-1,1.490741881E1
3.761989667E0,-1.496877121E0,1.529496427E1,1.078212460E0,1.540581433E1
3.771991667E0,-1.153408750E0,1.554119520E1,1.127043800E0,1.562463848E1
3.781994667E0,-3.458186594E-1,1.567267335E1,8.076267815E-1,1.569727816E1
3.791996667E0,5.394494981E-2,1.506379226E1,1.608853054E0,1.514955958E1
3.801999667E0,9.309147388E-2,1.389022334E1,1.326940077E0,1.395377154E1
3.812001667E0,4.402083613E-1,1.269624529E1,5.737521887E-1,1.271682426E1
3.822003667E0,1.158002761E0,1.151466217E1,3.307701190E-1,1.157747054E1
3.832006667E0,1.610615405E0,1.043471418E1,1.047338065E0,1.061010175E1
3.842008667E0,1.717773818E0,9.560865344E0,2.612530106E0,1.005913548E1
3.852011667E0,1.783139257E0,9.218386906E0,4.073886123E0,1.023497879E1
3.862013667E0,1.260744333E0,9.359703584E0,4.063653495E0,1.028138158E1
3.872016667E0,5.800812149E-1,9.941038442E0,3.012673784E0,1.040369852E1
3.882018667E0,6.729906942E-1,1.051429829E1,2.283055730E0,1.078033991E1
3.892020667E0,1.004404884E0,1.086343203E1,2.030068198E0,1.109703391E1
3.902023667E0,1.370889065E0,1.102526191E1,1.736752857E0,1.124508993E1
3.912025667E0,1.736439592E0,1.081120003E1,1.136694045E0,1.100860308E1
3.922028667E0,2.004307266E0,1.038997012E1,7.397475513E-1,1.060735373E1
3.932030667E0,1.881756058E0,9.714654132E0,7.240091857E-1,9.921678289E0
3.942033667E0,1.383623424E0,8.898968718E0,5.794531509E-1,9.024512396E0
3.952035667E0,1.239101595E0,8.173713418E0,-2.457701683E-2,8.267137826E0
3.962037667E0,1.249272388E0,7.660380508E0,-6.383264995E-1,7.787783494E0
3.972040667E0,1.245808498E0,7.447820186E0,-1.099840287E0,7.630970646E0
3.982042667E0,1.412089862E0,7.760076120E0,-1.730256600E0,8.075058332E0
3.992045667E0,1.904130574E0,8.431295546E0,-2.425461305E0,8.977489648E0
4.002047667E0,1.915478851E0,8.915251459E0,-2.796711552E0,9.537943348E0
4.012050667E0,1.678396183E0,9.356084742E0,-2.691085110E0,9.879032064E0
4.022052667E0,2.125496219E0,9.571321920E0,-2.308792981E0,1.007265916E1
4.032054667E0,1.857100834E0,9.668213791E0,-1.540989246E0,9.964829616E0
4.042057667E0,1.815256113E0,1.004178129E1,-2.590375006E-1,1.020782184E1
4.052059667E0,2.407819671E0,1.053875954E1,1.842707913E0,1.096624916E1
4.062062667E0,2.749945814E0,1.083868428E1,3.600803107E0,1.174755557E1
4.072064667E0,3.151824068E0,1.021441916E1,3.788688179E0,1.134118653E1
4.082066667E0,3.206134762E0,8.397537816E0,5.637176650E0,1.061016975E1
4.092069667E0,2.118116156E0,5.018840026E0,5.811624820E0,7.965560514E0
4.102071667E0,-1.567079815E0,-3.799357009E0,7.046273761E0,8.157256079E0
4.112074667E0,-7.747846084E0,-2.674222675E1,1.458136539E1,3.142915887E1
4.122077042E0,-8.773839473E0,-4.803920820E1,5.929676011E0,4.919254864E1
4.132080042E0,3.906225692E0,-4.092541080E1,-1.113413239E1,4.259244947E1
4.142082042E0,9.890495110E0,-2.307258204E1,-1.606643538E1,2.980429971E1
4.152084042E0,3.697620719E0,-1.849766087E1,-2.425756005E0,1.901894184E1
4.162087042E0,-5.691163334E-1,-2.111915125E1,1.068511067E1,2.367517757E1
4.172089042E0,-7.278930379E0,-2.801156839E1,1.357495082E1,3.196732834E1
4.182092042E0,-1.109395617E1,-3.046183476E1,9.655595500E0,3.382646545E1
4.192094042E0,-6.176792209E0,-2.629163564E1,3.138184268E0,2.718917187E1
4.202097042E0,-3.288297789E0,-2.626934371E1,2.339194994E0,2.657749339E1
4.212099042E0,-1.010112863E0,-2.715725744E1,-9.959562421E-2,2.717621900E1
4.222101042E0,1.283826071E0,-2.547847973E1,-2.262858424E0,2.561096771E1
4.232104042E0,1.848629681E0,-2.207465178E1,-1.616576203E0,2.221083072E1
4.242106042E0,1.123459750E0,-1.908760166E1,-6.765392232E-1,1.913260056E1
4.252109042E0,8.012534626E-2,-1.548276982E1,1.152108475E0,1.552578292E1
4.262111042E0,-1.719353297E0,-1.168427586E1,3.352884672E0,1.227682018E1
4.272114042E0,-2.425522555E0,-7.618028541E0,2.967791727E0,8.527913358E0
4.282116042E0,-1.576448662E0,-3.374545097E0,2.843220305E-1,3.735449640E0
4.292118042E0,-5.452844346E-1,1.714590740E-1,-1.357164481E0,1.472626482E0
4.302121042E0,2.963234407E-1,3.429496061E0,-1.092072773E0,3.611353452E0
4.312123042E0,1.397984916E0,6.616923240E0,3.573011291E-1,6.772421952E0
4.322126042E0,1.930285024E0,9.017474238E0,1.174318466E0,9.296228577E0
4.332128042E0,1.406736006E0,1.006806686E1,1.281991653E0,1.024638371E1
4.342131042E0,7.944065192E-1,1.058274697E1,9.226931150E-1,1.065255733E1
4.352133042E0,1.060516373E0,1.173216807E1,4.390894966E-1,1.178818315E1
4.362135042E0,1.405586443E0,1.405505985E1,5.960955691E-1,1.413774065E1
4.372138042E0,1.572757023E0,1.639969042E1,8.812445422E-1,1.649848485E1
4.382140042E0,1.479290889E0,1.825696491E1,1.295484688E0,1.836255293E1
4.392143042E0,1.072185808E0,1.926871332E1,1.380181314E0,1.934781114E1
4.402145042E0,3.869807187E-1,1.921884592E1,8.491877671E-1,1.924148935E1
4.412147042E0,3.374501243E-2,1.662975730E1,-1.300151789E-1,1.663029978E1
4.422150042E0,8.344269097E-3,1.296374605E1,1.727043848E-1,1.296489908E1
4.432152042E0,1.352377658E-1,1.064791770E1,1.685340629E0,1.078131780E1
4.442155042E0,-9.971417651E-2,9.376207935E0,4.341901438E0,1.033321471E1
4.452157042E0,1.890002824E-1,9.130323161E0,6.467384208E0,1.119042361E1
4.462160042E0,1.143016786E0,9.866275942E0,6.909165909E0,1.209902731E1
4.472162042E0,2.043047701E0,1.072009573E1,6.817424265E0,1.286746945E1
4.482165042E0,3.012426155E0,1.129505946E1,6.224072210E0,1.324357030E1
4.492167042E0,3.681495268E0,1.148199494E1,5.390221835E0,1.320772905E1
4.502169042E0,2.955542687E0,1.058901869E1,3.615093702E0,1.157287570E1
4.512172042E0,1.788940865E0,9.323887634E0,4.034858005E-1,9.502525497E0
4.522174042E0,1.319625502E0,8.206283578E0,-1.274313089E0,8.408827236E0
4.532177042E0,1.188093702E0,6.892741081E0,-2.166000466E0,7.322090157E0
4.542179042E0,9.383199450E-1,5.340307079E0,-3.114679631E0,6.253043517E0
4.552181042E0,7.393106912E-1,4.429862273E0,-3.887475718E0,5.939926558E0
4.562184042E0,2.202444407E-1,4.761615162E0,-4.470826696E0,6.535271832E0
4.572186042E0,3.159493276E-1,6.064672433E0,-4.603234556E0,7.620357214E0
4.582189042E0,1.507621818E0,7.035558738E0,-4.045288560E0,8.254475746E0
4.592191042E0,2.627799525E0,7.602011263E0,-3.022472548E0,8.592511035E0
4.602194042E0,3.205015020E0,8.010855013E0,-2.211177224E0,8.907032280E0
4.612196042E0,3.493765147E0,8.606782182E0,-1.244461738E0,9.371861045E0
4.622198042E0,3.267894807E0,9.366158910E0,4.851398282E-1,9.931738511E0
4.632201042E0,2.508870082E0,1.005867039E1,2.417923075E0,1.064507544E1
4.642203042E0,1.785794478E0,1.099045344E1,4.278531654E0,1.192832603E1
4.652206042E0,1.310259579E0,1.181269475E1,5.584605503E0,1.313180704E1
4.662208042E0,7.539580395E-1,1.230122260E1,6.237558228E0,1.381288032E1
4.672211042E0,-6.883378811E-1,1.250229314E1,8.615236087E0,1.519879718E1
4.682213042E0,-3.075079071E0,1.209042814E1,1.042449559E1,1.625744974E1
4.692215042E0,-4.035952896E0,1.133135430E1,9.839572878E0,1.554045367E1
4.702218042E0,-3.893584597E0,8.757212915E0,6.829920934E0,1.176845780E1
4.712220042E0,-7.291801854E0,3.054676089E0,7.939045358E-1,7.945546218E0
4.722223042E0,-8.627981848E0,-7.870862730E0,-2.490719740E0,1.194136658E1
4.732225042E0,-5.175469392E0,-2.579500355E1,3.287373637E0,2.651366660E1
4.742228042E0,6.324227997E0,-4.399813665E1,6.248802423E0,4.488740826E1
4.752230042E0,2.077071099E1,-4.564670531E1,-9.242652267E0,5.099481113E1
4.762232042E0,1.617740735E1,-2.345956948E1,-1.665645920E1,3.300753765E1
4.772235042E0,-4.494797430E-1,-1.811386951E1,2.992891484E0,1.836495849E1
4.782237042E0,-5.712870610E0,-1.709302869E1,1.564980840E1,2.386891333E1
4.792240042E0,-7.281922399E0,-2.007138400E1,1.430545049E1,2.570083195E1
4.802242042E0,-7.499129503E0,-2.789947961E1,1.287551741E1,3.162905080E1
4.812245042E0,-3.499710303E0,-3.096764464E1,5.162109674E0,3.158940270E1
4.822247042E0,2.085609437E0,-3.079804498E1,-1.124834138E0,3.088906915E1
4.832249042E0,3.827985561E0,-3.069921768E1,-4.690782577E0,3.129055578E1
4.842252042E0,2.355732674E0,-2.774828932E1,-5.801888037E0,2.844607076E1
4.852254042E0,1.301484954E-1,-2.252892430E1,-2.962512860E0,2.272324473E1
4.862257042E0,-2.192847372E0,-1.846055561E1,7.956054908E-1,1.860735556E1
4.872259042E0,-3.154049519E0,-1.566104441E1,2.989627569E0,1.625282170E1
4.882262042E0,-3.177845348E0,-1.294190436E1,3.587304225E0,1.380073698E1
4.892264042E0,-2.298759451E0,-9.618598412E0,3.116965892E0,1.036905043E1
4.902266042E0,-1.129744410E0,-6.292141986E0,1.663591325E0,6.605672509E0
4.912269042E0,1.632042673E-1,-3.182616675E0,4.197306812E-1,3.214320827E0
4.922271042E0,1.225278047E0,-2.183087200E-1,-1.800428597E-1,1.257529491E0
4.932274042E0,2.120060939E0,2.590420030E0,1.284867167E-2,3.347401889E0
4.942276042E0,2.372152533E0,4.882863611E0,4.707815516E-1,5.448954024E0
4.952279042E0,1.615682164E0,6.817120210E0,-5.440867786E-1,7.027061067E0
4.962281042E0,4.143603060E-1,8.562852636E0,-1.673743261E0,8.734732751E0
4.972283042E0,4.260135144E-2,1.054768473E1,-1.208032269E0,1.061672313E1
4.982286042E0,6.904963808E-1,1.271634802E1,-2.550719190E-1,1.273763533E1
4.992288042E0,7.523941286E-1,1.489179641E1,9.526707664E-2,1.491109564E1
5.002291042E0,2.951694927E-1,1.650000642E1,3.286471412E-2,1.650267908E1
5.012293042E0,-2.504472099E-1,1.710688308E1,-3.729975410E-1,1.711278177E1
5.022296042E0,-1.212076349E0,1.649664427E1,-5.940212694E-1,1.655177521E1
5.032298042E0,-3.060575637E0,1.534075732E1,-2.058947888E-1,1.564443515E1
5.042300042E0,-4.378899111E0,1.323885170E1,-6.318629873E-1,1.395855302E1
5.052303042E0,-4.124970322E0,1.146508363E1,-3.699094802E-2,1.218461698E1
5.062305042E0,-3.164791146E0,1.066778420E1,2.581870523E0,1.142294087E1
5.072308042E0,-1.678428927E0,1.068450606E1,4.423223052E0,1.168506293E1
5.082310042E0,3.560455857E-1,1.126860432E1,6.430649076E0,1.297927037E1
5.092313042E0,2.733272771E0,1.177445396E1,9.251778016E0,1.522182455E1
5.102315042E0,4.964224693E0,1.215148242E1,9.586906503E0,1.625456330E1
5.112318042E0,5.969126590E0,1.220995458E1,6.790644017E0,1.519296907E1
5.122319750E0,5.793561602E0,1.191195357E1,1.878917381E0,1.337872657E1
5.132321750E0,4.878447794E0,1.113798804E1,-1.182477597E0,1.221688519E1
5.142324750E0,3.454627978E0,1.038775168E1,-2.601566577E0,1.125202152E1
5.152326750E0,2.543375672E0,9.536566654E0,-2.211110566E0,1.011453772E1
5.162329750E0,2.024997492E0,8.249103908E0,-1.602409569E0,8.643844431E0
5.172331750E0,1.769815646E0,7.020770545E0,-1.709049919E0,7.439376190E0
5.182334750E0,1.793362821E0,6.088779334E0,-2.044359670E0,6.668492367E0
5.192336750E0,8.298092173E-1,5.023847582E0,-2.337436152E0,5.602788201E0
5.202338750E0,-8.173545018E-1,4.356907732E0,-2.613513608E0,5.145985498E0
5.212341750E0,-1.446001813E0,4.332651143E0,-2.752078586E0,5.332609466E0
5.222343750E0,-1.496386393E0,4.695527008E0,-3.265398631E0,5.911850331E0
5.232346750E0,-9.870490323E-1,5.720701202E0,-3.154506186E0,6.606935546E0
5.242348750E0,-1.826370500E-1,7.234014407E0,-1.821279037E0,7.461995582E0
5.252351750E0,9.020736399E-1,8.996609033E0,1.436380219E-1,9.042861429E0
5.262353750E0,1.320689257E0,1.074554749E1,2.512809352E0,1.111419011E1
5.272355750E0,1.152297705E0,1.229473219E1,4.545540079E0,1.315865359E1
5.282358750E0,2.652305060E-1,1.262616992E1,5.589238837E0,1.381050704E1
5.292360750E0,-6.789894989E-1,1.235504739E1,5.503245006E0,1.354230144E1
5.302363750E0,-1.048345979E0,1.253940308E1,6.217899889E0,1.403559539E1
5.312365750E0,-2.202169442E0,1.275724695E1,8.341943074E0,1.540080888E1
5.322368750E0,-2.759810359E0,1.352997287E1,1.186806788E1,1.820790362E1
5.332370750E0,-1.406904405E0,1.389024672E1,1.244263868E1,1.870127245E1
5.342372750E0,-6.524839242E-1,1.104949745E1,8.524228853E0,1.397066952E1
5.352375750E0,-3.070795400E0,4.982250490E0,4.633810816E0,7.464905023E0
5.362377750E0,-6.258464947E0,-5.755749412E0,2.441637043E0,8.846390577E0
5.372380750E0,-1.180962379E1,-3.541128529E1,8.974017146E0,3.839217790E1
5.382382750E0,-1.907891650E0,-6.139435166E1,-2.609816414E0,6.147940800E1
5.392385750E0,2.660322674E1,-4.244404964E1,-2.115386032E1,5.437568234E1
5.402387750E0,1.469059255E1,-2.019206351E1,-1.636071639E1,2.985307319E1
5.412389750E0,1.990614987E0,-1.586808613E1,6.148095828E0,1.713352818E1
5.422392750E0,-1.024486781E0,-1.714906841E1,1.544703398E1,2.310305129E1
5.432394750E0,-2.395214244E0,-2.228817338E1,1.403796376E1,2.644927505E1
5.442397750E0,-1.731709487E0,-2.779424142E1,6.320681076E0,2.855642980E1
5.452399750E0,7.101370320E-2,-3.055747883E1,2.178011086E-1,3.055833754E1
5.462402750E0,1.906428530E0,-2.878207237E1,-1.150181891E0,2.886806329E1
5.472404750E0,1.241343272E0,-2.653876002E1,3.530450870E-1,2.657012152E1
5.482407750E0,4.623337137E-1,-2.439333474E1,9.175884958E-1,2.441496469E1
5.492409750E0,-1.039768552E0,-2.233195733E1,6.380668831E-1,2.236525355E1
5.502411750E0,-2.675577709E0,-2.032881585E1,2.818117478E-1,2.050606954E1
5.512414750E0,-2.988517182E0,-1.738865573E1,2.029258651E-1,1.764476585E1
5.522416750E0,-2.148840496E0,-1.447430755E1,7.198390245E-1,1.465064036E1
5.532419750E0,-8.171128656E-1,-1.165227990E1,1.078261065E0,1.173055613E1
5.542421750E0,2.025938894E-1,-8.266361380E0,8.221734846E-1,8.309617560E0
5.552424750E0,3.721494024E-1,-4.754052374E0,5.526729763E-1,4.800516281E0
5.562426750E0,3.291492708E-1,-9.722387660E-1,6.247761619E-1,1.201637513E0
5.572428750E0,3.844792798E-1,2.423516521E0,1.069220685E0,2.676656407E0
5.582431750E0,5.200852740E-1,5.183809860E0,1.596707364E0,5.449022643E0
5.592433750E0,7.774248894E-1,7.975948890E0,2.150347470E0,8.297237154E0
5.602436750E0,8.064408199E-1,1.060509386E1,2.782202271E0,1.099358959E1
5.612438750E0,4.939906123E-1,1.151000545E1,1.806396704E0,1.166136018E1
5.622441750E0,8.933095407E-1,1.206313567E1,1.309378695E-1,1.209687517E1
5.632443750E0,1.708414619E0,1.394269742E1,-7.274298799E-1,1.406579703E1
5.642445750E0,2.172795516E0,1.625220844E1,-2.665513189E-1,1.639897463E1
5.652448750E0,1.863768122E0,1.788961944E1,3.554395218E-1,1.798995421E1
5.662450750E0,1.180540415E0,1.897499364E1,5.897127485E-1,1.902082597E1
5.672453750E0,2.666206084E-1,1.873731836E1,1.340207409E0,1.878707912E1
5.682455750E0,9.629555802E-1,1.621116683E1,2.505372863E0,1.643186254E1
5.692458750E0,1.186136346E0,1.329614038E1,4.290456465E0,1.402149368E1
5.702460750E0,5.614701122E-2,1.085639666E1,4.400850728E0,1.171460576E1
5.712463750E0,-6.064734998E-1,9.560320968E0,3.872574674E0,1.033268512E1
5.722465750E0,-4.366764969E-1,8.928737478E0,3.827126606E0,9.724193404E0
5.732467750E0,-3.182272567E-1,8.500900801E0,2.736685206E0,8.936220059E0
5.742470750E0,-7.321149614E-1,8.336256657E0,7.281395857E-1,8.399961585E0
5.752472750E0,-2.002896479E-1,8.607227156E0,9.864590482E-1,8.665885800E0
5.762475750E0,5.264163467E-1,8.534298928E0,2.387080182E0,8.877472847E0
5.772477750E0,1.161859730E0,8.686634683E0,2.610867158E0,9.144625059E0
5.782480750E0,2.378478197E0,9.009379352E0,1.187315803E0,9.393390957E0
5.792482750E0,2.935009604E0,8.965812918E0,-1.245303445E-1,9.434807389E0
5.802484750E0,2.956642841E0,8.697064946E0,-5.637172703E-1,9.203176230E0
5.812487750E0,3.022971608E0,8.192632084E0,-9.826339459E-1,8.787670185E0
5.822489750E0,2.246855764E0,7.242786984E0,-1.039150720E0,7.654159545E0
5.832492750E0,1.549515656E0,6.750662511E0,-1.713022517E0,7.134906394E0
5.842494750E0,1.386899180E0,7.158956038E0,-2.960530654E0,7.870125961E0
5.852497750E0,1.232258745E0,7.717741694E0,-3.796203021E0,8.688679753E0
5.862499750E0,1.019986544E0,8.033557997E0,-4.039500986E0,9.049640593E0
5.872501750E0,8.260725541E-1,8.268658167E0,-3.384180139E0,8.972501265E0
5.882504750E0,7.999941185E-1,8.691014248E0,-1.887743314E0,8.929574125E0
5.892506750E0,1.062179760E0,9.213136691E0,-1.167572021E-1,9.274898694E0
5.902509750E0,1.343324560E0,9.906014789E0,1.410715474E0,1.009573019E1
5.912511750E0,1.326367634E0,1.051801829E1,3.500448514E0,1.116427784E1
5.922514750E0,1.212335089E0,1.095550463E1,6.676730901E0,1.288687602E1
5.932516750E0,9.908237024E-1,1.147401934E1,9.356147307E0,1.483820555E1
5.942519750E0,8.731746536E-1,1.236880238E1,1.019965611E1,1.605561245E1
5.952521750E0,2.417842676E-1,1.284922365E1,1.006944914E1,1.632650649E1
5.962523750E0,-6.412495226E-1,1.312062567E1,9.579556553E0,1.625822631E1
5.972526750E0,-2.655422357E-1,1.315501666E1,8.202819103E0,1.550519968E1
5.982528750E0,-1.089343585E0,9.885761204E0,4.468057455E0,1.090314090E1
5.992531750E0,-4.715458704E0,1.024318746E0,-4.545114402E0,6.628939931E0
6.002533750E0,-7.653771400E0,-1.403468348E1,-4.890686601E0,1.671739730E1
6.012536750E0,-5.949374696E0,-3.620822804E1,5.105931380E0,3.704728563E1
6.022538750E0,1.082266057E1,-4.549315275E1,1.504623658E0,4.678697277E1
6.032540750E0,2.566687936E1,-2.897787925E1,-1.142843094E1,4.036229943E1
6.042543750E0,1.112639652E1,-1.717831501E1,-5.794707656E0,2.127133853E1
6.052545750E0,-2.334265206E0,-1.903757990E1,6.574004678E0,2.027549703E1
6.062548750E0,-8.623237417E0,-2.274916786E1,1.206759476E1,2.715716674E1
6.072550750E0,-9.912498182E0,-2.585878731E1,9.884025750E0,2.940456540E1
6.082553750E0,-4.808732319E0,-2.544567217E1,3.897318921E0,2.618769241E1
6.092555750E0,-1.390719605E0,-2.627406826E1,2.584733028E0,2.643750383E1
6.102557750E0,9.098029281E-1,-2.774121653E1,1.407272926E0,2.779178391E1
6.112560750E0,3.198760253E0,-2.709153942E1,-3.552032943E-1,2.728204069E1
6.122563167E0,3.703804734E0,-2.401524676E1,-9.669664778E-1,2.431841423E1
6.132566167E0,6.572039428E-1,-2.043817984E1,-4.303696901E-1,2.045327187E1
6.142568167E0,-2.761066341E0,-1.769565911E1,1.549082962E0,1.797663752E1
6.152571167E0,-4.501476046E0,-1.552197423E1,3.642545210E0,1.656692809E1
6.162573167E0,-5.023992593E0,-1.358071501E1,4.662317162E0,1.521228198E1
6.172576167E0,-4.732712960E0,-1.135315973E1,4.690133536E0,1.316397206E1
6.182578167E0,-3.811378300E0,-9.169894778E0,3.784395154E0,1.062709845E1
6.192580167E0,-2.821587362E0,-6.549311301E0,3.031331080E0,7.748793576E0
6.202583167E0,-1.678696876E0,-3.615790105E0,2.096298147E0,4.504045649E0
6.212585167E0,-7.574904156E-1,-4.899738675E-1,1.311364410E0,1.591710632E0
6.222588167E0,1.147296801E-2,2.584030192E0,5.381180140E-1,2.639491364E0
6.232590167E0,6.638017948E-1,5.234965396E0,-5.272434354E-2,5.277146518E0
6.242593167E0,1.026483239E0,7.225754045E0,-6.109485932E-1,7.323827384E0
6.252595167E0,1.224007885E0,8.849594244E0,-1.520998785E0,9.062392118E0
6.262597167E0,1.478997212E0,1.066333096E1,-1.840104879E0,1.092154045E1
6.272600167E0,1.811253547E0,1.261213660E1,-1.453920697E0,1.282421594E1
6.282602167E0,1.925881340E0,1.452118585E1,-9.956368379E-1,1.468213711E1
6.292605167E0,1.915090888E0,1.639218493E1,-1.114151859E-1,1.650405142E1
6.302607167E0,1.585035006E0,1.789289154E1,1.047387328E0,1.799346892E1
6.312610167E0,1.478933770E0,1.875638496E1,1.330607889E0,1.886159429E1
6.322612167E0,2.468205037E0,1.801096320E1,1.041243073E0,1.820909164E1
6.332614167E0,3.216947433E0,1.545624451E1,1.986876862E0,1.591200568E1
6.342617167E0,2.851360214E0,1.320201190E1,3.317761617E0,1.390794433E1
6.352619167E0,1.851297911E0,1.138160995E1,4.436524590E0,1.235520535E1
6.362622167E0,8.639733289E-1,9.893580101E0,5.188324496E0,1.120482433E1
6.372624167E0,3.461605753E-1,8.965842739E0,4.713564498E0,1.013527767E1
6.382627167E0,3.990956379E-1,8.622373783E0,2.447505455E0,8.971894445E0
6.392629167E0,2.881271061E-1,8.388740095E0,-1.759721012E-1,8.395531180E0
6.402632167E0,4.175325666E-1,8.149480802E0,-8.073977168E-1,8.200015967E0
6.412634167E0,9.443103444E-1,8.031085795E0,-1.071245283E0,8.157059980E0
6.422636167E0,1.167622892E0,8.017426114E0,-1.010669152E0,8.164797416E0
6.432639167E0,9.053607253E-1,8.116714175E0,-7.291631408E-1,8.199536933E0
6.442641167E0,8.462897408E-1,8.443328531E0,-4.070539176E-1,8.495392628E0
6.452644167E0,9.324908558E-1,8.751011358E0,-7.823121384E-2,8.800901039E0
6.462646167E0,9.997802480E-1,8.957461925E0,-3.292128593E-3,9.013084684E0
6.472649167E0,1.182731001E0,9.114659640E0,-8.215586498E-2,9.191442898E0
6.482651167E0,1.280453397E0,9.250674062E0,5.347980380E-2,9.339025195E0
6.492653167E0,1.446864569E0,9.575719610E0,5.387390614E-2,9.684561195E0
6.502656167E0,1.224636680E0,9.465017200E0,-3.418859683E-2,9.543974772E0
6.512658167E0,7.463933504E-1,9.283742990E0,-1.395927720E-1,9.314744928E0
6.522661167E0,8.243522302E-1,9.781343381E0,6.056779861E-2,9.816206161E0
6.532663167E0,7.882478663E-1,1.027694929E1,5.319083440E-1,1.032085015E1
6.542666167E0,7.844987778E-1,1.081447797E1,1.571028732E0,1.095611717E1
6.552668167E0,6.928012070E-1,1.108010412E1,2.709624292E0,1.142763075E1
6.562671167E0,4.579727141E-1,1.122177514E1,3.354762797E0,1.172145083E1
6.572673167E0,2.348804601E-1,1.137398050E1,3.873876264E0,1.201788328E1
6.582675167E0,-3.635269520E-1,1.168499039E1,4.559021419E0,1.254814044E1
6.592678167E0,-1.200554557E0,1.185819310E1,5.888070148E0,1.329388751E1
6.602680167E0,-1.806932309E0,1.104758775E1,6.811624997E0,1.310390913E1
6.612683167E0,-1.629753050E0,9.600905322E0,6.516302015E0,1.171732350E1
6.622685167E0,-3.128001050E0,4.467355204E0,3.669030758E0,6.572932359E0
6.632688167E0,-7.403117053E0,-7.456788645E0,1.558482946E0,1.062255657E1
6.642690167E0,-1.433162614E1,-2.660158952E1,8.485139047E0,3.138530958E1
6.652692167E0,-1.333070093E1,-4.417817476E1,8.430076987E0,4.690932648E1
6.662695167E0,5.673290223E0,-3.870637842E1,-3.089781017E0,3.924177238E1
6.672697167E0,1.535978066E1,-2.233415822E1,-1.066731876E1,2.912952411E1
6.682700167E0,8.855647867E0,-1.595238778E1,-6.105563182E0,1.924003838E1
6.692702167E0,1.541013585E-1,-1.918614595E1,-1.529634538E0,1.924764208E1
6.702705167E0,-3.818838177E0,-2.435799884E1,2.278718850E0,2.476061777E1
6.712707167E0,-6.267329911E0,-3.013247981E1,5.220624515E0,3.121699351E1
6.722710167E0,-5.231419644E0,-2.873470057E1,7.884421254E0,3.025251836E1
6.732712167E0,1.661499484E-1,-2.473737789E1,9.170001782E0,2.638284297E1
6.742714167E0,2.992253846E0,-2.458972868E1,6.245822682E0,2.554640171E1
6.752717167E0,4.001145883E0,-2.361736010E1,2.134058881E0,2.404876450E1
6.762719167E0,4.074616148E0,-2.187161774E1,-8.366009045E-1,2.226364885E1
6.772722167E0,2.959935992E0,-1.999111810E1,-2.954593976E0,2.042389898E1
6.782724167E0,1.128042943E0,-1.779549447E1,-3.406963230E0,1.815377379E1
6.792727167E0,-4.633031821E-1,-1.508831899E1,-2.507535163E0,1.530227932E1
6.802729167E0,-8.552995692E-1,-1.162376653E1,-1.621486110E0,1.176744250E1
6.812731167E0,-8.354415478E-1,-8.438981711E0,-6.944527531E-1,8.508621482E0
6.822734167E0,-6.704677668E-1,-5.366965120E0,2.761984938E-1,5.415729612E0
6.832736167E0,-5.144239998E-1,-2.383509872E0,1.018245828E0,2.642456419E0
6.842739167E0,-2.019625363E-1,4.415612608E-1,1.606468706E0,1.678245190E0
6.852741167E0,-1.256625116E-2,3.122886783E0,2.711816998E0,4.136004255E0
6.862744167E0,1.081677885E-1,5.468907816E0,3.910247115E0,6.723889163E0
6.872746167E0,3.630004102E-1,7.619348842E0,3.561313351E0,8.418384575E0
6.882749167E0,3.263985944E-1,9.604433532E0,1.207025597E0,9.685483484E0
6.892751167E0,2.621795020E-1,1.148692765E1,-7.923083190E-1,1.151720441E1
6.902753167E0,5.596335018E-1,1.317785822E1,-6.926612393E-1,1.320791114E1
6.912756167E0,1.325327561E0,1.463955688E1,5.872545791E-1,1.471115179E1
6.922758167E0,2.167978287E0,1.575579269E1,1.749775629E0,1.600021400E1
6.932761167E0,3.173585359E0,1.629000367E1,1.737974925E0,1.668701353E1
6.942763167E0,4.016753271E0,1.658334445E1,1.243209264E0,1.710810302E1
6.952766167E0,4.749979203E0,1.669142906E1,4.372711587E-1,1.735964609E1
6.962768167E0,4.966798053E0,1.623777166E1,3.620759654E-1,1.698426950E1
6.972770167E0,4.313456781E0,1.500406295E1,1.265795889E0,1.566301547E1
6.982773167E0,3.014840178E0,1.315129198E1,1.779243404E0,1.360924132E1
6.992775167E0,1.509905594E0,1.117070322E1,1.945934658E0,1.143901599E1
7.002778167E0,1.687246236E-1,9.504994029E0,2.244257262E0,9.767807847E0
7.012780167E0,-8.768943599E-1,8.414455565E0,2.501210815E0,8.822021408E0
7.022783167E0,-1.666198599E0,7.955167301E0,2.313636814E0,8.450669788E0
7.032785167E0,-2.114044155E0,8.049162462E0,1.719311782E0,8.497895741E0
7.042788167E0,-1.931388686E0,8.656950123E0,8.601453030E-1,8.911391453E0
7.052790167E0,-1.116144444E0,9.165401777E0,2.837630367E-1,9.237472036E0
7.062792167E0,-5.087758818E-1,9.281025204E0,-1.661895633E-2,9.294974875E0
7.072795167E0,-8.462295145E-2,9.053444554E0,-9.208078265E-2,9.054308268E0
7.082797167E0,3.493780057E-1,8.673211230E0,-2.159517074E-1,8.682931139E0
7.092800167E0,7.766163656E-1,8.287162265E0,-2.819867257E-1,8.328247589E0
7.102802167E0,1.125063056E0,7.976499698E0,-2.754376614E-1,8.060160061E0
7.112805167E0,1.463986240E0,7.791485608E0,-2.386693096E-1,7.931422743E0
7.122806542E0,1.780567944E0,7.847856275E0,-9.299652971E-2,8.047851805E0
7.132808542E0,2.488889562E0,8.108885338E0,4.045542330E-4,8.482251637E0
7.142811542E0,2.627112185E0,8.301265165E0,-1.534239952E-1,8.708401730E0
7.152813542E0,2.500874600E0,8.579186833E0,-7.983449113E-1,8.971854606E0
7.162816542E0,2.259264433E0,8.882731000E0,-1.561998292E0,9.297689200E0
7.172818542E0,1.704365422E0,9.132250403E0,-2.056250567E0,9.514779310E0
7.182821542E0,1.031594437E0,9.314116352E0,-1.887124532E0,9.559193977E0
7.192823542E0,9.196722972E-1,9.633650315E0,-7.279783487E-1,9.704790982E0
7.202826542E0,9.400976448E-1,9.830411460E0,2.129555941E0,1.010226616E1
7.212828542E0,6.772615736E-1,1.037249513E1,5.077786392E0,1.156854585E1
7.222830542E0,6.372849642E-1,1.170039897E1,6.851881907E0,1.357401024E1
7.232833542E0,1.330464486E0,1.280964502E1,7.638747565E0,1.497356356E1
7.242835542E0,1.620675394E0,1.119465341E1,7.932750245E0,1.381576564E1
7.252838542E0,-8.221799896E-1,4.677180784E0,4.461411510E0,6.515841671E0
7.262840542E0,-7.989042560E0,-1.267090930E1,3.581806088E0,1.540149598E1
7.272843542E0,-1.404875188E1,-3.745168055E1,1.313690900E1,4.210194987E1
7.282845542E0,-4.425490894E0,-4.903464755E1,3.151705955E0,4.933472287E1
7.292848542E0,1.630919189E1,-3.276662941E1,-9.357117945E0,3.777826623E1
7.302850542E0,1.382223776E1,-1.705916630E1,-9.013311020E0,2.373413548E1
7.312852542E0,2.075761557E0,-1.739129633E1,5.435085182E0,1.833865112E1
7.322855542E0,-2.928569189E0,-2.106712039E1,8.827865991E0,2.302892305E1
7.332857542E0,-6.989697856E0,-2.779847247E1,7.608303452E0,2.965631853E1
7.342860542E0,-5.576481382E0,-2.817735801E1,8.361755195E0,2.991620963E1
7.352862542E0,-1.735853263E0,-2.447793693E1,4.473069688E0,2.494375544E1
7.362865542E0,-3.661152220E-1,-2.451404232E1,1.411138374E0,2.455735374E1
7.372867542E0,1.543814036E0,-2.468195564E1,3.139358389E-1,2.473218251E1
7.382869542E0,2.381341140E0,-2.302769413E1,4.576475358E-1,2.315501941E1
7.392872542E0,1.223629936E0,-1.955007666E1,6.043769076E-1,1.959765391E1
7.402874542E0,-1.049038216E0,-1.614802158E1,8.906192368E-1,1.620655067E1
7.412877542E0,-2.631556654E0,-1.319645003E1,2.049303491E0,1.361143007E1
7.422879542E0,-2.771166236E0,-1.034175749E1,3.363706698E0,1.122255911E1
7.432882542E0,-1.905855795E0,-8.476288117E0,4.183406811E0,9.642646892E0
7.442884542E0,-1.361939317E0,-6.157613341E0,4.035448866E0,7.487050709E0
7.452887542E0,-1.403913847E0,-3.342888857E0,3.010603870E0,4.712707890E0
7.462889542E0,-1.480817304E0,-3.752637756E-1,1.649642208E0,2.248324310E0
7.472891542E0,-1.070136213E0,2.621454712E0,4.323010254E-1,2.864280101E0
7.482894542E0,-4.576564528E-1,5.321106577E0,-6.539490172E-1,5.380638805E0
7.492896542E0,1.183992465E-1,7.184615375E0,-1.421042973E0,7.324757989E0
7.502899542E0,7.733805165E-1,8.635210176E0,-1.245806597E0,8.758824480E0
7.512901542E0,1.023176639E0,1.000006842E1,-4.649553859E-1,1.006302352E1
7.522904542E0,1.539070775E0,1.133364173E1,-2.371221364E-1,1.144012240E1
7.532906542E0,2.322771188E0,1.286933106E1,-2.550461912E-1,1.307975521E1
7.542909542E0,2.868993078E0,1.425660402E1,-6.212245631E-1,1.455567928E1
7.552911542E0,3.070361829E0,1.553346518E1,-5.620425546E-1,1.584397533E1
7.562913542E0,3.143568677E0,1.678134988E1,-1.242018771E-1,1.707369772E1
7.572916542E0,3.161957878E0,1.771654419E1,4.315386946E-1,1.800167052E1
7.582918542E0,3.406104859E0,1.790676815E1,8.627882445E-1,1.824824100E1
7.592921542E0,3.746868601E0,1.678414017E1,1.117643816E0,1.723355777E1
7.602923542E0,3.291045981E0,1.476771382E1,1.196778717E0,1.517724067E1
7.612926542E0,2.324595958E0,1.304694608E1,9.677691543E-1,1.328770580E1
7.622928542E0,1.399517033E0,1.141125065E1,1.405539958E0,1.158235002E1
7.632931542E0,5.598187123E-1,9.968397564E0,2.236586884E0,1.023155256E1
7.642933542E0,-1.232347476E-1,8.872860900E0,2.437605972E0,9.202432843E0
7.652935542E0,-6.157389978E-1,8.249360016E0,1.762781153E0,8.458041888E0
7.662938542E0,-6.837890397E-1,8.132880557E0,9.395023982E-1,8.215471889E0
7.672940542E0,-6.516186824E-1,8.330930429E0,8.556207275E-1,8.400065211E0
7.682943542E0,-8.642566265E-1,8.584521832E0,1.299726112E0,8.725264613E0
7.692945542E0,-9.462702580E-1,8.580250441E0,1.395053269E0,8.744272335E0
7.702948542E0,-8.144767946E-1,8.233854954E0,7.563092780E-1,8.308534382E0
7.712950542E0,-6.844641007E-1,7.786269892E0,-2.932764200E-1,7.821796532E0
7.722952542E0,-3.530285686E-1,7.469989904E0,-7.973462069E-1,7.520714016E0
7.732955542E0,-4.184896097E-2,7.407960886E0,-7.378437710E-1,7.444732988E0
7.742957542E0,9.388703142E-1,7.769177311E0,-8.534946799E-1,7.872105609E0
7.752960542E0,2.051670005E0,8.207423201E0,-4.200499392E-1,8.470394758E0
7.762962542E0,3.012540176E0,8.778550574E0,3.557609725E-1,9.287890738E0
7.772965542E0,4.026822176E0,9.543469877E0,7.455387068E-1,1.038503453E1
7.782967542E0,4.670773990E0,1.015631655E1,2.827608240E-1,1.118243485E1
7.792970542E0,4.489833071E0,1.059824911E1,-7.229824877E-1,1.153274420E1
7.802972542E0,3.833398914E0,1.116089159E1,-1.014864968E0,1.184442481E1
7.812974542E0,2.988254642E0,1.192102728E1,-2.847406912E-1,1.229315397E1
7.822977542E0,2.339975159E0,1.276669605E1,4.773643470E-1,1.298814415E1
7.832979542E0,1.406626663E0,1.337516667E1,1.661982172E0,1.355123119E1
7.842982542E0,5.193485979E-1,1.312669158E1,3.366356657E0,1.356141998E1
7.852984542E0,1.295351956E-1,1.221512469E1,4.365590848E0,1.297244904E1
7.862987542E0,-5.207780959E-1,9.435057237E0,4.200617505E0,1.034102037E1
7.872989542E0,-3.434845678E0,3.050420485E0,3.395767567E0,5.712658517E0
7.882992542E0,-6.729523657E0,-5.674628651E0,4.223045086E0,9.763299072E0
7.892994542E0,-1.236706927E1,-2.370171438E1,1.256074074E1,2.953790572E1
7.902996542E0,-1.584307057E1,-5.501474469E1,2.110164936E1,6.101560967E1
7.912999542E0,-2.349491648E0,-6.156891678E1,4.324653322E-1,6.161524690E1
7.923001542E0,1.126418148E1,-2.698553875E1,-1.682914151E1,3.373901436E1
7.933004542E0,1.057261725E1,-9.714447141E0,-1.549074659E1,2.112140973E1
7.943006542E0,3.724371438E0,-7.075937855E0,-7.122938359E0,1.070869226E1
7.953009542E0,-3.017741786E-1,-1.313774398E1,1.315900972E0,1.320692924E1
7.963011542E0,2.170071736E0,-2.520529547E1,7.433781021E0,2.636811013E1
7.973014542E0,2.731565968E0,-3.360777711E1,1.380392311E1,3.643476950E1
7.983016542E0,8.173315515E-1,-2.943404627E1,1.039121090E1,3.122512410E1
7.993018542E0,-1.895357120E0,-2.275638566E1,4.856079270E0,2.334581275E1
8.003021542E0,-3.021272992E0,-1.888859635E1,3.006067308E0,1.936346052E1
8.013023542E0,-2.200108299E0,-1.764628054E1,2.814790558E0,1.800429780E1
8.023026542E0,-7.553813980E-1,-1.794291564E1,2.827300091E0,1.818000133E1
8.033028542E0,4.600207745E-1,-1.850538972E1,2.509141978E0,1.868038707E1
8.043031542E0,1.724348866E0,-1.766793044E1,5.500031376E-1,1.776039551E1
8.053033542E0,1.874399237E0,-1.518091901E1,-1.701654360E0,1.539055886E1
8.063036542E0,5.773743195E-1,-1.196951473E1,-2.719522458E0,1.228814252E1
8.073038542E0,-2.568288611E-1,-8.278856295E0,-3.061374659E0,8.830483420E0
8.083040542E0,-7.570091897E-1,-4.657028355E0,-2.515994330E0,5.347074292E0
8.093043542E0,-6.376189864E-1,-7.160582149E-1,-5.205688387E-1,1.091003783E0
8.103045542E0,-6.524103954E-2,2.947193155E0,1.656367090E0,3.381383715E0
8.113048542E0,4.044612622E-1,5.594414792E0,2.460753930E0,6.125061280E0
8.123050250E0,8.427255705E-1,7.666381506E0,2.276248548E0,8.041448827E0
8.133053250E0,1.015488135E0,9.398385839E0,1.933245031E0,9.648746493E0
8.143055250E0,7.934369047E-1,1.113808160E1,2.076807039E0,1.135779606E1
8.153058250E0,4.844067335E-1,1.293704181E1,2.166892751E0,1.312619994E1
8.163060250E0,6.655131286E-1,1.485230900E1,2.130963950E0,1.501915436E1
8.173062250E0,1.161581257E0,1.669571624E1,1.463962705E0,1.679998210E1
8.183065250E0,1.021601399E0,1.774593698E1,3.259085246E-1,1.777830602E1
8.193067250E0,5.198135246E-1,1.825663630E1,1.885854956E-1,1.826500861E1
8.203070250E0,4.801945455E-1,1.822346154E1,2.788046709E-1,1.823191897E1
8.213072250E0,1.291605206E0,1.721568340E1,-8.292239110E-1,1.728396977E1
8.223075250E0,1.936964298E0,1.537193468E1,-1.732997775E0,1.559010865E1
8.233077250E0,2.127124376E0,1.360005994E1,-2.087218591E0,1.392274290E1
8.243079250E0,1.612261396E0,1.242225295E1,-1.032413559E0,1.256891534E1
8.253082250E0,6.628448980E-1,1.099127322E1,1.303558377E0,1.108813396E1
8.263084250E0,3.477207586E-1,9.697627040E0,3.176748995E0,1.021061282E1
8.273087250E0,6.248771726E-1,8.963023796E0,3.827139469E0,9.765923590E0
8.283089250E0,1.113804096E0,8.799830346E0,4.097835149E0,9.770866215E0
8.293092250E0,1.779122951E0,8.883222166E0,4.098580084E0,9.943604640E0
8.303094250E0,1.599358638E0,8.573673493E0,3.494370918E0,9.395554978E0
8.313097250E0,1.235550874E0,8.012420313E0,2.642554389E0,8.526931390E0
8.323099250E0,1.110575410E0,7.508016102E0,2.037483490E0,7.858436390E0
8.333102250E0,6.041625340E-1,7.034516180E0,1.217688507E0,7.164649018E0
8.343104250E0,3.983339649E-1,7.010383551E0,2.456041074E-1,7.025985259E0
8.353106250E0,5.165018079E-1,7.287312362E0,-9.121293890E-1,7.362314555E0
8.363109250E0,6.512514773E-1,7.644418194E0,-1.846500417E0,7.891186337E0
8.373111250E0,9.819735029E-1,8.096119112E0,-2.112845768E0,8.424697850E0
8.383114250E0,1.266252118E0,8.527685727E0,-2.518461270E0,8.981506859E0
8.393116250E0,1.315674100E0,9.212437364E0,-2.645103775E0,9.674532263E0
8.403119250E0,1.962054701E0,9.899010994E0,-1.962190502E0,1.028057726E1
8.413121250E0,2.427360920E0,1.033039985E1,-1.090392868E0,1.066762386E1
8.423124250E0,2.796135017E0,1.069488136E1,-1.800860560E-1,1.105582604E1
8.433126250E0,2.933486405E0,1.082465564E1,1.004095566E0,1.125996093E1
8.443128250E0,3.583907577E0,1.076879602E1,2.457612805E0,1.161254588E1
8.453131250E0,4.343845637E0,1.093782265E1,3.700443170E0,1.233686503E1
8.463133250E0,4.261926731E0,1.086265786E1,4.625981979E0,1.255233303E1
8.473136250E0,3.956077591E0,1.054354256E1,5.173208858E0,1.239269662E1
8.483138250E0,4.533364422E0,9.517319375E0,4.930083386E0,1.163771813E1
8.493141250E0,5.390478528E0,6.331646944E0,4.048609779E0,9.248689255E0
8.503143250E0,3.192410177E0,-2.049263729E0,1.773219748E0,4.187513922E0
8.513146250E0,-4.472856265E0,-1.819417284E1,1.170045248E0,1.877240992E1
8.523148250E0,-1.128666754E1,-4.052850180E1,5.071567878E0,4.237533625E1
8.533150250E0,-1.429026176E0,-4.809575312E1,-3.041437992E0,4.821300580E1
8.543153250E0,9.111944777E0,-3.163705026E1,-1.565403711E1,3.645516924E1
8.553155250E0,2.435146341E0,-1.499258253E1,-1.117270881E1,1.885568590E1
8.563158250E0,3.468370982E-2,-1.270276259E1,6.661021771E0,1.434331173E1
8.573160250E0,-7.959143700E-1,-1.687795874E1,1.585318625E1,2.316942998E1
8.583163250E0,-3.103851903E-1,-2.066786081E1,1.709847128E1,2.682563195E1
8.593165250E0,-1.194829548E-1,-2.249871057E1,1.111136684E1,2.509320080E1
8.603168250E0,-1.173985686E0,-2.434300892E1,4.159038540E0,2.472363095E1
8.613170250E0,-6.866095904E-1,-2.712943873E1,1.500559989E0,2.717957981E1
8.623172250E0,9.647646356E-1,-2.718262500E1,-3.071244174E-1,2.720147419E1
8.633175250E0,-1.369036375E-1,-2.428895960E1,-1.980988424E-1,2.429015323E1
8.643177250E0,-2.351382346E0,-2.140798031E1,4.853305936E-2,2.153678192E1
8.653180250E0,-3.212024662E0,-1.858979077E1,-8.260430257E-1,1.888331990E1
8.663182250E0,-2.820924872E0,-1.489209228E1,-7.722792665E-1,1.517657553E1
8.673185250E0,-2.346051001E0,-1.136273747E1,5.466304636E-1,1.161527283E1
8.683187250E0,-2.160334953E0,-8.552687252E0,1.321660772E0,8.919769814E0
8.693190250E0,-1.826420201E0,-5.917809672E0,1.307277206E0,6.329712139E0
8.703192250E0,-1.639118097E0,-2.801415052E0,6.543946481E-1,3.311022015E0
8.713194250E0,-1.611182000E0,5.120541233E-1,-3.895002108E-2,1.691042273E0
8.723197250E0,-7.811476654E-1,3.393467272E0,1.111918223E-1,3.483988436E0
8.733199250E0,1.445196359E-1,5.877172108E0,7.774855542E-1,5.930136735E0
8.743202250E0,5.213263455E-1,8.099673634E0,1.477701323E0,8.249854262E0
8.753204250E0,5.382161741E-1,9.832671994E0,2.084870349E0,1.006567432E1
8.763207250E0,8.869005539E-1,1.120301727E1,2.346299507E0,1.148038805E1
8.773209250E0,1.536533522E0,1.184163028E1,1.965998794E0,1.210166494E1
8.783212250E0,1.821732927E0,1.247865519E1,1.655147946E0,1.271908255E1
8.793214250E0,1.958746200E0,1.354335481E1,1.843518337E0,1.380788565E1
8.803216250E0,2.083419509E0,1.488543698E1,2.178512192E0,1.518758659E1
8.813219250E0,2.369350401E0,1.605533619E1,1.933132764E0,1.634394824E1
8.823221250E0,2.779691477E0,1.665782745E1,1.486338976E0,1.695343928E1
8.833224250E0,3.018308161E0,1.624365396E1,1.312803994E0,1.657377243E1
8.843226250E0,2.991667662E0,1.502302664E1,9.104278493E-1,1.534504102E1
8.853229250E0,2.603497912E0,1.366265087E1,1.091327984E0,1.395124464E1
8.863231250E0,2.149146160E0,1.231389936E1,1.290003362E0,1.256642572E1
8.873234250E0,1.532620127E0,1.110218671E1,1.170925838E0,1.126847557E1
8.883236250E0,1.052808281E0,1.004113108E1,1.057212843E0,1.015137516E1
8.893238250E0,5.890561062E-1,9.146720508E0,1.370153632E0,9.267513373E0
8.903241250E0,3.277225502E-1,8.560061760E0,1.867277913E0,8.767484600E0
8.913243250E0,5.796317102E-1,8.462194573E0,1.842343047E0,8.679800563E0
8.923246250E0,9.938641083E-1,8.671343045E0,1.859268397E0,8.923947279E0
8.933248250E0,1.279903905E0,8.907669960E0,2.413235947E0,9.317105014E0
8.943251250E0,1.777773414E0,9.356893997E0,2.568003559E0,9.864410061E0
8.953253250E0,1.939880597E0,9.715410177E0,2.263640782E0,1.016249975E1
8.963256250E0,1.758911904E0,9.983678677E0,1.411043065E0,1.023516749E1
8.973258250E0,1.665199310E0,1.025600690E1,5.143059591E-1,1.040303210E1
8.983261250E0,1.787650969E0,1.033644821E1,-1.989632070E-1,1.049177983E1
8.993263250E0,1.813337787E0,1.006779906E1,-4.739706961E-1,1.024077244E1
9.003265250E0,1.645304889E0,9.618761550E0,-1.374200928E-1,9.759430629E0
9.013268250E0,1.546329070E0,9.271380807E0,1.688277539E-1,9.400964762E0
9.023270250E0,1.494952217E0,9.109987130E0,2.756307292E-1,9.235947159E0
9.033273250E0,1.787824777E0,9.179035730E0,2.801073575E-1,9.355718812E0
9.043275250E0,2.573765990E0,9.372225981E0,1.682956938E-1,9.720659167E0
9.053278250E0,2.683046065E0,9.322008339E0,-1.076940179E-2,9.700448012E0
9.063280250E0,2.058243006E0,9.002684875E0,-5.559193504E-1,9.251688795E0
9.073283250E0,1.179756376E0,8.863490152E0,-1.036970952E0,9.001588279E0
9.083285250E0,1.108746985E0,8.285834363E0,-7.051379550E-1,8.389373665E0
9.093287250E0,1.962480524E0,6.853615022E0,9.052460468E-1,7.186295226E0
9.103290250E0,2.462907459E0,3.118791978E0,9.667482305E-1,4.089911820E0
9.113292250E0,6.638530310E-1,-4.791545890E0,-1.332614361E0,5.017516706E0
9.123295250E0,-7.325312247E0,-2.042781155E1,9.006695042E-1,2.172019544E1
9.133297292E0,-1.564369572E1,-3.767725209E1,5.268943566E0,4.113468497E1
9.143300292E0,-9.367062305E0,-3.571197251E1,6.862292290E-3,3.692000655E1
9.153302292E0,2.827512345E0,-1.668655014E1,-5.635576851E0,1.783803543E1
9.163305292E0,2.649772485E0,-1.293993502E1,-3.838566098E0,1.375491920E1
9.173307292E0,3.839029198E0,-1.524997345E1,5.970419410E0,1.682099116E1
9.183309292E0,3.949286050E0,-2.166659564E1,1.378033778E1,2.597952918E1
9.193312292E0,2.189011014E0,-2.826138484E1,1.485573429E1,3.200297617E1
9.203314292E0,6.348270140E-1,-3.090763350E1,1.206236735E1,3.318411547E1
9.213317292E0,-1.266577954E0,-2.792432326E1,4.805118447E0,2.836302545E1
9.223319292E0,-1.639362510E0,-2.486874845E1,1.244866950E0,2.495379436E1
9.233322292E0,-1.147345187E0,-2.389040870E1,-6.565307821E-1,2.392695262E1
9.243324292E0,-6.567431822E-2,-2.315594696E1,-1.611618349E0,2.321205520E1
9.253327292E0,1.016639525E0,-2.154289897E1,-1.809672899E0,2.164266545E1
9.263329292E0,1.354310455E0,-1.879122969E1,-1.639173353E0,1.891114378E1
9.273332292E0,9.070586836E-1,-1.522439773E1,-6.779338572E-1,1.526645460E1
9.283334292E0,9.306473748E-1,-1.099389745E1,6.073286551E-1,1.104992008E1
9.293336292E0,4.488093232E-1,-7.149903964E0,1.126079010E0,7.251938392E0
9.303339292E0,-5.654710695E-1,-3.704359050E0,7.257891512E-1,3.816910190E0
9.313341292E0,-9.615499096E-1,-3.559018904E-1,2.138397479E-1,1.047364226E0
9.323344292E0,-8.252799641E-1,2.648457738E0,3.554920371E-1,2.796746324E0
9.333346292E0,-4.244027527E-1,4.948428440E0,7.246898746E-1,5.019186900E0
9.343349292E0,1.873820655E-1,6.715652307E0,1.163533934E0,6.818277581E0
9.353351292E0,7.502996559E-1,8.255617121E0,1.471900885E0,8.419302575E0
9.363354292E0,1.002749976E0,9.717260236E0,1.571260282E0,9.894418269E0
9.373356292E0,1.313310948E0,1.140379194E1,1.466647747E0,1.157248080E1
9.383358292E0,1.784320687E0,1.311430951E1,1.186905109E0,1.328825263E1
9.393361292E0,2.270629520E0,1.506540141E1,1.535777038E0,1.531276230E1
9.403363292E0,2.532413896E0,1.670302993E1,2.076034037E0,1.702099428E1
9.413366292E0,2.669243420E0,1.735285674E1,1.423897583E0,1.761459570E1
9.423368292E0,3.353067982E0,1.697048859E1,4.823587462E-2,1.729863794E1
9.433371292E0,3.348578782E0,1.590193449E1,-4.188303562E-1,1.625607330E1
9.443373292E0,2.467613883E0,1.443093408E1,-1.481014940E-1,1.464113762E1
9.453376292E0,1.972495197E0,1.308340464E1,-2.391531667E-1,1.323342014E1
9.463378292E0,1.487267222E0,1.184648113E1,2.926484656E-1,1.194306167E1
9.473381292E0,9.506879756E-1,1.066561137E1,1.973222590E0,1.088818998E1
9.483383292E0,6.598512697E-1,9.670122322E0,3.882068213E0,1.044112652E1
9.493385292E0,4.773305793E-1,9.097857081E0,5.187277844E0,1.048363961E1
9.503388292E0,6.714844514E-1,9.006907150E0,5.616068201E0,1.063557661E1
9.513390292E0,9.185325287E-1,9.337232734E0,4.954452242E0,1.061009963E1
9.523393292E0,1.311659840E0,9.794721810E0,3.826485751E0,1.059712320E1
9.533395292E0,1.869730382E0,9.979398515E0,2.286977019E0,1.040742765E1
9.543398292E0,2.082991493E0,9.972271929E0,7.557043836E-2,1.018777561E1
9.553400292E0,1.777746370E0,9.943723483E0,-1.063482227E0,1.015721484E1
9.563403292E0,1.583957803E0,9.759833813E0,-5.896436783E-1,9.905097579E0
9.573405292E0,1.298582835E0,9.315668787E0,1.752645151E-1,9.407375829E0
9.583407292E0,1.125018032E0,8.691039975E0,6.533569135E-2,8.763795421E0
9.593410292E0,1.338344779E0,7.964882450E0,-2.288576087E-1,8.079783103E0
9.603412292E0,1.828848111E0,7.268901819E0,-3.081049224E-1,7.501769639E0
9.613415292E0,2.276018460E0,6.764638526E0,-2.702980320E-1,7.142384437E0
9.623417292E0,2.554647934E0,6.673155913E0,-2.433026433E-1,7.149575658E0
9.633420292E0,3.170183448E0,6.956987947E0,-4.319758837E-1,7.657437402E0
9.643422292E0,3.824359703E0,7.052106943E0,-1.113844296E0,8.099295561E0
9.653425292E0,2.924262714E0,6.979250051E0,-2.252559139E0,7.895268607E0
9.663427292E0,1.419814473E0,7.141734819E0,-3.036305891E0,7.889195322E0
9.673430292E0,7.228098486E-1,7.628184569E0,-2.455303155E0,8.046127484E0
9.683432292E0,3.711489438E-1,7.854520932E0,3.609439445E-1,7.871564720E0
9.693434292E0,-3.253592518E-1,8.430974534E0,4.786593883E0,9.700446961E0
9.703437292E0,-1.301330296E0,8.510626475E0,6.877054170E0,1.101898805E1
9.713439292E0,-9.117865960E-1,6.958286029E0,6.874650965E0,9.823946516E0
9.723442292E0,-1.682803522E0,3.033381114E0,8.527851788E0,9.206382829E0
9.733444292E0,-7.321650136E0,-1.001334277E1,1.300490577E1,1.797223326E1
9.743447292E0,-1.533070128E1,-3.448038049E1,1.478914503E1,4.052956762E1
9.753449292E0,-1.046244753E1,-4.674092518E1,-8.196925841E-1,4.790458006E1
9.763452292E0,7.904020536E0,-3.330338744E1,-1.425311557E1,3.707749262E1
9.773454292E0,4.762775835E0,-1.787551829E1,-1.767909161E1,2.558844403E1
9.783456292E0,7.393677016E-1,-1.509616128E1,2.866395160E0,1.538365922E1
9.793459292E0,2.718565269E0,-1.689833629E1,1.411658893E1,2.218608685E1
9.803461292E0,2.387691508E0,-2.301646514E1,1.612159216E1,2.820220687E1
9.813464292E0,-2.410720767E-1,-2.630835867E1,1.110844206E1,2.855845474E1
9.823466292E0,-6.011661284E-1,-2.603666429E1,3.646955765E0,2.629771044E1
9.833469292E0,1.759729783E-1,-2.639675454E1,1.334729884E0,2.643106356E1
9.843471292E0,1.218494399E0,-2.515775761E1,-1.876493564E-1,2.518794769E1
9.853474292E0,2.024524014E0,-2.264294033E1,-1.174372333E0,2.276358044E1
9.863476292E0,1.659789319E0,-1.980102044E1,-1.514193211E0,1.992807297E1
9.873479292E0,6.332702659E-1,-1.698206842E1,-1.438905632E0,1.705468054E1
9.883481292E0,1.151356231E-1,-1.367618834E1,-1.041096162E0,1.371624092E1
9.893483292E0,1.152068129E-1,-1.013455321E1,-6.011382079E-1,1.015301968E1
9.903486292E0,4.286544093E-1,-6.606515781E0,-2.826263380E-1,6.626437430E0
9.913488292E0,7.644490407E-1,-3.100936920E0,4.556383960E-1,3.226111974E0
9.923491292E0,1.076105343E0,-2.888524532E-3,1.087623042E0,1.530011416E0
9.933493292E0,1.283221469E0,2.625930755E0,1.736076919E0,3.399431237E0
9.943496292E0,9.137319647E-1,4.685400215E0,1.679736657E0,5.060572746E0
9.953498292E0,4.044631626E-1,6.421856618E0,2.831653051E-1,6.440808603E0
9.963501292E0,6.595271878E-1,7.959073825E0,-1.038367413E0,8.053573068E0
9.973503292E0,1.624050260E0,9.422385736E0,-1.331124637E0,9.653537434E0
9.983506292E0,2.491299199E0,1.101566078E1,-1.169066570E0,1.135420939E1
9.993508292E0,3.056282611E0,1.254484099E1,-8.627834205E-1,1.294056777E1
1.000351029E1,3.459919124E0,1.390384852E1,-6.911278801E-1,1.434453560E1
1.001351329E1,3.743587143E0,1.499178614E1,-9.843941040E-1,1.548344691E1
1.002351529E1,3.682511514E0,1.591207122E1,-1.119995567E0,1.637098933E1
1.003351829E1,3.147920467E0,1.629823772E1,-1.065542932E0,1.663362070E1
1.004352029E1,2.273619348E0,1.585577306E1,-2.682177754E-1,1.602020053E1
1.005352329E1,1.745360835E0,1.495739983E1,1.041534265E0,1.509486296E1
1.006352529E1,1.749057738E0,1.381464573E1,3.472312882E0,1.435132734E1
1.007352829E1,1.513580423E0,1.260505796E1,6.057937610E0,1.406687669E1
1.008353029E1,9.504805456E-1,1.151501066E1,6.806418636E0,1.340992985E1
1.009353329E1,1.108540871E0,1.107014163E1,6.264313917E0,1.276787091E1
1.010353529E1,1.778319397E0,1.099476868E1,5.583246610E0,1.245873192E1
1.011353729E1,2.219524270E0,1.085082544E1,4.782525390E0,1.206396493E1
1.012354029E1,2.378700245E0,1.053090556E1,3.158980476E0,1.124888192E1
1.013354317E1,2.197528946E0,1.010788757E1,1.180818158E0,1.041118899E1
1.014354617E1,1.669853986E0,9.602060148E0,-2.193454313E-1,9.748645230E0
1.015354817E1,8.368244143E-1,8.904789621E0,-6.002716506E-1,8.964144095E0
1.016355117E1,2.041068564E-1,8.193733699E0,-2.756108487E-1,8.200908052E0
1.017355317E1,1.234161575E-1,7.585661863E0,-1.189172367E-1,7.587597693E0
1.018355617E1,1.121519351E-1,7.075786412E0,-5.250823045E-1,7.096128722E0
1.019355817E1,2.846291555E-1,6.888112425E0,-1.615514349E0,7.080748064E0
1.020356017E1,5.351560338E-1,7.073418290E0,-2.704491606E0,7.591700279E0
1.021356317E1,8.899910997E-1,7.543920345E0,-3.243632956E0,8.259780450E0
1.022356517E1,1.698953678E0,8.154494205E0,-3.299512457E0,8.959296947E0
1.023356817E1,1.833299597E0,8.558543823E0,-2.801143742E0,9.189998152E0
1.024357017E1,2.343205599E0,9.132449208E0,-1.990983946E0,9.636195209E0
1.025357317E1,3.140382237E0,9.587546189E0,-3.176511232E-1,1.009375771E1
1.026357517E1,3.289424840E0,9.778824400E0,1.457605612E0,1.041970904E1
1.027357817E1,2.952542481E0,9.864568555E0,2.863520669E0,1.068770183E1
1.028358017E1,2.563062662E0,1.002504539E1,3.407975968E0,1.089427030E1
1.029358317E1,2.102048007E0,1.067492131E1,5.706869613E0,1.228580122E1
1.030358517E1,1.308358795E0,1.091642184E1,7.089681151E0,1.308218817E1
1.031358717E1,2.267875481E0,9.995581269E0,6.173382697E0,1.196518107E1
1.032359017E1,2.955227230E0,5.693201162E0,4.005338044E0,7.562317125E0
1.033359217E1,-1.894671534E0,-4.085030916E0,3.462390742E0,5.680264734E0
1.034359517E1,-1.053594235E1,-2.549546004E1,7.177500483E0,2.850510616E1
1.035359717E1,-1.132396225E1,-4.555418365E1,9.420345350E-1,4.695000743E1
1.036360017E1,5.125412548E0,-3.814060651E1,-1.079192760E1,3.996800496E1
1.037360217E1,8.898799734E0,-1.896568020E1,-9.077766048E0,2.283180892E1
1.038360517E1,2.421676841E0,-1.448146572E1,1.294433212E0,1.473950221E1
1.039360717E1,-2.381585992E0,-1.848788666E1,8.790588237E0,2.060942373E1
1.040361017E1,-5.340770178E0,-2.441618098E1,1.106146086E1,2.733184289E1
1.041361217E1,-4.868302875E0,-2.774049148E1,8.614077753E0,2.945229322E1
1.042361417E1,-2.179020023E0,-2.788115443E1,3.722784212E0,2.821286981E1
1.043361717E1,-4.851059509E-1,-2.711862372E1,5.352552903E-1,2.712824319E1
1.044361917E1,6.673664767E-1,-2.448326725E1,-6.388578652E-1,2.450069168E1
1.045362217E1,1.237231363E-1,-2.266844354E1,-6.637993097E-1,2.267849796E1
1.046362417E1,-9.840019751E-1,-2.149006820E1,-3.351751189E-1,2.151519541E1
1.047362717E1,-2.210612091E0,-1.979076676E1,2.986599880E-1,1.991608528E1
1.048362917E1,-3.624710325E0,-1.697623524E1,1.521264249E0,1.742542202E1
1.049363217E1,-4.310358633E0,-1.325234590E1,2.558027040E0,1.416853436E1
1.050363417E1,-4.113826699E0,-9.221142699E0,2.670550858E0,1.044437096E1
1.051363717E1,-3.352756618E0,-5.565583926E0,1.959521248E0,6.786488407E0
1.052363917E1,-2.592291431E0,-2.570923074E0,9.326104313E-1,3.768206806E0
1.053364117E1,-1.820620348E0,-1.448238373E-1,3.733061278E-1,1.864132469E0
1.054364417E1,-7.061192639E-1,2.039144538E0,-2.564120094E-2,2.158094607E0
1.055364617E1,5.058367789E-1,4.257584004E0,-6.521399617E-2,4.288023468E0
1.056364917E1,1.698671988E0,6.506234863E0,8.422450025E-2,6.724854823E0
1.057365117E1,2.244266471E0,8.002889351E0,-1.421517328E-1,8.312832073E0
1.058365417E1,2.358356173E0,9.225925137E0,-2.278508643E-1,9.525306005E0
1.059365617E1,2.920494184E0,1.079637383E1,-2.124643549E-1,1.118642549E1
1.060365917E1,3.202480837E0,1.266914461E1,-7.867187463E-2,1.306787274E1
1.061366117E1,3.360338702E0,1.461888815E1,6.130862622E-1,1.501264939E1
1.062366417E1,3.259110535E0,1.616955103E1,1.615923508E0,1.657369575E1
1.063366617E1,3.365573714E0,1.657728907E1,1.918101765E0,1.702388656E1
1.064366817E1,3.835962918E0,1.656625537E1,1.840173876E0,1.710384952E1
1.065367117E1,4.346173706E0,1.611380133E1,1.781203390E0,1.678441256E1
1.066367317E1,4.818451268E0,1.474841099E1,2.435544098E0,1.570557144E1
1.067367617E1,4.593077357E0,1.301256211E1,3.486249136E0,1.423295701E1
1.068367817E1,3.463335359E0,1.134376209E1,3.944438124E0,1.249936887E1
1.069368117E1,1.987759061E0,1.023360271E1,3.468330928E0,1.098667966E1
1.070368317E1,9.897985393E-1,9.723132595E0,2.188524087E0,1.001542042E1
1.071368617E1,5.100589071E-1,9.432976213E0,1.462715055E0,9.559327155E0
1.072368817E1,3.109628221E-1,9.082367806E0,8.181399290E-1,9.124442766E0
1.073369117E1,2.911258507E-1,8.689360070E0,-2.049355531E-1,8.696650578E0
1.074369317E1,2.976393566E-2,8.575574423E0,-5.811323981E-1,8.595293912E0
1.075369517E1,-8.358448595E-2,8.575626463E0,8.681375697E-2,8.576473181E0
1.076369817E1,1.938688204E-1,8.514283909E0,1.390125235E0,8.629198327E0
1.077370017E1,9.540140180E-1,8.618170804E0,2.010319519E0,8.900808690E0
1.078370317E1,1.140266986E0,8.742004307E0,1.297052034E-1,8.817010352E0
1.079370517E1,1.008420898E0,8.544602306E0,-1.370925318E0,8.712438092E0
1.080370817E1,7.137257606E-1,8.199932333E0,-1.263632419E0,8.327368228E0
1.081371017E1,4.724870382E-1,7.976739433E0,-8.572860146E-1,8.036576093E0
1.082371317E1,5.386631937E-1,7.863869460E0,-6.685612822E-1,7.910598910E0
1.083371517E1,1.277470440E0,7.909702275E0,-1.034547865E0,8.078713394E0
1.084371817E1,1.548472805E0,8.013846449E0,-2.368136373E0,8.498680651E0
1.085372017E1,6.103399712E-1,8.020364340E0,-2.921528556E0,8.557691753E0
1.086372217E1,-3.891865808E-1,8.176920615E0,-2.565316179E0,8.578714592E0
1.087372517E1,-8.861032860E-1,8.794084287E0,-1.794467214E0,9.018936194E0
1.088372717E1,-8.870825484E-1,9.600733999E0,-8.035968804E-1,9.675059520E0
1.089373017E1,-1.227502620E0,1.006633726E1,-2.782596374E-1,1.014471965E1
1.090373217E1,-1.521977756E0,1.071847254E1,1.510893627E0,1.093091348E1
1.091373517E1,-1.829933501E0,1.094785179E1,5.345699966E0,1.231992791E1
1.092373717E1,-1.639929836E0,1.013410298E1,8.173786508E0,1.312250734E1
1.093374017E1,-9.095921360E-1,7.260432712E0,7.841237812E0,1.072502920E1
1.094374217E1,-2.333769947E0,6.532298827E-1,7.790903810E0,8.159128239E0
1.095374517E1,-4.999119707E0,-1.009225913E1,9.986471307E0,1.505239188E1
1.096374717E1,-1.015452029E1,-2.834723132E1,1.278331968E1,3.271227702E1
1.097374917E1,-8.647122708E0,-4.978340924E1,6.703439228E0,5.097152798E1
1.098375217E1,7.996202475E0,-5.085332808E1,-7.786348829E0,5.206368657E1
1.099375417E1,1.759993785E1,-2.697423491E1,-1.794253557E1,3.686870956E1
1.100375717E1,5.072679434E0,-1.745331658E1,-1.173112726E1,2.163260694E1
1.101375917E1,2.740259609E-1,-1.666914298E1,5.147782826E0,1.744806826E1
1.102376217E1,-1.240017708E0,-2.125951717E1,1.577182342E1,2.650009676E1
1.103376417E1,-4.559569888E0,-2.771888952E1,1.684736962E1,3.275607390E1
1.104376717E1,-2.404624752E0,-2.580608051E1,8.578400382E0,2.730064037E1
1.105376917E1,-9.481632940E-1,-2.506720061E1,3.627381041E0,2.534603427E1
1.106377217E1,-1.484884774E0,-2.334206150E1,1.575301877E0,2.344223312E1
1.107377417E1,-2.203040092E0,-2.053286263E1,1.452652436E0,2.070173984E1
1.108377617E1,-2.629895167E0,-1.846132042E1,1.926613119E0,1.874696078E1
1.109377917E1,-3.016192054E0,-1.608591012E1,-3.581653841E-1,1.637016192E1
1.110378117E1,-3.488731279E0,-1.281058291E1,-2.898043215E0,1.358973638E1
1.111378417E1,-3.718691745E0,-9.412533762E0,-3.336910079E0,1.065642665E1
1.112378617E1,-3.239063357E0,-6.003161479E0,-2.099393663E0,7.137011484E0
1.113378950E1,-2.140753797E0,-2.670104131E0,-1.428919172E-1,3.425303050E0
1.114379150E1,-8.611672501E-1,3.458780086E-1,8.578322176E-1,1.263770843E0
1.115379450E1,2.754602829E-1,2.786247960E0,1.309816067E0,3.091063602E0
1.116379650E1,1.019208426E0,5.128772943E0,2.234169791E0,5.686353170E0
1.117379950E1,1.527833742E0,7.545724211E0,3.123731121E0,8.308424997E0
1.118380150E1,1.646151274E0,9.781759118E0,3.474705563E0,1.051029040E1
1.119380350E1,1.715583159E0,1.141263059E1,2.509274125E0,1.181049615E1
1.120380650E1,1.761552945E0,1.274000234E1,6.023227076E-1,1.287530664E1
1.121380850E1,2.091829998E0,1.441576991E1,-2.044150047E-1,1.456818315E1
1.122381150E1,2.812064002E0,1.594690075E1,5.167642017E-1,1.620118492E1
1.123381350E1,3.276550441E0,1.688734586E1,1.438337721E0,1.726230137E1
1.124381650E1,3.365262643E0,1.764303534E1,1.423644984E0,1.801744859E1
1.125381850E1,3.204474445E0,1.785389295E1,4.755655973E-1,1.814542126E1
1.126382150E1,3.335925992E0,1.689862397E1,-5.773482263E-1,1.723441979E1
1.127382350E1,3.531561549E0,1.515097308E1,5.391938286E-1,1.556645888E1
1.128382650E1,3.742583176E0,1.339506942E1,2.913095702E0,1.420988882E1
1.129382850E1,3.570475646E0,1.186535945E1,4.823317906E0,1.329659531E1
1.130383150E1,2.619080157E0,1.025744999E1,5.052956775E0,1.173061095E1
1.131383350E1,1.427206377E0,8.928364425E0,4.516716814E0,1.010709356E1
1.132383550E1,6.669319555E-1,8.490994449E0,4.133690275E0,9.467268891E0
1.133383850E1,7.800007340E-1,8.772292884E0,3.474050674E0,9.467341320E0
1.134384050E1,1.274068968E0,9.022912148E0,2.210140074E0,9.376615302E0
1.135384350E1,1.446678628E0,9.061141829E0,7.885229778E-1,9.209719799E0
1.136384550E1,1.145634292E0,8.911626770E0,-4.427779202E-1,8.995866935E0
1.137384850E1,9.071765050E-1,8.572642044E0,-1.090306841E0,8.689184648E0
1.138385050E1,1.052854328E0,8.289129269E0,-1.256449699E0,8.449664615E0
1.139385350E1,1.197916878E0,7.798155527E0,-9.587012192E-1,7.947662707E0
1.140385550E1,1.591019339E0,7.421281428E0,-5.365263288E-1,7.608851495E0
1.141385850E1,1.908658658E0,7.283784737E0,-3.660030285E-1,7.538597760E0
1.142386050E1,1.983821400E0,7.431047448E0,-2.818217611E-1,7.696456134E0
1.143386250E1,2.181968774E0,7.779145644E0,-4.131619191E-1,8.089919496E0
1.144386550E1,2.615342909E0,8.134708981E0,-9.293283892E-1,8.595182371E0
1.145386750E1,2.879981458E0,8.061921671E0,-1.605799785E0,8.710193292E0
1.146387050E1,3.050545323E0,8.026481697E0,-2.295241474E0,8.888102645E0
1.147387250E1,2.964848238E0,8.101280449E0,-2.535342182E0,8.991608864E0
1.148387550E1,2.402286305E0,8.404819354E0,-2.234870142E0,9.022561300E0
1.149387750E1,2.086894071E0,9.097148983E0,-1.530140322E0,9.458042920E0
1.150388050E1,2.187878408E0,9.619686579E0,-5.476994077E-1,9.880544340E0
1.151388250E1,2.627027400E0,1.005037202E1,2.449415009E0,1.067290422E1
1.152388550E1,1.707849485E0,1.017946451E1,7.627381747E0,1.283414196E1
1.153388750E1,1.312191206E0,8.608629903E0,9.080387939E0,1.258108897E1
1.154388950E1,2.020679470E0,4.561628693E0,7.977973781E0,9.409551928E0
1.155389250E1,-4.970475367E-1,-3.442930623E0,7.602487811E0,8.360541157E0
1.156389450E1,-8.978790228E0,-1.932936532E1,9.628163288E0,2.338684600E1
1.157389750E1,-1.306277449E1,-3.698640590E1,7.169694450E0,3.987524066E1
1.158389950E1,-1.006777684E0,-4.123202943E1,-1.367497095E0,4.126698318E1
1.159390250E1,8.586588238E0,-2.706784884E1,-6.585251212E0,2.915070277E1
1.160390450E1,5.198963504E0,-1.967070238E1,-5.813176087E0,2.116031119E1
1.161390750E1,1.877165847E0,-1.974001293E1,2.018382245E0,1.993152601E1
1.162390950E1,8.609422785E-1,-2.230395852E1,7.889990727E0,2.367403094E1
1.163391250E1,4.038637499E-1,-2.629882771E1,7.764751554E0,2.742412828E1
1.164391450E1,-5.211235933E-2,-2.679878336E1,2.637602382E0,2.692832063E1
1.165391750E1,-4.245904483E-2,-2.509391771E1,1.067952424E0,2.511666839E1
1.166391950E1,-1.531886009E0,-2.338323993E1,2.944454904E0,2.361762899E1
1.167392150E1,-2.669350132E0,-2.148392629E1,4.213492489E0,2.205534035E1
1.168392450E1,-3.198180209E0,-1.899483441E1,3.892506078E0,1.965155705E1
1.169392650E1,-3.805005419E0,-1.634113406E1,3.582352803E0,1.715645594E1
1.170392950E1,-3.780292747E0,-1.355706419E1,3.722196566E0,1.455813690E1
1.171393150E1,-3.136948459E0,-1.151888854E1,3.925285569E0,1.256714389E1
1.172393450E1,-2.317275244E0,-1.002081785E1,3.801416398E0,1.096527800E1
1.173393650E1,-1.613328806E0,-8.372697090E0,3.037723256E0,9.051665536E0
1.174393950E1,-1.380694700E0,-6.052076361E0,1.826473703E0,6.470699524E0
1.175394150E1,-1.110618095E0,-2.958363676E0,1.241387272E-1,3.162403930E0
1.176394450E1,-5.096313295E-1,2.352691537E-1,-1.342507850E0,1.455129889E0
1.177394650E1,2.166687222E-1,3.095658054E0,-1.584202509E0,3.484213213E0
1.178394850E1,8.299384408E-1,5.548995375E0,-6.512968663E-1,5.648392258E0
1.179395150E1,1.405457219E0,7.439775587E0,2.837291960E-1,7.576679552E0
1.180395350E1,1.571027270E0,8.923058077E0,1.337528361E0,9.158497379E0
1.181395650E1,1.582335785E0,1.038495087E1,1.702599270E0,1.064189059E1
1.182395850E1,1.492037234E0,1.207485817E1,8.636455194E-1,1.219730538E1
1.183396150E1,1.171164112E0,1.371154295E1,-4.126040947E-1,1.376765331E1
1.184396350E1,8.010792156E-1,1.522284003E1,-8.078080451E-1,1.526529202E1
1.185396650E1,8.487166277E-1,1.632037879E1,-6.767133240E-1,1.635643679E1
1.186396850E1,1.237160320E0,1.704414714E1,-7.603648337E-1,1.710589583E1
1.187397150E1,1.811052403E0,1.728273693E1,-1.267230649E0,1.742351227E1
1.188397350E1,2.954267409E0,1.622969081E1,-1.257951264E0,1.654427397E1
1.189397550E1,3.153993385E0,1.422425956E1,5.301553488E-2,1.456983339E1
1.190397850E1,3.147397726E0,1.274721079E1,1.785065038E0,1.325080950E1
1.191398050E1,3.544699073E0,1.138503407E1,3.580300430E0,1.244999773E1
1.192398350E1,3.395941521E0,9.949128649E0,5.047601895E0,1.166172648E1
1.193398550E1,2.729803910E0,8.800537859E0,4.838803672E0,1.040746448E1
1.194398850E1,2.056619234E0,8.326197107E0,3.377695577E0,9.217595584E0
1.195399050E1,1.847892785E0,8.296868058E0,1.926174577E0,8.715668410E0
1.196399350E1,1.670095914E0,8.296847593E0,7.788585535E-1,8.499030591E0
1.197399550E1,1.251424602E0,8.555468772E0,-3.099561509E-1,8.652062313E0
1.198399850E1,1.374674845E0,9.088057147E0,-9.802447005E-1,9.243559559E0
1.199400050E1,1.401696437E0,9.340568570E0,-7.695367762E-1,9.476452974E0
1.200400250E1,1.303657634E0,9.446406097E0,-3.894877855E-1,9.543888731E0
1.201400550E1,1.274047772E0,9.379563067E0,-5.817336746E-1,9.483554983E0
1.202400750E1,1.178571511E0,9.058929827E0,-1.119675139E0,9.203635849E0
1.203401050E1,1.148093484E0,8.609363728E0,-1.599316392E0,8.831595290E0
1.204401250E1,1.012744475E0,8.125015467E0,-1.775916338E0,8.378269902E0
1.205401550E1,9.235042700E-1,7.954510658E0,-1.805814321E0,8.209023408E0
1.206401750E1,1.102166968E0,8.090501107E0,-1.842822518E0,8.370601831E0
1.207402050E1,1.244784797E0,8.433482990E0,-1.744990414E0,8.701615716E0
1.208402250E1,1.526773057E0,8.845997037E0,-1.451285942E0,9.093345393E0
1.209402550E1,2.190875106E0,9.451597255E0,-5.939309299E-1,9.720358963E0
1.210402750E1,3.018184785E0,9.805218147E0,7.807822144E-1,1.028889514E1
1.211403050E1,2.848752941E0,9.697567399E0,3.248100228E0,1.061641945E1
1.212403250E1,1.945396276E0,1.027490744E1,6.502570413E0,1.231428892E1
1.213403425E1,9.886934155E-1,1.110348596E1,7.689432399E0,1.354224080E1
1.214403725E1,5.059677565E-1,1.109900232E1,8.087500316E0,1.374232576E1
1.215403925E1,5.767746145E-1,9.259686960E0,7.861938710E0,1.216077924E1
1.216404225E1,-2.217895382E0,4.570749180E0,5.827822192E0,7.731385354E0
1.217404425E1,-7.297087737E0,-5.299392357E0,4.634393198E0,1.013946000E1
1.218404725E1,-1.380222391E1,-2.491391936E1,8.461112253E0,2.971186940E1
1.219404925E1,-8.623619825E0,-4.499115292E1,5.843240131E0,4.618131781E1
1.220405225E1,1.658123243E1,-4.248652382E1,-8.042686086E0,4.631119492E1
1.221405425E1,1.357168574E1,-2.301990798E1,-1.799889688E1,3.221904881E1
1.222405725E1,2.425834065E0,-1.382871413E1,-5.536872343E0,1.509221524E1
1.223405925E1,5.072969017E-1,-1.530233410E1,8.222669815E0,1.737904134E1
1.224406125E1,-2.575307316E0,-2.011996033E1,1.398659597E1,2.463878808E1
1.225406425E1,-4.331895390E0,-2.347245207E1,1.136555583E1,2.643666361E1
1.226406625E1,-2.212294334E0,-2.511513141E1,4.306399191E0,2.557751250E1
1.227406925E1,-1.104983791E0,-2.679238651E1,-5.129177570E-2,2.681521200E1
1.228407125E1,-1.146957736E0,-2.617662558E1,-3.062528315E0,2.638011218E1
1.229407425E1,-1.683204641E0,-2.376908132E1,-3.234417744E0,2.404711755E1
1.230407625E1,-3.033534896E0,-2.088382889E1,-1.640406530E0,2.116666191E1
1.231407925E1,-4.134350718E0,-1.851296303E1,-2.328336422E-1,1.897042086E1
1.232408125E1,-4.324446330E0,-1.678881326E1,1.016052538E0,1.736656125E1
1.233408425E1,-3.498238851E0,-1.498611785E1,2.231714984E0,1.554998248E1
1.234408625E1,-1.718843859E0,-1.288128510E1,3.159407322E0,1.337399659E1
1.235408925E1,1.968323354E-1,-1.040548278E1,3.534954103E0,1.099130181E1
1.236409125E1,1.599777591E0,-7.407550997E0,3.306407493E0,8.268218104E0
1.237409325E1,2.040798715E0,-4.008175113E0,2.715473846E0,5.253962823E0
1.238409625E1,2.118692399E0,-8.498237979E-1,1.661535444E0,2.823430183E0
1.239409825E1,1.771870649E0,1.936665652E0,1.497950816E0,3.022260097E0
1.240410125E1,1.130496143E0,4.539195850E0,2.530828131E0,5.318591122E0
1.241410325E1,6.122020170E-1,7.148725165E0,3.677697501E0,8.062538168E0
1.242410625E1,2.672447987E-1,9.526413549E0,3.301281824E0,1.008575414E1
1.243410825E1,-2.247427037E-1,1.118879216E1,1.133519007E0,1.124830852E1
1.244411125E1,-4.727082092E-1,1.243010576E1,-1.906426191E-1,1.244055171E1
1.245411325E1,-1.732170394E-1,1.353266025E1,-5.940280668E-1,1.354679914E1
1.246411625E1,4.275409533E-1,1.480461677E1,-3.331511052E-1,1.481453538E1
1.247411825E1,1.419968839E0,1.601697378E1,8.592717290E-2,1.608002314E1
1.248412125E1,2.047021322E0,1.684966641E1,-5.641744494E-2,1.697364832E1
1.249412325E1,1.995540097E0,1.746578518E1,-4.073707636E-1,1.758413442E1
1.250412525E1,1.993181915E0,1.738376746E1,-1.389575597E0,1.755275094E1
1.251412825E1,2.462223920E0,1.624788617E1,-2.507075572E0,1.662353090E1
1.252413025E1,2.290566333E0,1.448427121E1,-2.816738266E0,1.493234145E1
1.253413325E1,2.342038495E0,1.246332964E1,-2.755213863E0,1.297732382E1
1.254413525E1,2.077845797E0,1.046052379E1,-2.033917712E0,1.085710930E1
1.255413825E1,2.104445219E0,8.822308797E0,-5.637438751E-1,9.087333457E0
1.256414025E1,2.030676016E0,7.591952298E0,1.698464266E0,8.040283927E0
1.257414325E1,1.969183334E0,7.023628664E0,4.467438819E0,8.553774150E0
1.258414525E1,2.082547835E0,7.183250050E0,6.099180361E0,9.650704008E0
1.259414825E1,1.254044593E0,7.680815358E0,6.055976454E0,9.861156282E0
1.260415025E1,6.434691256E-1,8.674495863E0,4.551025937E0,9.816963282E0
1.261415225E1,9.834904169E-1,9.534679173E0,2.555812114E0,9.920158058E0
1.262415525E1,6.939804442E-1,9.884066681E0,4.909030632E-1,9.920552849E0
1.263415725E1,1.564858165E-1,9.897040483E0,-7.302143240E-1,9.925175620E0
1.264416025E1,1.282025421E-1,9.491168872E0,-8.048739123E-1,9.526098071E0
1.265416225E1,4.274181618E-1,9.002208912E0,-4.853878963E-1,9.025411513E0
1.266416525E1,9.137240709E-1,8.934826183E0,-6.424499559E-1,9.004374079E0
1.267416725E1,1.598680946E0,9.120924346E0,-8.372874407E-1,9.297746606E0
1.268417025E1,2.636591983E0,9.331070353E0,-6.132256452E-1,9.715788024E0
1.269417225E1,3.763866456E0,9.665242236E0,4.467038870E-2,1.037234755E1
1.270417525E1,4.363823819E0,1.010670526E1,7.812336195E-1,1.103624826E1
1.271417725E1,5.226969329E0,1.080910321E1,1.082401405E0,1.205526912E1
1.272417925E1,6.104853330E0,1.133078478E1,9.805640316E-1,1.290803717E1
1.273418225E1,6.558144105E0,1.196235307E1,6.108480942E-1,1.365577828E1
1.274418425E1,6.063204782E0,1.225291758E1,7.985016167E-1,1.369430708E1
1.275418725E1,4.131638195E0,1.173517704E1,1.484765929E0,1.252953887E1
1.276418925E1,4.004016573E0,1.058611497E1,8.581560802E-1,1.135052469E1
1.277419225E1,5.140245180E0,7.309441735E0,-4.415039581E-1,8.946786279E0
1.278419425E1,2.781071127E0,-5.204004389E-1,-2.863883781E0,4.025792288E0
1.279419725E1,-7.979583519E0,-2.025395512E1,-4.733467251E-1,2.177430845E1
1.280419925E1,-1.734528459E1,-4.449362971E1,6.758100754E0,4.823083980E1
1.281420225E1,-4.599207578E0,-3.992917155E1,1.841849542E0,4.023535585E1
1.282420425E1,4.548432696E0,-1.964413029E1,-6.915037683E0,2.131660951E1
1.283420725E1,3.061809107E0,-1.286340081E1,-4.311003581E0,1.390778585E1
1.284420925E1,2.646481964E0,-1.541870188E1,5.961262670E0,1.674147207E1
1.285421125E1,7.399003829E-1,-2.046974778E1,1.007150853E1,2.282527790E1
1.286421425E1,-2.164910838E0,-2.650729498E1,9.737857638E0,2.832224210E1
1.287421625E1,-2.909811321E0,-2.831759529E1,7.903244610E0,2.954343379E1
1.288421925E1,-3.159566367E0,-2.668323069E1,4.847858085E0,2.730346842E1
1.289422125E1,-3.326415788E0,-2.511199964E1,2.747857481E0,2.547995857E1
1.290422425E1,-2.624207581E0,-2.285268229E1,1.415540158E0,2.304637297E1
1.291422625E1,-2.146099906E0,-2.091052493E1,-4.112926374E-1,2.102438963E1
1.292422925E1,-2.378754624E0,-1.986408617E1,-1.272102111E0,2.004641207E1
1.293423125E1,-2.887650374E0,-1.815783590E1,-3.161963725E-1,1.838873322E1
1.294423425E1,-2.713646007E0,-1.544484946E1,6.967208149E-1,1.569689999E1
1.295423625E1,-2.288623449E0,-1.204245524E1,1.644232364E0,1.236778176E1
1.296423825E1,-2.087543550E0,-8.785133370E0,1.927086743E0,9.233096431E0
1.297424125E1,-2.087929466E0,-5.548118877E0,1.395574840E0,6.090049398E0
1.298424325E1,-2.092201003E0,-2.215997084E0,1.120838735E0,3.247187642E0
1.299424625E1,-1.647092822E0,9.424887174E-1,1.583880912E0,2.471816840E0
1.300424825E1,-8.466187929E-1,3.879298972E0,2.096624422E0,4.490162342E0
1.301425125E1,2.062634557E-2,6.508614095E0,1.710325781E0,6.729613449E0
1.302425325E1,5.896282563E-1,8.267896859E0,1.211577070E0,8.376974331E0
1.303425625E1,9.576654580E-1,9.470961480E0,5.997255206E-1,9.538129019E0
1.304425825E1,1.225237847E0,1.056828798E1,2.263433059E-1,1.064148250E1
1.305426125E1,2.043484049E0,1.193499394E1,-1.908426670E-1,1.211017458E1
1.306426325E1,2.909976797E0,1.327156804E1,-4.523148751E-1,1.359437648E1
1.307426625E1,3.427568526E0,1.451818740E1,4.674381137E-2,1.491737833E1
1.308426825E1,3.664477824E0,1.553358563E1,1.068371523E0,1.599568998E1
1.309427025E1,3.769398215E0,1.618060928E1,1.158893584E0,1.665423411E1
1.310427325E1,3.771729500E0,1.645283693E1,7.557526231E-1,1.689653658E1
1.311427525E1,3.460519340E0,1.593855560E1,2.065973318E-1,1.631120570E1
1.312427825E1,3.393323430E0,1.456309518E1,8.006957844E-2,1.495342089E1
1.313428000E1,2.953115508E0,1.280719153E1,5.988262188E-1,1.315688561E1
1.314428300E1,2.142790529E0,1.137478858E1,1.575924021E0,1.168164813E1
1.315428500E1,1.166308438E0,1.040374265E1,2.395275493E0,1.073943579E1
1.316428800E1,1.247819209E-1,9.732126197E0,2.781142756E0,1.012248022E1
1.317429000E1,-4.918198335E-1,9.499353220E0,2.701180912E0,9.888173576E0
1.318429200E1,-1.218220603E-1,9.713967669E0,2.641757998E0,1.006751676E1
1.319429500E1,4.174830115E-1,9.900472798E0,2.571732913E0,1.023755165E1
1.320429700E1,8.680605327E-1,1.005069712E1,2.183561994E0,1.032172392E1
1.321430000E1,7.276691772E-1,1.004830912E1,1.473425839E0,1.018179760E1
1.322430200E1,6.763503581E-1,9.842225175E0,1.326298199E0,9.954190731E0
1.323430500E1,9.284054062E-1,9.420711093E0,1.609317470E0,9.602168339E0
1.324430700E1,9.346932095E-1,8.968938255E0,1.732282076E0,9.182391083E0
1.325431000E1,1.109696135E0,8.732031296E0,1.121859659E0,8.873464101E0
1.326431200E1,1.347025409E0,8.577481200E0,2.366941567E-1,8.685832448E0
1.327431500E1,1.336402041E0,8.616134804E0,-3.702410173E-1,8.727017118E0
1.328431700E1,2.059359532E0,8.973406697E0,-6.470224786E-1,9.229389336E0
1.329431900E1,3.055167255E0,9.270747553E0,-6.001558757E-1,9.779621374E0
1.330432200E1,3.951427885E0,9.467440871E0,-3.114039946E-1,1.026368313E1
1.331432400E1,4.408194246E0,9.518724461E0,-5.798847485E-1,1.050592967E1
1.332432700E1,3.803052157E0,9.220256846E0,-1.368728519E0,1.006726178E1
1.333432900E1,3.096238975E0,9.022548451E0,-1.955563853E0,9.737417847E0
1.334433200E1,3.741425720E0,9.576797252E0,-1.299806803E0,1.036353269E1
1.335433400E1,3.919202710E0,9.878011304E0,8.740762943E-1,1.066298582E1
1.336433700E1,4.047552310E0,9.753446900E0,2.066790758E0,1.076029880E1
1.337433900E1,5.982477538E0,8.673402434E0,2.473034837E0,1.082283921E1
1.338434100E1,5.697456180E0,3.429060443E0,2.384408004E0,7.064337476E0
1.339434400E1,-3.198767855E0,-1.105965640E1,5.755129023E0,1.287127133E1
1.340434600E1,-1.074965925E1,-3.393949667E1,9.858480434E0,3.694095620E1
1.341434900E1,-6.175709889E0,-4.296356774E1,2.208572289E0,4.346130851E1
1.342435100E1,5.037619529E0,-2.830302871E1,-7.866999475E0,2.980484399E1
1.343435400E1,8.078475723E0,-1.244180019E1,-6.248868497E0,1.609684812E1
1.344435600E1,5.120402069E0,-1.471325285E1,3.474881564E0,1.596161423E1
1.345435900E1,1.743076036E0,-1.974766811E1,1.158787632E1,2.296274346E1
1.346436100E1,-1.295526057E0,-2.261262368E1,1.202829913E1,2.564545023E1
1.347436400E1,-5.494842557E0,-2.591412302E1,7.357015851E0,2.749292180E1
1.348436600E1,-5.296611421E0,-2.607552722E1,3.668912060E0,2.685978645E1
1.349436800E1,-3.205941803E0,-2.586887259E1,2.692641639E0,2.620547559E1
1.350437100E1,-1.851871962E0,-2.573032866E1,8.237324984E-1,2.581003251E1
1.351437300E1,-1.315489328E0,-2.408285460E1,-1.461154287E0,2.416297519E1
1.352437600E1,-1.549960922E0,-2.158792487E1,-1.148099039E0,2.167392466E1
1.353437800E1,-1.821405191E0,-1.903404701E1,2.438091584E-1,1.912254966E1
1.354438100E1,-1.485976887E0,-1.642022818E1,2.126789623E0,1.662393620E1
1.355438300E1,-1.071930358E0,-1.403122075E1,3.885306986E0,1.459862325E1
1.356438600E1,-7.708830245E-1,-1.150408105E1,4.600233765E0,1.241371387E1
1.357438800E1,-9.481158585E-1,-8.597749988E0,3.860614194E0,9.472305448E0
1.358439000E1,-1.873557384E0,-5.773893322E0,2.016282510E0,6.396362758E0
1.359439300E1,-2.716543594E0,-2.997734733E0,2.696209427E-1,4.054468903E0
1.360439500E1,-2.643364229E0,1.883662981E-1,-7.832082242E-1,2.763380435E0
1.361439800E1,-1.446040112E0,3.415509521E0,-3.117618442E-1,3.722087148E0
1.362440000E1,-4.400430313E-1,5.936530702E0,7.641188192E-1,6.001659122E0
1.363440300E1,2.678665039E-1,7.988629746E0,8.017304492E-1,8.033226587E0
1.364440500E1,7.527081241E-1,9.370044385E0,3.462171471E-1,9.406602341E0
1.365440800E1,1.248499240E0,1.042172050E1,8.492737211E-2,1.049658140E1
1.366441000E1,2.156665094E0,1.159632906E1,2.454602659E-1,1.179772447E1
1.367441300E1,2.976383625E0,1.331290551E1,1.016498680E0,1.367938530E1
1.368441500E1,3.356928021E0,1.541696993E1,1.907343035E0,1.589307664E1
1.369441700E1,3.759661431E0,1.673043115E1,1.661731765E0,1.722799272E1
1.370442000E1,3.963862574E0,1.708031568E1,4.141313875E-1,1.753912469E1
1.371442200E1,3.547371543E0,1.683404148E1,-4.511582959E-1,1.720965837E1
1.372442500E1,4.117776493E0,1.527888443E1,-5.502345411E-1,1.583360826E1
1.373442700E1,5.348721807E0,1.288318428E1,4.322891848E-1,1.395607882E1
1.374443000E1,5.631440531E0,1.140874921E1,3.002438818E0,1.307238769E1
1.375443200E1,4.970720950E0,1.044259038E1,5.897473640E0,1.298213988E1
1.376443500E1,4.230816035E0,9.734701311E0,6.632717739E0,1.251627575E1
1.377443700E1,3.507532416E0,9.666461381E0,5.545044411E0,1.168292672E1
1.378443900E1,3.239786657E0,1.017209702E1,4.223805224E0,1.148077984E1
1.379444200E1,3.325179394E0,1.061723385E1,3.500179542E0,1.166334984E1
1.380444400E1,3.315716261E0,1.074301097E1,3.389568933E0,1.174288876E1
1.381444700E1,2.851622170E0,1.071520512E1,2.124613874E0,1.128987838E1
1.382444900E1,2.401645596E0,1.050355696E1,-3.237802112E-1,1.077949182E1
1.383445200E1,1.997149251E0,9.865953176E0,-1.531696851E0,1.018193167E1
1.384445400E1,1.366168462E0,8.703834268E0,-1.354608078E0,8.913927881E0
1.385445700E1,1.030868066E0,7.750507736E0,-1.207728360E0,7.911489552E0
1.386445900E1,1.375681443E0,7.305193732E0,-1.549173009E0,7.593305730E0
1.387446100E1,1.060608613E0,7.236332243E0,-2.212020392E0,7.640839560E0
1.388446400E1,4.419867919E-1,7.322518448E0,-2.514655902E0,7.754877372E0
1.389446600E1,-2.650332355E-1,7.472826388E0,-2.935165433E0,8.032967880E0
1.390446900E1,-1.005165899E0,7.686227540E0,-3.484061108E0,8.498654840E0
1.391447100E1,-1.540523662E0,8.046089165E0,-3.549263409E0,8.928047645E0
1.392447400E1,-1.694835191E0,8.553019373E0,-2.339994893E0,9.027855937E0
1.393447600E1,-1.543010190E0,9.285580770E0,-3.719343710E-1,9.420256146E0
1.394447900E1,-1.808232437E0,9.920042260E0,1.534014688E0,1.019951685E1
1.395448100E1,-1.701016575E0,1.052158509E1,2.873223538E0,1.103868759E1
1.396448300E1,-1.239463830E0,1.148673119E1,5.354363201E0,1.273383168E1
1.397448600E1,-2.398795371E-1,1.208389095E1,9.899638985E0,1.562308595E1
1.398448800E1,-5.822806451E-1,1.119958612E1,1.014182832E1,1.512039886E1
1.399449100E1,-1.808762195E0,8.830235283E0,8.355134393E0,1.229035990E1
1.400449300E1,-4.493038222E0,3.389478886E0,4.595105757E0,7.265738538E0
1.401449600E1,-7.236581919E0,-6.249960757E0,1.949368728E0,9.758594457E0
1.402449800E1,-1.313103840E1,-2.736124809E1,1.117885657E1,3.234237005E1
1.403450100E1,-1.644321709E1,-5.309408403E1,1.030598422E1,5.652941233E1
1.404450300E1,1.329227069E-1,-4.697259655E1,-1.238360519E1,4.857773330E1
1.405450500E1,1.504067354E1,-1.788406692E1,-1.815995610E1,2.959469067E1
1.406450800E1,1.255452632E1,-9.024993757E0,-3.369000767E0,1.582456349E1
1.407451000E1,9.118264448E0,-9.148990397E0,6.230841531E0,1.434120490E1
1.408451300E1,7.696283582E0,-1.778299429E1,7.215935401E0,2.067697731E1
1.409451500E1,3.140036959E0,-3.028585929E1,8.759373461E0,3.168311425E1
1.410451800E1,-3.056101055E0,-3.713680331E1,1.138270337E1,3.896213354E1
1.411452000E1,-4.696599387E0,-3.052101560E1,3.624815283E0,3.109227757E1
1.412452300E1,-5.811876251E0,-2.238269713E1,-4.207266813E-1,2.312877098E1
1.413452467E1,-6.022625690E0,-1.871856751E1,-2.131777883E-1,1.966474598E1
1.414452667E1,-5.305960534E0,-1.705325242E1,8.159297546E-1,1.787826548E1
1.415452967E1,-3.992511300E0,-1.610843359E1,2.292155898E0,1.675338049E1
1.416453167E1,-1.953673887E0,-1.539399856E1,3.401299617E0,1.588587021E1
1.417453467E1,-3.306799257E-1,-1.401815924E1,4.982734054E0,1.488105428E1
1.418453667E1,3.227746363E-1,-1.119482649E1,4.499493256E0,1.206953865E1
1.419453967E1,2.488149597E-1,-7.504075663E0,2.478909534E0,7.906835835E0
1.420454167E1,-2.838390505E-1,-4.090817320E0,1.209555030E0,4.275321546E0
1.421454467E1,-8.847613500E-1,-1.017164093E0,6.061808467E-1,1.478134181E0
1.422454667E1,-1.199855084E0,1.694146535E0,8.710199547E-1,2.251324159E0
1.423454867E1,-1.022535053E0,4.370958007E0,9.528716183E-1,4.588988576E0
1.424455167E1,-5.425742501E-1,6.872619642E0,3.385537863E-3,6.894004571E0
1.425455367E1,-2.868230309E-1,8.958417360E0,-7.515799769E-1,8.994463936E0
1.426455667E1,-1.990414135E-1,1.036489960E1,-9.846676075E-1,1.041346875E1
1.427455867E1,-2.893254930E-1,1.124650184E1,-6.972511574E-1,1.127180873E1
1.428456167E1,2.743117435E-1,1.247671391E1,3.033045045E-1,1.248341422E1
1.429456367E1,1.222002290E0,1.371940629E1,1.288362633E0,1.383384533E1
1.430456567E1,2.368906451E0,1.503061399E1,1.242957834E0,1.526682740E1
1.431456867E1,3.106418100E0,1.619199849E1,3.570171006E-1,1.649115247E1
1.432457067E1,3.405787648E0,1.687841717E1,-2.704582822E-1,1.722072888E1
1.433457367E1,4.000889775E0,1.690071260E1,-6.205345917E-1,1.737890297E1
1.434457567E1,5.199202656E0,1.574154069E1,-5.257488140E-1,1.658626611E1
1.435457867E1,5.898660625E0,1.418250576E1,4.699665228E-1,1.536745052E1
1.436458067E1,5.776901130E0,1.286943865E1,1.652027872E0,1.420296567E1
1.437458367E1,4.786885951E0,1.162234449E1,2.211352640E0,1.276257220E1
1.438458567E1,3.589426180E0,1.045880471E1,2.751037781E0,1.139468232E1
1.439458767E1,2.362372187E0,9.522684780E0,3.086201352E0,1.028527912E1
1.440459067E1,1.266723403E0,8.900414734E0,2.759023908E0,9.403945106E0
1.441459267E1,4.149418116E-1,8.619075369E0,1.331516400E0,8.731183931E0
1.442459567E1,-1.798679549E-1,8.554493456E0,-1.953987443E-1,8.558615043E0
1.443459767E1,-8.133725479E-1,8.455937467E0,-2.033555623E-1,8.497400004E0
1.444460067E1,-7.692058969E-1,8.304420322E0,9.980203092E-1,8.399471361E0
1.445460267E1,-8.602980615E-1,8.049659475E0,1.528041172E0,8.238448898E0
1.446460567E1,-8.328053306E-1,8.112023538E0,1.094453686E0,8.227777311E0
1.447460767E1,-1.534645602E-1,8.323914939E0,6.526041576E-1,8.350868426E0
1.448460967E1,9.827943058E-1,8.554771199E0,4.797160971E-1,8.624391135E0
1.449461267E1,2.010156528E0,8.952865428E0,6.146826982E-1,9.196323367E0
1.450461467E1,2.835982914E0,9.427367563E0,6.522346866E-1,9.866279357E0
1.451461767E1,3.651980862E0,9.912775340E0,4.139454460E-1,1.057220081E1
1.452461967E1,5.053566055E0,1.034528920E1,2.832812444E-1,1.151710844E1
1.453462267E1,5.730735608E0,9.961226538E0,1.935206187E-1,1.149368587E1
1.454462467E1,4.979882367E0,9.624846162E0,-2.153903747E-1,1.083897066E1
1.455462667E1,4.535572915E0,9.631941758E0,-1.417880799E0,1.074039616E1
1.456462967E1,4.409333576E0,9.802538953E0,-1.614795726E0,1.086920226E1
1.457463167E1,4.204047190E0,1.006314702E1,-7.273879627E-2,1.090624736E1
1.458463467E1,3.142872566E0,9.678072197E0,1.760090849E0,1.032669595E1
1.459463667E1,2.206195689E0,8.704191533E0,2.914159310E0,9.440475313E0
1.460463967E1,1.322576007E0,5.614977695E0,2.526676608E0,6.297719944E0
1.461464167E1,-2.597781090E0,-2.824441388E0,1.234175316E0,4.031020274E0
1.462464467E1,-1.248791601E1,-1.972949730E1,3.264460738E0,2.357663703E1
1.463464667E1,-1.609756479E1,-3.673373836E1,8.670796330E0,4.103269227E1
1.464464867E1,-8.927014303E-1,-3.670407193E1,3.701651790E0,3.690105741E1
1.465465167E1,6.780416068E0,-2.028464131E1,-7.279229171E0,2.259265129E1
1.466465367E1,6.014144304E0,-1.178254651E1,-7.617575966E0,1.526518252E1
1.467465667E1,4.611896621E0,-1.463230166E1,2.443384191E0,1.553524923E1
1.468465867E1,-8.116373867E-2,-1.731959076E1,9.103776217E0,1.956664389E1
1.469466167E1,-2.572657943E0,-1.933818409E1,1.166806036E1,2.273164238E1
1.470466367E1,-2.618276750E0,-2.142829354E1,1.213956697E1,2.476683717E1
1.471466567E1,-2.866555958E0,-2.286548769E1,7.088436279E0,2.411003109E1
1.472466867E1,-2.459066423E0,-2.365458348E1,2.676649504E0,2.393221218E1
1.473467067E1,-2.231821842E0,-2.307098224E1,1.500938158E0,2.322722682E1
1.474467367E1,-2.562325328E0,-2.137907168E1,2.151639120E0,2.163931071E1
1.475467567E1,-2.590832843E0,-1.915456163E1,3.082863761E0,1.957329035E1
1.476467867E1,-2.552300861E0,-1.741028341E1,3.714056658E0,1.798406030E1
1.477468067E1,-2.558866408E0,-1.619801059E1,4.177924461E0,1.692271838E1
1.478468367E1,-1.936300347E0,-1.471379664E1,3.954104741E0,1.535838582E1
1.479468567E1,-7.470332551E-1,-1.237960336E1,3.323743903E0,1.283977848E1
1.480468767E1,2.527346407E-1,-9.896822966E0,2.432604264E0,1.019453496E1
1.481469067E1,8.680051303E-1,-7.221183861E0,1.840719275E0,7.502478038E0
1.482469267E1,1.090833309E0,-4.271602119E0,1.017710808E0,4.524625648E0
1.483469567E1,1.233552295E0,-8.723484421E-1,6.912706983E-1,1.661474721E0
1.484469767E1,6.793808238E-1,2.025971931E0,1.025929070E-1,2.139309672E0
1.485470067E1,-6.419267763E-1,4.555587350E0,-5.147491050E-1,4.629299377E0
1.486470267E1,-1.359814146E0,7.005532701E0,-6.422499812E-1,7.165128608E0
1.487470467E1,-1.253013291E0,9.179840891E0,-4.774228191E-1,9.277254639E0
1.488470767E1,-5.331307045E-1,1.058524256E1,-6.225402597E-1,1.061692728E1
1.489470967E1,-2.320347664E-1,1.189315711E1,-7.778445002E-1,1.192082499E1
1.490471267E1,6.794754025E-1,1.299765171E1,-9.432891282E-1,1.304953759E1
1.491471467E1,2.185851763E0,1.359939218E1,-9.709652424E-1,1.380812041E1
1.492471767E1,3.251073830E0,1.438340557E1,-6.897681101E-1,1.476237165E1
1.493471967E1,3.934496103E0,1.529638164E1,-6.876325607E-4,1.579428856E1
1.494472267E1,4.827749510E0,1.588046001E1,3.355508025E-1,1.660146890E1
1.495472467E1,5.801294544E0,1.512432615E1,7.166990697E-1,1.621462048E1
1.496472667E1,6.325474623E0,1.367099017E1,1.618659128E0,1.515017026E1
1.497472967E1,5.795290623E0,1.190681270E1,2.671735504E0,1.350909889E1
1.498473167E1,4.473405026E0,1.013872345E1,2.485166055E0,1.135698534E1
1.499473467E1,3.437439211E0,8.885738223E0,1.554574521E0,9.653446744E0
1.500473667E1,2.444700691E0,8.190823540E0,8.541052023E-1,8.590439304E0
1.501473967E1,1.757004981E0,8.230223833E0,3.928652834E-1,8.424843855E0
1.502474167E1,1.458843468E0,8.798279665E0,-2.414117999E-1,8.921671871E0
1.503474467E1,1.120637006E0,9.519391628E0,-9.513128968E-1,9.632218877E0
1.504474667E1,8.193829009E-1,1.006461584E1,-1.621408488E0,1.022725993E1
1.505474867E1,5.270444839E-1,1.035062420E1,-1.894159902E0,1.053570306E1
1.506475167E1,4.758813469E-1,1.032884216E1,-1.223712308E0,1.041196020E1
1.507475367E1,5.183933821E-1,1.015519155E1,6.547932820E-1,1.018947502E1
1.508475667E1,4.591540709E-1,9.601168447E0,3.615488974E0,1.026961628E1
1.509475867E1,2.805603705E-1,9.187965013E0,5.850074941E0,1.089590712E1
1.510476167E1,-1.261362822E-1,8.829345921E0,5.500805547E0,1.040346680E1
1.511476367E1,-9.311362021E-1,8.323485169E0,2.491344223E0,8.738089953E0
1.512476567E1,-1.517257883E0,7.916360500E0,5.902892840E-1,8.082034180E0
1.513476913E1,-1.866521722E0,7.879613088E0,2.611471760E-1,8.101876549E0
1.514477113E1,-1.767896882E0,8.389470413E0,-2.125685815E-1,8.576354621E0
1.515477413E1,-1.049185493E0,9.196586732E0,-1.001017592E0,9.310211273E0
1.516477612E1,2.747084771E-1,1.003055931E1,-1.557942663E0,1.015454431E1
1.517477913E1,1.698241341E0,1.040451682E1,-1.269416485E0,1.061835261E1
1.518478113E1,2.675864807E0,1.091429813E1,2.082573563E0,1.142887872E1
1.519478313E1,2.766029457E0,1.130782393E1,5.406863011E0,1.283557434E1
1.520478612E1,2.969850239E0,1.114545260E1,6.318427559E0,1.315156458E1
1.521478813E1,2.878826340E0,9.585638827E0,5.674163797E0,1.150514005E1
1.522479113E1,1.986115555E0,6.783594614E0,3.360418224E0,7.826507620E0
1.523479313E1,-2.220757594E0,2.711808227E0,1.675436615E0,3.884939639E0
1.524479612E1,-8.644080402E0,-7.830404676E0,5.874684117E0,1.305937506E1
1.525479813E1,-1.059477703E1,-2.616009667E1,1.252011663E1,3.087641946E1
1.526480113E1,8.486451454E-1,-3.327591254E1,5.932416016E0,3.381124242E1
1.527480313E1,1.329444235E1,-2.923501407E1,-5.158993692E0,3.252758000E1
1.528480513E1,1.079903314E1,-2.189674907E1,-1.958784265E1,3.130128298E1
1.529480813E1,1.988707625E0,-1.660471251E1,-1.310283260E1,2.124513256E1
1.530481013E1,-4.057151099E0,-1.755252746E1,5.407911417E0,1.880949763E1
1.531481313E1,-7.428661784E0,-1.968058651E1,1.111010735E1,2.378959829E1
1.532481513E1,-8.371991916E0,-2.117965122E1,9.033430120E0,2.450042314E1
1.533481813E1,-4.453470991E0,-2.114207701E1,6.781047567E0,2.264516351E1
1.534482013E1,-1.072729599E0,-2.241803302E1,4.963900757E0,2.298606674E1
1.535482213E1,4.092857999E-1,-2.490494038E1,2.595449220E0,2.504316128E1
1.536482513E1,1.827979946E0,-2.474437584E1,5.933496436E-1,2.481889824E1
1.537482712E1,1.681453838E0,-2.231136110E1,-1.309033125E0,2.241289113E1
1.538483013E1,-1.059523662E0,-1.971877584E1,-2.690392799E0,1.992964939E1
1.539483213E1,-4.133224544E0,-1.741029744E1,-1.703436007E0,1.797508544E1
1.540483513E1,-4.941286066E0,-1.530206162E1,3.164699491E-1,1.608320711E1
1.541483712E1,-3.838916346E0,-1.286407441E1,1.994209855E0,1.357197709E1
1.542483913E1,-2.279171133E0,-1.029654681E1,2.630565258E0,1.086891765E1
1.543484213E1,-1.131091097E0,-7.508689701E0,2.592889894E0,8.023893450E0
1.544484413E1,-6.177871312E-1,-4.531224341E0,2.210288447E0,5.079274553E0
1.545484712E1,-3.987719214E-1,-1.446569577E0,1.392082883E0,2.046821277E0
1.546484913E1,-1.048433541E-1,1.313239612E0,5.340180194E-1,1.421536370E0
1.547485213E1,1.241100758E-1,3.725372189E0,6.813409567E-2,3.728061630E0
1.548485413E1,1.248311837E-1,5.914024184E0,-4.049430728E-2,5.915480088E0
1.549485712E1,1.288917826E-1,7.750969082E0,1.339585777E-1,7.753198030E0
1.550485913E1,3.428732707E-1,9.178176774E0,5.200783304E-1,9.199291953E0
1.551486113E1,7.081896168E-1,1.051297098E1,8.355882398E-1,1.056987696E1
1.552486413E1,1.479109771E0,1.178260147E1,9.186993936E-1,1.191056135E1
1.553486613E1,1.904003105E0,1.314581782E1,6.509635019E-1,1.329892881E1
1.554486913E1,1.873364865E0,1.470029425E1,4.752897549E-1,1.482680166E1
1.555487113E1,2.047493777E0,1.585580581E1,1.548576593E-1,1.598820783E1
1.556487413E1,2.798666569E0,1.630214951E1,-1.548987360E-1,1.654136048E1
1.557487613E1,4.139103627E0,1.646136217E1,1.133528070E-1,1.697414128E1
1.558487812E1,5.156402206E0,1.590920960E1,4.268435267E-1,1.672942405E1
1.559488113E1,5.146891125E0,1.455521665E1,8.926265860E-1,1.546420389E1
1.560488313E1,4.519254213E0,1.265757063E1,1.612378048E0,1.353652525E1
1.561488613E1,3.781262508E0,1.097384150E1,1.805896474E0,1.174667636E1
1.562488812E1,2.844938510E0,9.605914632E0,1.961038162E0,1.020847402E1
1.563489113E1,1.864423302E0,8.434676406E0,2.293168051E0,8.937475037E0
1.564489313E1,8.289024603E-1,7.547165549E0,2.614878348E0,8.030216429E0
1.565489513E1,-1.079881328E-1,7.159864696E0,2.551307712E0,7.601611338E0
1.566489812E1,-6.058525255E-1,7.273571405E0,1.808706208E0,7.519529002E0
1.567490013E1,-5.477352950E-1,7.683489874E0,1.099173632E0,7.781016211E0
1.568490313E1,5.625913158E-2,8.264079797E0,1.374964721E0,8.377870133E0
1.569490513E1,8.557256851E-1,8.973841730E0,1.949789435E0,9.223002802E0
1.570490812E1,1.572289976E0,9.514853604E0,1.730793229E0,9.797968160E0
1.571491013E1,2.255968504E0,9.922572935E0,5.750759983E-1,1.019203414E1
1.572491213E1,2.866233777E0,1.017696658E1,-6.559487649E-1,1.059321545E1
1.573491513E1,3.574909297E0,1.032224416E1,-1.887796962E0,1.108568799E1
1.574491713E1,3.895683747E0,1.026431813E1,-1.942703487E0,1.114929035E1
1.575492013E1,3.750063227E0,9.803593791E0,-1.213586027E0,1.056627732E1
1.576492213E1,3.657536886E0,9.706855701E0,-3.006638288E-2,1.037311562E1
1.577492513E1,3.449827414E0,1.007396670E1,5.712307962E-1,1.066360253E1
1.578492713E1,3.142588391E0,1.046659086E1,7.646461650E-1,1.095491076E1
1.579493013E1,3.115169920E0,1.077753059E1,7.469349488E-1,1.124354753E1
1.580493213E1,3.052382226E0,1.113219228E1,8.106637522E-1,1.157151321E1
1.581493413E1,2.483781434E0,1.125679528E1,2.191220677E0,1.173397027E1
1.582493713E1,1.832522648E0,1.148383565E1,3.838322854E0,1.224619707E1
1.583493912E1,1.505016737E0,1.155460099E1,5.367704208E0,1.282911251E1
1.584494213E1,1.209358856E0,9.533128492E0,7.435278493E0,1.215016271E1
1.585494413E1,-8.037069543E-1,3.608894484E0,9.019309094E0,9.747717723E0
1.586494713E1,-7.483409264E0,-1.000969528E1,1.344037248E1,1.835317482E1
1.587494912E1,-1.850047806E1,-3.669372002E1,1.970726852E1,4.557491865E1
1.588495113E1,-1.505779419E1,-5.407249629E1,4.971678139E0,5.634970811E1
1.589495413E1,8.134514853E0,-4.354668483E1,-9.855255110E0,4.538292790E1
1.590495613E1,1.222468840E1,-2.845384711E1,-2.331503333E1,3.876409680E1
1.591495912E1,5.163842204E0,-1.873343932E1,-2.290663572E1,3.003865801E1
1.592496113E1,2.481516223E0,-1.869587095E1,-2.435190488E0,1.901640519E1
1.593496413E1,2.692990133E0,-2.386936808E1,1.378925478E1,2.769733698E1
1.594496613E1,7.828606072E-1,-2.607125174E1,1.906312521E1,3.230674513E1
1.595496812E1,-1.002439342E0,-2.392970667E1,1.427598169E1,2.788260029E1
1.596497113E1,-2.156473890E0,-2.223370540E1,7.646587511E0,2.361055560E1
1.597497313E1,-2.711607667E0,-2.184455215E1,3.821013926E0,2.234138362E1
1.598497613E1,-3.141379187E0,-2.080366356E1,2.342808573E0,2.116954021E1
1.599497813E1,-2.803682310E0,-2.019036548E1,2.212566522E0,2.050382753E1
1.600498113E1,-2.044744709E0,-1.872932405E1,-1.436333442E0,1.889528020E1
1.601498313E1,-2.691594110E0,-1.497743941E1,-5.830225983E0,1.629600887E1
1.602498613E1,-3.529275872E0,-1.135476772E1,-6.072878416E0,1.335164373E1
1.603498813E1,-3.354223684E0,-7.810258094E0,-3.710661764E0,9.274694537E0
1.604499012E1,-2.054318647E0,-4.324413001E0,-1.390954370E0,4.985531764E0
1.605499313E1,-7.845260404E-1,-1.537120728E0,1.366821742E-1,1.731156625E0
1.606499513E1,-1.005954981E-2,8.930119175E-1,1.577695727E0,1.812924512E0
1.607499813E1,5.090176642E-1,3.314826314E0,3.145441833E0,4.597931796E0
1.608500012E1,9.735081965E-1,5.381295476E0,4.388495561E0,7.011772422E0
1.609500313E1,1.600993958E0,7.301463209E0,5.722535473E0,9.413923671E0
1.610500513E1,2.128580917E0,9.345518823E0,5.429170139E0,1.101569186E1
1.611500713E1,2.334258775E0,1.123774622E1,3.132241158E0,1.189733747E1
1.612501012E1,2.518365668E0,1.333885429E1,1.754672088E0,1.368744218E1
1.613501175E1,2.634958564E0,1.561517183E1,1.744692206E0,1.593174657E1
1.614501475E1,2.212472967E0,1.662216294E1,1.206370782E0,1.681209886E1
1.615501675E1,2.320476887E0,1.657261364E1,3.046948993E-1,1.673705394E1
1.616501975E1,2.706552457E0,1.634497685E1,-1.699633563E-1,1.656842123E1
1.617502175E1,2.769655608E0,1.586474971E1,-6.646249366E-1,1.611840568E1
1.618502375E1,2.763256708E0,1.531126631E1,-1.299547187E0,1.561279240E1
1.619502675E1,2.841728096E0,1.451144556E1,-1.359676445E0,1.484945086E1
1.620502875E1,2.737408506E0,1.308410514E1,-1.365033956E-1,1.336809058E1
1.621503175E1,2.558396584E0,1.155301055E1,1.205861928E0,1.189418130E1
1.622503375E1,2.600660551E0,1.035054585E1,2.052366847E0,1.086781691E1
1.623503675E1,2.789096723E0,9.590030671E0,3.163308585E0,1.047636721E1
1.624503875E1,2.627300758E0,9.138834953E0,3.708664355E0,1.020662554E1
1.625504075E1,2.700745879E0,9.308380233E0,3.210230151E0,1.021007093E1
1.626504375E1,2.623631045E0,9.719077551E0,1.833859906E0,1.023264142E1
1.627504575E1,2.068050395E0,9.906909413E0,4.647111185E-1,1.013112249E1
1.628504875E1,9.841966143E-1,1.004421841E1,-3.526853371E-1,1.009848273E1
1.629505075E1,3.648456453E-1,9.888371401E0,-1.598441648E-1,9.896390830E0
1.630505375E1,4.469310513E-1,9.344157591E0,5.472469063E-1,9.370832814E0
1.631505575E1,4.223797622E-1,8.753432690E0,9.023868314E-1,8.809954059E0
1.632505775E1,6.065246630E-1,8.482817702E0,6.582163882E-1,8.529907218E0
1.633506075E1,1.335292240E0,8.548128178E0,1.025343617E-1,8.652399320E0
1.634506275E1,1.943757009E0,8.515184380E0,-1.000423515E-1,8.734790484E0
1.635506575E1,2.281949437E0,8.374964640E0,-1.996906372E-1,8.682580395E0
1.636506775E1,2.946276312E0,8.332899771E0,-4.055851336E-1,8.847726374E0
1.637507075E1,3.427807969E0,8.183036803E0,-1.213235267E0,8.954546254E0
1.638507275E1,3.017773141E0,7.984237903E0,-2.833954808E0,8.993681642E0
1.639507475E1,2.268774198E0,8.026228513E0,-4.069895983E0,9.280718389E0
1.640507775E1,1.520654092E0,8.334297255E0,-4.301863214E0,9.501522337E0
1.641507975E1,6.436707084E-1,8.826448626E0,-3.864284492E0,9.656769748E0
1.642508275E1,-1.353631885E-1,8.914367945E0,-2.973303312E0,9.398128092E0
1.643508475E1,-5.819293736E-1,8.828723193E0,-6.152592337E-1,8.869246808E0
1.644508775E1,2.522871825E-1,8.775606501E0,5.839942886E0,1.054418566E1
1.645508975E1,2.173023557E0,6.536160913E0,1.164639643E1,1.353077901E1
1.646509175E1,-1.985943939E-1,-1.985313901E0,1.277696844E1,1.293181478E1
1.647509475E1,-1.142063192E1,-2.028819642E1,1.833660165E1,2.963566614E1
1.648509675E1,-1.681616537E1,-3.970761353E1,1.235865746E1,4.485771287E1
1.649509975E1,2.953202046E-1,-3.986861310E1,-7.299345932E0,4.053238182E1
1.650510175E1,1.582224279E1,-2.534369907E1,-1.995532378E1,3.592855962E1
1.651510475E1,6.886905559E0,-1.382657873E1,-2.140737922E1,2.639847785E1
1.652510675E1,2.167141550E0,-1.564788233E1,2.890732441E0,1.605954725E1
1.653510975E1,-1.888747135E0,-2.283725967E1,2.008626165E1,3.047237605E1
1.654511175E1,-6.293760495E0,-2.425449611E1,2.043032820E1,3.233094977E1
1.655511375E1,-5.256291361E0,-1.900283808E1,8.433421009E0,2.144432428E1
1.656511675E1,-2.200029069E0,-1.933250878E1,3.542146178E0,1.977707823E1
1.657511875E1,1.562963375E0,-2.211404330E1,3.210318444E0,2.240044442E1
1.658512175E1,3.115901699E0,-2.293689389E1,1.480811018E0,2.319488620E1
1.659512375E1,2.726046197E0,-2.236140859E1,-5.013005090E-1,2.253253701E1
1.660512675E1,4.777375455E-1,-2.010580539E1,-1.801478611E0,2.019200259E1
1.661512875E1,-2.898255469E0,-1.794389096E1,-1.292042432E0,1.822230724E1
1.662513075E1,-4.377206342E0,-1.601681474E1,3.631354809E-1,1.660813527E1
1.663513375E1,-4.027180903E0,-1.337804584E1,1.937518761E0,1.410476073E1
1.664513575E1,-2.861666809E0,-1.013315690E1,3.044083273E0,1.096067738E1
1.665513875E1,-1.416271206E0,-6.833142166E0,3.171471882E0,7.665239063E0
1.666514075E1,-1.689855556E-1,-3.717044000E0,2.340411800E0,4.395736526E0
1.667514375E1,4.266422363E-1,-1.001474259E0,8.903648829E-1,1.406315724E0
1.668514575E1,7.880700378E-1,1.158671975E0,-4.547928886E-1,1.473231720E0
