"Time (s)","Linear Acceleration x (m/s^2)","Linear Acceleration y (m/s^2)","Linear Acceleration z (m/s^2)","Absolute acceleration (m/s^2)"
5.800333340E-3,1.143073650E-1,9.959866476E-1,-1.561153954E-1,1.014607112E0
1.580233325E-2,2.374196135E-1,4.683447245E-1,5.211939061E-1,7.398364289E-1
2.580533328E-2,2.698944645E-1,2.099457398E-2,6.301228559E-1,6.858123706E-1
3.580733330E-2,5.167126000E-2,-4.931971452E-1,7.789251387E-2,5.019766796E-1
4.580933333E-2,-1.201080953E-1,-7.468211474E-1,5.196315300E-1,9.177062208E-1
5.581233324E-2,-1.877833307E-2,-5.732494743E-1,6.904672909E-1,8.976149873E-1
6.581433327E-2,1.619591027E-1,-3.203193904E-1,5.899559927E-1,6.905674016E-1
7.581633329E-2,5.436903374E-1,-2.253926218E-2,3.935176134E-1,6.715380208E-1
8.581933333E-2,7.213664635E-1,-3.458512576E-1,8.338217229E-1,1.155526431E0
9.582133335E-2,-4.089738509E-1,-1.271606852E0,1.838347644E0,2.272392056E0
1.058233333E-1,-3.959342676E-1,-8.360682231E-1,6.678485066E-1,1.140962596E0
1.158253333E-1,1.424317121E0,-3.759220990E-1,-4.975670618E-1,1.554853584E0
1.258283333E-1,-2.317743022E0,-2.353776780E0,7.591124332E-1,3.389461540E0
1.358303333E-1,-4.096142964E0,-3.101144204E0,4.086946464E-1,5.153883378E0
1.458323332E-1,-2.485545539E0,-2.141874562E0,-2.708512151E-1,3.292252063E0
1.558353333E-1,-1.306119896E0,-1.586955670E0,-5.206296498E-1,2.120243551E0
1.658373333E-1,7.805728841E-1,-1.428268377E0,-6.160182023E-1,1.740322674E0
1.758393333E-1,1.918020635E0,-1.058024290E0,-3.574356151E-1,2.219454612E0
1.858423332E-1,1.424019206E0,3.088805556E-1,-2.943470818E-1,1.486565875E0
1.958443333E-1,-2.452187759E-1,1.995848976E0,1.304671687E-1,2.015084878E0
2.058463333E-1,-1.816446313E0,1.542953326E0,2.905075661E0,3.757611844E0
2.158493333E-1,-1.385034065E0,8.010679597E-1,4.448745856E0,4.727723440E0
2.258513334E-1,1.739824399E-1,1.343459192E-1,-1.631557354E0,1.646298307E0
2.358533333E-1,-1.853517660E-1,2.921198042E-1,-3.040691303E0,3.060309275E0
2.458563333E-1,-1.447885493E0,8.546060164E-1,-2.215353890E0,2.781099909E0
2.558583333E-1,-1.660907453E0,3.996834292E-1,8.506079096E-1,1.908374761E0
2.658603333E-1,-1.213320637E0,-2.978042480E-1,3.408401061E0,3.630155937E0
2.758633333E-1,-5.192918068E-1,-5.183887044E-1,5.961417621E-1,9.453971811E-1
2.858653333E-1,-6.168520153E-2,-1.088682923E0,-2.237336497E0,2.488917470E0
2.958673333E-1,6.857751927E-1,-1.921029320E0,-4.536271073E0,4.973770854E0
3.058703333E-1,1.070537478E0,-3.535425096E0,-6.876615044E0,7.805966665E0
3.158723332E-1,-7.119324780E0,-7.106320572E0,-6.961450542E0,1.223300335E1
3.258743333E-1,-1.566397503E1,-1.036561880E1,-6.101738518E0,1.974936404E1
3.358773333E-1,-9.711933423E0,-1.038322009E1,2.113188415E0,1.437353386E1
3.458793333E-1,-6.974645954E0,-6.527091297E0,1.529840945E0,9.674141838E0
3.558813334E-1,-5.306160509E0,-3.729074062E0,-2.322546802E0,6.888799340E0
3.658843333E-1,-3.576614930E0,-4.868992554E-1,-2.484528708E0,4.382023294E0
3.758863333E-1,-6.048354024E-1,3.304416516E0,7.616711748E-1,3.444580868E0
3.858885833E-1,3.184501233E0,6.423866891E0,3.310308756E0,7.897167720E0
3.958915833E-1,6.502948728E0,7.189805363E0,2.614583064E0,1.004080116E1
4.058935833E-1,9.416047938E0,7.562106940E0,2.525577332E0,1.233798853E1
4.158955833E-1,9.024010840E0,6.624114146E0,1.522812592E0,1.129737217E1
4.258975832E-1,7.670645295E0,5.556617221E0,-7.294840068E-1,9.499839004E0
4.359005833E-1,6.388843238E0,3.854148636E0,-2.836453907E0,7.982308588E0
4.459025833E-1,6.241397510E0,3.647011021E0,-3.218836668E0,7.913067784E0
4.559045833E-1,6.178815345E0,4.581332055E0,-3.889404715E0,8.619386956E0
4.659075832E-1,6.607809185E0,5.704617265E0,-2.593520808E0,9.106709096E0
4.759095833E-1,6.710578678E0,7.526380452E0,-7.114798450E-1,1.010863356E1
4.859115833E-1,7.449397180E0,1.081665080E1,1.759219029E0,1.325097372E1
4.959145833E-1,7.841396856E0,1.164414291E1,2.043152804E0,1.418619195E1
5.059165834E-1,-4.185071513E0,1.006023978E0,1.134145244E0,4.451201326E0
5.159185833E-1,-7.788863717E0,2.623129939E0,-1.132208061E-1,8.219490716E0
5.259215833E-1,4.460875905E-1,1.543895079E1,-8.104930866E0,1.744276641E1
5.359235833E-1,-3.982039229E0,5.798434671E0,-1.037525969E1,1.253493098E1
5.459255833E-1,-6.942076963E0,-2.472191083E-1,-8.727527770E0,1.115451885E1
5.559285833E-1,-6.004487627E0,8.302566755E-1,-4.588984014E0,7.602760820E0
5.659305833E-1,-5.487835838E0,2.901266200E0,-1.320354796E0,6.346418245E0
5.759325833E-1,-2.045857142E0,1.612952976E0,-1.515857329E0,3.014128761E0
5.859355833E-1,-7.795841199E-1,1.159572300E0,1.019692356E0,1.729777968E0
5.959375832E-1,-6.242604375E-1,-3.906506943E0,5.042356943E0,6.409045259E0
6.059395833E-1,-2.264145396E0,-1.132239168E1,1.076081223E1,1.578347198E1
6.159425833E-1,-3.704809286E0,-1.321841919E1,1.168043307E1,1.802455920E1
6.259445833E-1,-2.921052593E0,-8.327039691E0,9.307656348E0,1.282593486E1
6.359465834E-1,-7.930420715E-1,-8.536758267E0,1.752047770E1,1.950569907E1
6.459485833E-1,2.465203661E-1,-1.661997842E1,1.788068723E1,2.441318150E1
6.559515833E-1,3.338815101E0,-1.385038158E1,1.117682174E1,1.810806727E1
6.659535833E-1,5.882308302E0,-9.582409995E0,9.948789511E0,1.501341217E1
6.759555833E-1,6.541580697E0,-7.915241343E0,7.283133942E0,1.258917644E1
6.859585833E-1,8.972944182E0,-3.509647646E0,3.614487053E0,1.029057193E1
6.959605833E-1,1.064503385E1,-1.801120176E0,-3.038467607E0,1.121575075E1
7.059625833E-1,9.294963212E0,-1.100669349E0,-1.000271721E1,1.369898411E1
7.159655833E-1,5.131240468E0,-3.309436351E-1,-1.101154902E1,1.215291588E1
7.259675832E-1,1.348174971E-1,-9.006217763E-1,-4.257636921E0,4.353937011E0
7.359695833E-1,-4.801701919E0,-3.521027790E0,4.907458754E0,7.716030679E0
7.459725833E-1,-7.461199785E0,-8.964959809E-1,2.625580507E0,7.960331668E0
7.559745833E-1,-8.284914595E0,5.840719396E-1,-3.158032934E0,8.885613198E0
7.659765834E-1,-7.237642604E0,1.141988699E0,-8.171431249E-1,7.372606835E0
7.759795833E-1,-7.801461543E0,3.123096406E0,7.036631702E0,1.096041601E1
7.859815833E-1,-8.766455024E0,4.671861572E0,7.982127643E0,1.274328788E1
7.959835833E-1,-6.199151961E0,2.120048368E0,5.678377301E-1,6.576209380E0
8.059865833E-1,-2.744433936E0,-9.055480555E-1,-5.213556401E0,5.960965127E0
8.159885833E-1,-1.168366658E0,-2.157284753E0,-6.969153664E0,7.388373363E0
8.259905833E-1,-3.905431348E-1,-2.382809522E0,-9.872595613E0,1.016358447E1
8.359935833E-1,5.924056837E0,-3.302789529E0,-1.064246692E1,1.262002259E1
8.459955833E-1,1.520106383E1,-8.757201805E0,-7.873465911E0,1.922894668E1
8.559975832E-1,2.503239565E1,-1.240944988E1,-4.829411289E0,2.835380912E1
8.659995833E-1,3.346909753E1,-1.118797355E1,9.851973653E-3,3.528953582E1
8.760025833E-1,3.760245685E1,-3.839128016E0,3.893369712E0,3.799792090E1
8.860045833E-1,3.620726910E1,8.990058251E-1,6.560092982E0,3.680773515E1
8.960065834E-1,2.980564852E1,2.572739219E0,6.255019768E0,3.056339221E1
9.060095833E-1,2.148800297E1,2.865701095E0,2.667347168E0,2.184173196E1
9.160115833E-1,1.477568708E1,4.466057999E0,1.716915886E0,1.553107862E1
9.260135833E-1,1.230448535E1,7.150899745E0,2.581712649E0,1.446378121E1
9.360165833E-1,1.172757098E1,7.963876728E0,3.818740529E0,1.468134983E1
9.460185833E-1,8.867341129E0,5.871142459E0,3.856019452E0,1.131233568E1
9.560205833E-1,4.951036298E0,3.349077842E0,2.962565193E0,6.671272393E0
9.660235833E-1,2.127350371E0,2.260933375E0,1.252962420E0,3.347738662E0
9.760255833E-1,-5.144830567E-1,1.336672475E0,-1.261688805E-1,1.437812473E0
9.860275832E-1,-2.568754926E0,4.548212476E-1,-6.799101430E-1,2.695856458E0
9.960305833E-1,-4.300278034E0,-1.564829295E-1,-7.436059096E-1,4.366901398E0
1.006032583E0,-6.438815882E0,-5.583533270E-1,-7.137892029E-1,6.502276788E0
1.016034583E0,-8.409183131E0,-8.228407981E-1,-1.014360353E0,8.510014973E0
1.026037583E0,-9.489749168E0,-8.558478919E-1,-1.451712788E0,9.638220007E0
1.036039583E0,-9.821251212E0,-8.078458328E-1,-1.901067803E0,1.003611723E1
1.046041583E0,-9.917116313E0,-7.932952559E-1,-2.322811388E0,1.021635777E1
1.056043583E0,-1.002025184E1,-9.137949684E-1,-2.675017838E0,1.041134903E1
1.066046583E0,-9.886404397E0,-8.431968561E-1,-3.025536782E0,1.037332375E1
1.076048583E0,-9.906298964E0,-8.455858822E-1,-3.090811881E0,1.041167099E1
1.086050583E0,-1.002648965E1,-8.534428590E-1,-3.093594571E0,1.052754420E1
1.096053583E0,-1.005755474E1,-7.590371503E-1,-3.158923465E0,1.056926403E1
1.106055583E0,-1.000408780E1,-6.271520318E-1,-3.036366995E0,1.047351979E1
1.116057583E0,-1.003723683E1,-6.171781437E-1,-2.937114310E0,1.047633870E1
1.126060583E0,-1.021828300E1,-7.583864283E-1,-3.499671712E0,1.082756480E1
1.136062583E0,-1.033502617E1,-7.883673687E-1,-3.704938802E0,1.100730942E1
1.146064583E0,-1.040247380E1,-8.878471450E-1,-3.785795854E0,1.110549342E1
1.156067583E0,-1.049424819E1,-1.104420192E0,-3.491685000E0,1.111489331E1
1.166069583E0,-1.065300010E1,-1.396733028E0,-2.936487488E0,1.113823294E1
1.176071583E0,-1.087408332E1,-1.648634440E0,-2.222273777E0,1.122061426E1
1.186074583E0,-1.112822202E1,-1.937417165E0,-1.523814512E0,1.139793496E1
1.196076583E0,-1.132954166E1,-2.115355393E0,-8.618567830E-1,1.155751010E1
1.206078583E0,-1.145696886E1,-2.247067434E0,-1.478253593E-1,1.167618516E1
1.216080583E0,-1.148485306E1,-2.275659149E0,7.311672740E-1,1.173094540E1
1.226083583E0,-1.161769011E1,-2.232503774E0,1.536614360E0,1.192962616E1
1.236085583E0,-1.164022528E1,-2.125757589E0,2.023423714E0,1.200449638E1
1.246087583E0,-1.152207878E1,-1.924883512E0,2.159789700E0,1.187973768E1
1.256090583E0,-1.134131795E1,-1.663850357E0,2.021456126E0,1.163959517E1
1.266092583E0,-1.111135865E1,-1.324354438E0,1.676442921E0,1.131488695E1
1.276094583E0,-1.098106866E1,-1.061544168E0,1.106421840E0,1.108760182E1
1.286097583E0,-1.089594255E1,-7.432412627E-1,2.726510246E-1,1.092466522E1
1.296099583E0,-1.073685853E1,-3.850347288E-1,8.727086306E-2,1.074411462E1
1.306101583E0,-1.056896274E1,-9.419133514E-2,4.708447015E-1,1.057986485E1
1.316104583E0,-1.052386083E1,3.556430963E-2,8.695259911E-1,1.055978158E1
1.326106583E0,-1.055884355E1,-7.417446587E-2,1.547844522E0,1.067194929E1
1.336108583E0,-1.062141344E1,-7.749589723E-1,2.650003742E0,1.097440225E1
1.346110583E0,-8.783295005E0,-2.101291962E0,5.360740174E0,1.050234423E1
1.356113583E0,-7.690123540E-1,-2.348141234E0,1.832686370E1,1.849267640E1
1.366115583E0,8.393533058E0,-2.377375558E0,2.789095905E1,2.922343081E1
1.376117583E0,1.664031738E1,-1.257015125E0,2.301267614E1,2.842645797E1
1.386120708E0,8.232979743E1,-1.015656389E0,-3.810666693E0,8.242419720E1
1.396122708E0,1.023439465E2,-3.288599506E0,-5.426413177E0,1.025404517E2
1.406124708E0,1.117255842E2,5.499437883E0,7.128055258E0,1.120877297E2
1.416127708E0,9.369664433E1,3.538631125E0,-1.621221231E0,9.377745692E1
1.426129708E0,4.329948326E1,1.868898761E0,-8.001954381E0,4.407231906E1
1.436131708E0,1.486867418E1,-3.979983348E-1,-1.080124923E1,1.838213425E1
1.446134708E0,-5.995910347E-1,-4.984513070E-1,-5.786950740E0,5.839243271E0
1.456136708E0,-2.173125416E1,1.448312925E-1,1.041070434E1,2.409670409E1
1.466138708E0,-2.221979838E1,2.405619364E0,7.088330444E0,2.344676679E1
1.476141708E0,-8.899557533E0,2.267197935E0,-6.981864341E0,1.153640934E1
1.486143708E0,-1.036721159E1,8.807271367E-1,-2.917841302E1,3.097796867E1
1.496145708E0,-1.377689143E1,-1.019753971E0,-2.434912979E1,2.799504880E1
1.506148708E0,-1.199944780E1,-1.570824080E0,-4.980299274E0,1.308654334E1
1.516150708E0,-1.233406524E1,-1.716515205E0,-3.252858692E0,1.287076841E1
1.526152708E0,-1.310632339E1,-2.440039730E0,-7.416681424E-1,1.335213759E1
1.536154708E0,-1.457395580E1,-3.575669728E0,-5.882717022E-1,1.501771172E1
1.546157708E0,-1.500362090E1,-4.322920792E0,-1.101980588E0,1.565281590E1
1.556159708E0,-1.384784856E1,-4.518802516E0,-2.149366015E0,1.472420661E1
1.566161708E0,-1.302608438E1,-4.606043850E0,-3.309580777E0,1.420731640E1
1.576164708E0,-1.241615313E1,-4.683858889E0,-4.278079664E0,1.394278876E1
1.586166708E0,-1.113864878E1,-4.226284736E0,-5.528804355E0,1.313387441E1
1.596168708E0,-9.825771110E0,-2.807752265E0,-6.790187350E0,1.226930703E1
1.606171708E0,-9.050377105E0,-1.271151646E0,-7.296924015E0,1.169488146E1
1.616173708E0,-8.517877023E0,-5.693816873E-1,-7.289895077E0,1.122590730E1
1.626175708E0,-8.204993683E0,-7.225652888E-1,-7.937451991E0,1.143884461E1
1.636177708E0,-7.719665428E0,-8.084936312E-1,-8.999532641E0,1.188437983E1
1.646180708E0,-7.545506110E0,-1.049970481E0,-9.569738494E0,1.223180262E1
1.656182708E0,-7.830349712E0,-1.879230791E0,-9.352724932E0,1.234177251E1
1.666184708E0,-7.946236848E0,-2.930082448E0,-8.994726815E0,1.235447990E1
1.676187708E0,-7.876915768E0,-3.764732429E0,-8.887220492E0,1.245799745E1
1.686189708E0,-7.798871226E0,-4.410755619E0,-9.024097379E0,1.271658331E1
1.696191708E0,-7.985453539E0,-4.983162655E0,-9.597829102E0,1.344312842E1
1.706194708E0,-8.313000526E0,-5.413168648E0,-1.067103057E1,1.456980666E1
1.716196708E0,-8.367454476E0,-5.671964074E0,-1.200231060E1,1.569206585E1
1.726198708E0,-8.174520333E0,-5.662859960E0,-1.319584543E1,1.652335021E1
1.736201708E0,-7.984800405E0,-5.453906200E0,-1.390079276E1,1.693322680E1
1.746203708E0,-7.606677926E0,-4.965544410E0,-1.365262290E1,1.639854543E1
1.756205708E0,-7.006794530E0,-4.114434809E0,-1.227994575E1,1.472483654E1
1.766207708E0,-6.265345366E0,-3.054769644E0,-1.026967535E1,1.241178480E1
1.776210708E0,-5.650736927E0,-2.140519178E0,-8.666439570E0,1.056502839E1
1.786212708E0,-5.418956223E0,-1.414535753E0,-7.710986990E0,9.530231807E0
1.796214708E0,-5.650403051E0,-1.225465596E0,-7.717454596E0,9.643024733E0
1.806217708E0,-5.930161330E0,-4.274154574E-1,-6.936524447E0,9.135910944E0
1.816219708E0,-8.394939314E0,1.383298319E0,-8.005139360E0,1.168207073E1
1.826221708E0,-1.200888988E1,2.048204360E0,-1.323873709E1,1.799090707E1
1.836224708E0,-1.970891510E1,3.405143577E-1,-2.403853037E1,3.108710708E1
1.846226708E0,1.396899819E0,-4.009902965E0,-5.076940885E0,6.618608588E0
1.856228708E0,1.094448520E2,1.237732762E1,1.283930303E2,1.691630696E2
1.866231708E0,1.403608681E2,2.110041209E1,1.292342435E2,1.919580433E2
1.876233708E0,1.020827397E2,1.544462609E1,7.177837516E1,1.257440152E2
1.886235708E0,5.790333003E1,5.027727794E0,2.534538073E1,6.340711316E1
1.896237708E0,2.586779670E1,2.774954940E0,-6.271130016E0,2.676135932E1
1.906240708E0,4.743756596E0,-4.648935809E0,-7.712762790E1,7.741309202E1
1.916242708E0,6.114900600E0,-9.770393885E0,-8.865263964E1,8.939878702E1
1.926244708E0,8.248240274E-1,6.382542279E0,2.315456468E1,2.403229174E1
1.936247708E0,-1.474998506E1,2.562928176E0,1.310344305E1,1.989549898E1
1.946249708E0,-1.107321025E1,-3.632329247E0,4.393946335E0,1.245458010E1
1.956251708E0,-9.681171221E0,-3.836547055E0,4.211345977E0,1.123296953E1
1.966254708E0,-9.077468424E0,-3.556289424E0,5.176172812E0,1.103813356E1
1.976256708E0,-8.999415112E0,-3.062314891E0,4.844435125E0,1.066938595E1
1.986258708E0,-8.910488318E0,-3.024046619E0,4.809319379E0,1.056746010E1
1.996260708E0,-9.372653997E0,-3.394955681E0,4.933700473E0,1.112266908E1
2.006263708E0,-1.178732602E1,-4.542978706E0,5.159972516E0,1.364569627E1
2.016265708E0,-1.200406008E1,-4.605935092E0,4.690545180E0,1.368624531E1
2.026267708E0,-1.071362403E1,-4.433012753E0,5.602303855E0,1.287707849E1
2.036270708E0,-1.178061459E1,-5.283022492E0,5.665388296E0,1.409928478E1
2.046272708E0,-1.171168761E1,-5.504510343E0,5.299388849E0,1.398380431E1
2.056274708E0,-1.175433954E1,-5.438233323E0,5.291792146E0,1.399078067E1
2.066277708E0,-1.159558062E1,-5.233620536E0,4.403078224E0,1.346236872E1
2.076279708E0,-8.763455987E0,-4.233524466E0,4.182900442E0,1.059327836E1
2.086281708E0,-1.124669129E1,-6.445589297E0,4.718855352E0,1.379497308E1
2.096283708E0,-1.102090457E1,-7.706923760E0,4.244429230E0,1.410220518E1
2.106286708E0,-1.110337604E1,-9.573844993E0,7.526944124E0,1.648024136E1
2.116288708E0,-1.349428614E1,-1.287718504E1,1.319064725E1,2.284536776E1
2.126290708E0,-1.159964560E1,-1.092646619E1,9.958661950E0,1.879133814E1
2.136293708E0,-9.282681136E0,-7.969343290E0,6.646866832E0,1.392334156E1
2.146295708E0,-9.731561356E0,-7.542140452E0,6.243704821E0,1.380474625E1
2.156297708E0,-9.515507323E0,-7.163596973E0,5.583344843E0,1.315430503E1
2.166300708E0,-9.175370695E0,-7.035874488E0,5.172420069E0,1.266668412E1
2.176302708E0,-9.106844836E0,-7.027528757E0,5.362669755E0,1.269169060E1
2.186304708E0,-8.956124666E0,-6.914902028E0,5.698981719E0,1.266911330E1
2.196306708E0,-9.199116822E0,-6.790233543E0,5.858779106E0,1.284742443E1
2.206309708E0,-9.444815655E0,-6.523292946E0,6.142186632E0,1.301861553E1
2.216311708E0,-9.384004027E0,-6.115109346E0,6.260617307E0,1.283157913E1
2.226313708E0,-9.312482055E0,-5.695938828E0,6.179027599E0,1.254378026E1
2.236316708E0,-9.215693094E0,-5.230271251E0,5.943272542E0,1.214937139E1
2.246318708E0,-8.860125664E0,-4.619798256E0,5.511788957E0,1.141158097E1
2.256320708E0,-8.795166022E0,-4.168704572E0,5.240859389E0,1.105439507E1
2.266323708E0,-8.950388548E0,-3.626589913E0,4.868620086E0,1.081503912E1
2.276325708E0,-1.023494289E1,-3.313411581E0,4.170484464E0,1.153801079E1
2.286327708E0,-1.279141808E1,-1.744859437E0,-4.987708865E0,1.383987538E1
2.296329708E0,1.713368087E0,2.089675006E0,1.550470390E1,1.573843114E1
2.306332708E0,3.470450193E1,1.028304676E1,4.681581632E1,5.917655078E1
2.316334708E0,8.563744102E1,2.957018816E1,1.509872587E1,9.184845593E1
2.326336708E0,1.424427949E2,4.327880283E1,6.988607351E0,1.490363890E2
2.336339708E0,1.378269187E2,3.768986571E1,6.528764770E0,1.430363949E2
2.346341708E0,8.113405586E1,2.205598512E1,-1.166332119E0,8.408663289E1
2.356343708E0,2.616690283E1,9.679763212E0,-3.140364988E0,2.807608434E1
2.366346708E0,-5.356653438E1,-5.272979899E0,1.425854880E1,5.568199113E1
2.376348708E0,-2.102523561E1,-9.019142448E0,-1.969537061E1,3.018796261E1
2.386350083E0,1.457302493E1,1.718405756E0,-3.221963174E1,3.540382244E1
2.396352083E0,-1.462375654E1,1.529470524E0,-6.760952558E1,6.918989438E1
2.406355083E0,-1.579557364E1,2.219479832E0,-3.602838640E1,3.940140687E1
2.416357083E0,-9.284889044E0,1.715946710E0,-3.031008899E0,9.916685566E0
2.426359083E0,-9.166688164E0,1.649982223E0,-1.519133524E0,9.437074754E0
2.436362083E0,-9.287898606E0,1.899703940E0,-1.334995347E0,9.573721750E0
2.446364083E0,-9.427736523E0,2.197836801E0,-8.106580511E-1,9.714415526E0
2.456366083E0,-9.662980533E0,2.702783926E0,-6.624386626E-1,1.005569782E1
2.466369083E0,-1.070054732E1,2.695266746E0,2.298750973E-1,1.103716532E1
2.476371083E0,-1.089325985E1,2.511300185E0,1.563701001E0,1.128782085E1
2.486373083E0,-1.062764774E1,2.399113898E0,3.064287157E0,1.131779571E1
2.496375083E0,-9.788227308E0,2.716582478E0,4.030656780E0,1.092865080E1
2.506378083E0,-9.499791761E0,2.771023272E0,5.312052748E0,1.123131862E1
2.516380083E0,-1.015096986E1,1.479801351E0,6.637822359E0,1.221853865E1
2.526382083E0,-1.034142303E1,7.103164684E-2,6.804256335E0,1.237933681E1
2.536385083E0,-1.093092294E1,-8.124010330E-1,5.834610225E0,1.241723593E1
2.546387083E0,-1.134520050E1,-1.620729480E0,6.169017166E0,1.301526455E1
2.556389083E0,-1.151312201E1,-2.227640937E0,7.095384525E0,1.370616081E1
2.566392083E0,-1.191255818E1,-2.573850482E0,7.867441524E0,1.450621883E1
2.576394083E0,-1.172020349E1,-2.097787433E0,7.326644243E0,1.398011437E1
2.586396083E0,-1.154092786E1,-1.298946093E0,6.257890166E0,1.319247764E1
2.596398083E0,-1.121887258E1,-5.044615138E-1,5.254523163E0,1.239869336E1
2.606401083E0,-1.098203929E1,-2.449639834E-2,3.814613564E0,1.162570702E1
2.616403083E0,-1.115406789E1,-2.437375665E-1,2.953854596E0,1.154113926E1
2.626405083E0,-1.139742549E1,-9.065963881E-1,2.889567383E0,1.179291417E1
2.636408083E0,-1.148035889E1,-1.372006322E0,3.265255667E0,1.201428051E1
2.646410083E0,-1.124723157E1,-1.588017379E0,4.292888907E0,1.214293673E1
2.656412083E0,-1.103709785E1,-1.461884751E0,6.738852890E0,1.301409905E1
2.666414083E0,-1.063152210E1,-9.444908041E-1,9.427816629E0,1.424096386E1
2.676417083E0,-9.797630800E0,-1.682789927E-1,1.069382419E1,1.450447389E1
2.686419083E0,-8.936795526E0,6.034565193E-1,1.071910287E1,1.396888114E1
2.696421083E0,-8.325272078E0,1.096841908E0,9.970786736E0,1.303571270E1
2.706424083E0,-8.074718302E0,1.133420481E0,9.402093558E0,1.244528348E1
2.716426083E0,-8.084650968E0,9.601243584E-1,9.875540271E0,1.279881696E1
2.726428083E0,-8.334268604E0,7.487649080E-1,1.181097918E1,1.447480263E1
2.736430083E0,-8.619362467E0,3.554854956E-1,1.249085716E1,1.518029288E1
2.746433083E0,-8.787376946E0,-1.498642468E-1,1.130355780E1,1.431820072E1
2.756435083E0,-8.407634203E0,2.485188530E-1,8.093396648E0,1.167275220E1
2.766437083E0,-8.114137892E0,9.443218195E-1,3.127823002E0,8.747242660E0
2.776440083E0,5.196950308E0,1.832192573E0,1.802220856E1,1.884582775E1
2.786442083E0,4.538027810E1,4.091709898E0,5.192923915E1,6.908514753E1
2.796444083E0,9.939673468E1,5.025514038E0,4.013657930E1,1.073122158E2
2.806447083E0,1.153464047E2,2.998811206E0,-2.145243319E1,1.173626552E2
2.816449083E0,1.167216043E2,1.254973979E1,-9.799515358E0,1.178026289E2
2.826451083E0,1.020434839E2,1.533342024E1,1.119813484E1,1.037949161E2
2.836454083E0,4.255108644E1,5.172813587E0,-8.948079482E0,4.378836699E1
2.846456083E0,-1.219285498E1,-6.331978481E0,-1.658634874E1,2.153756321E1
2.856458083E0,-4.692971073E1,-1.071341938E1,-1.816505487E1,5.145040643E1
2.866460083E0,-3.255513913E0,6.329308643E0,-1.579777219E1,1.732709222E1
2.876463083E0,-2.782215720E0,6.618692608E0,-2.491677982E1,2.593055597E1
2.886465083E0,-1.182716778E1,3.099545283E0,-3.387757700E1,3.601637547E1
2.896467083E0,-1.104499743E1,1.809312125E0,-1.605901994E1,1.957441443E1
2.906470083E0,-1.072176803E1,1.312915676E0,-6.761167034E0,1.274336835E1
2.916472083E0,-1.096462161E1,6.915432516E-1,-2.239530080E0,1.121234383E1
2.926474083E0,-1.219385135E1,2.675448157E-1,-2.067161472E0,1.237072138E1
2.936476083E0,-1.326567872E1,-4.883419096E-1,-1.918484319E0,1.341257961E1
2.946479083E0,-1.308333213E1,-7.350612272E-1,-1.736431260E0,1.321851309E1
2.956481083E0,-1.466018820E1,-1.018519478E0,-1.610135495E0,1.478347173E1
2.966483083E0,-1.469699993E1,-2.845872749E-1,-2.186790826E0,1.486152250E1
2.976486083E0,-1.418973760E1,-1.823476128E-2,-2.938505362E0,1.449081776E1
2.986488083E0,-1.360445470E1,-4.351658687E-1,-3.286796809E0,1.400262798E1
2.996490083E0,-1.331691670E1,-9.868395558E-1,-3.115322825E0,1.371201514E1
3.006492083E0,-1.288434671E1,-1.254318974E0,-3.001318784E0,1.328862749E1
3.016495083E0,-1.210646471E1,-1.207536279E0,-3.335472541E0,1.261546704E1
3.026497083E0,-1.137713683E1,-1.119227535E0,-3.742389341E0,1.202902284E1
3.036499083E0,-1.087033759E1,-1.072158034E0,-3.879966724E0,1.159171705E1
3.046502083E0,-1.061015404E1,-1.133399285E0,-3.959827995E0,1.138157285E1
3.056504083E0,-1.055756652E1,-1.240830032E0,-4.002522610E0,1.135878767E1
3.066506083E0,-1.060264855E1,-1.395140100E0,-4.006346397E0,1.141986794E1
3.076508083E0,-1.085448112E1,-1.625393220E0,-3.981893341E0,1.167549305E1
3.086511083E0,-1.126190809E1,-1.936808178E0,-4.012322836E0,1.211117394E1
3.096513083E0,-1.185528587E1,-2.332185059E0,-4.079117627E0,1.275249351E1
3.106515083E0,-1.237734750E1,-2.670685344E0,-4.038396447E0,1.329059582E1
3.116518083E0,-1.211498878E1,-2.638846962E0,-3.992185902E0,1.302589785E1
3.126520083E0,-1.174644112E1,-2.474800696E0,-3.872464454E0,1.261346496E1
3.136522083E0,-1.181454247E1,-2.272726770E0,-3.786084999E0,1.261281651E1
3.146524083E0,-1.207717835E1,-2.051285112E0,-3.829045077E0,1.283462480E1
3.156527083E0,-1.187259480E1,-1.886191902E0,-3.679728239E0,1.257205739E1
3.166529083E0,-1.154582666E1,-1.737404822E0,-3.156353906E0,1.209492698E1
3.176531083E0,-1.075183441E1,-1.129688496E0,-2.797552089E0,1.116711409E1
3.186534083E0,-9.971757374E0,-3.124505731E-1,-2.528444806E0,1.029206508E1
3.196536083E0,-9.415016490E0,2.781986070E-1,-1.992384062E0,9.627539884E0
3.206538083E0,-9.035620487E0,7.069621401E-1,-1.245276986E0,9.148384984E0
3.216540083E0,-9.209657013E0,9.195401502E-1,-5.647264266E-1,9.272661556E0
3.226543083E0,-9.962367915E0,1.537249367E0,-6.633432269E-1,1.010207574E1
3.236545083E0,-1.034351399E1,2.885627822E0,-3.359548159E0,1.125174179E1
3.246547083E0,2.210315929E0,3.218565357E0,1.828125893E1,1.869355738E1
3.256550083E0,5.810007246E1,7.755026464E0,6.841956609E1,9.009437208E1
3.266552083E0,1.334269778E2,8.054916707E0,3.379093062E1,1.378748239E2
3.276554083E0,1.304252418E2,1.065000048E1,8.284256784E0,1.311212993E2
3.286557083E0,1.103644647E2,1.015977810E1,-1.623652270E1,1.120141099E2
3.296559083E0,5.850241236E1,-1.392354614E-1,-2.637556891E1,6.417337667E1
3.306561083E0,-2.024169000E1,-8.119841266E0,4.319937542E-2,2.180962408E1
3.316563083E0,-2.588916945E1,-8.705061014E0,-2.935251270E1,4.009485233E1
3.326566083E0,2.018322954E1,6.876256025E0,-3.982719143E1,4.517577701E1
3.336568083E0,-6.819598845E0,6.001283938E0,-7.303538620E1,7.359816556E1
3.346570083E0,-1.469288934E1,2.279773396E0,-4.257712292E1,4.509866694E1
3.356573083E0,-9.249839664E0,1.088943270E0,-5.749571829E0,1.094545145E1
3.366575083E0,-8.884301562E0,6.632189736E-1,-3.962601914E0,9.750532682E0
3.376577083E0,-8.874503383E0,2.932920614E-1,-2.091987580E0,9.122458143E0
3.386579083E0,-8.993814064E0,-1.836956884E-1,-8.969003159E-1,9.040291240E0
3.396582583E0,-9.529406154E0,-5.766304806E-1,-9.233484417E-3,9.546840819E0
3.406584583E0,-1.004135912E1,-9.805317988E-1,2.368338686E-1,1.009189902E1
3.416586583E0,-9.980946858E0,-1.316941046E0,6.921290696E-1,1.009121779E1
3.426589583E0,-1.085325788E1,-1.794299838E0,2.381355173E0,1.125537964E1
3.436591583E0,-1.245794201E1,-2.319655061E0,5.665176626E0,1.388075448E1
3.446593583E0,-1.269425606E1,-2.364403364E0,8.799349705E0,1.562571904E1
3.456595583E0,-1.231537052E1,-1.890888093E0,1.120094618E1,1.675425332E1
3.466598583E0,-1.163025694E1,-1.193725594E0,1.070116829E1,1.584938043E1
3.476600583E0,-1.155627095E1,-1.232987600E0,7.621934481E0,1.389825680E1
3.486602583E0,-1.163905583E1,-1.342131582E0,4.528854464E0,1.256102944E1
3.496605583E0,-1.153845566E1,-1.178228718E0,2.695989754E0,1.190766739E1
3.506607583E0,-1.154915489E1,-8.623058492E-1,2.012539268E0,1.175486556E1
3.516609583E0,-1.141996534E1,-5.957263175E-1,1.937165004E0,1.159840965E1
3.526611583E0,-1.103350766E1,-4.128086011E-1,1.960806466E0,1.121398520E1
3.536614583E0,-1.099667137E1,-1.111560373E0,2.288593336E0,1.128716116E1
3.546616583E0,-1.123834498E1,-1.799499182E0,2.057374402E0,1.156595800E1
3.556618583E0,-1.093653626E1,-1.904823323E0,1.653113115E0,1.122358946E1
3.566621583E0,-1.053715038E1,-1.831627293E0,1.675181676E0,1.082555451E1
3.576623583E0,-1.043584854E1,-1.936260147E0,2.031134437E0,1.080655103E1
3.586625583E0,-1.052847311E1,-2.317320853E0,2.707836213E0,1.111535420E1
3.596627583E0,-1.053617741E1,-2.737208531E0,3.339167104E0,1.138654389E1
3.606630583E0,-1.037109180E1,-2.951291469E0,3.632201486E0,1.137816128E1
3.616632583E0,-1.007039405E1,-2.838173574E0,3.870541012E0,1.115567808E1
3.626634583E0,-9.778631442E0,-2.637238685E0,4.030981593E0,1.090070976E1
3.636637583E0,-9.616569428E0,-2.306024032E0,3.856771697E0,1.061465225E1
3.646639583E0,-9.577777830E0,-1.878696502E0,3.737419792E0,1.045139395E1
3.656641583E0,-9.632179155E0,-1.590675084E0,4.018866162E0,1.055748113E1
3.666643583E0,-9.658427306E0,-1.329484347E0,4.530707739E0,1.075081668E1
3.676646583E0,-9.599941117E0,-1.035638298E0,5.131878984E0,1.093469698E1
3.686648583E0,-9.553924114E0,-7.424201674E-1,6.480761468E0,1.156844514E1
3.696650583E0,-9.512897710E0,-5.087413467E-1,8.076403470E0,1.248928876E1
3.706653583E0,-9.443923954E0,-4.175443342E-1,8.416617866E0,1.265707309E1
3.716655583E0,-8.979083759E0,-3.101754580E-1,1.020287559E1,1.359480872E1
3.726657583E0,1.277609019E0,2.571700169E0,2.431270163E1,2.448169494E1
3.736659583E0,4.262730138E1,4.920440742E0,6.311979951E1,7.632435162E1
3.746662583E0,1.007447097E2,2.134725318E0,3.947938033E1,1.082251128E2
3.756664583E0,1.332309511E2,2.069338390E0,-2.351868951E1,1.353066785E2
3.766666583E0,1.277052855E2,1.066370518E1,-2.042270810E1,1.297668739E2
3.776669583E0,8.927295905E1,4.029008743E0,-1.033448004E1,8.995941089E1
3.786671583E0,1.289761755E1,-7.315798827E0,-1.318356393E1,1.984126530E1
3.796673583E0,-3.044423698E1,-9.520252923E0,-2.509721788E1,4.058764746E1
3.806675583E0,1.744028664E1,7.461566990E0,-4.172750377E1,4.583691908E1
3.816678583E0,-4.043746065E0,7.221607200E0,-6.480261882E1,6.532903565E1
3.826680583E0,-1.384824267E1,2.728352631E0,-4.022376831E1,4.262826843E1
3.836682583E0,-9.545563180E0,9.458261620E-1,-8.333254112E0,1.270651359E1
3.846685583E0,-8.840645666E0,-1.696541299E-1,-3.768110073E0,9.611683090E0
3.856687583E0,-8.994636768E0,-7.384742470E-1,-9.675756115E-1,9.076620371E0
3.866689583E0,-9.554344529E0,-9.641944590E-1,3.238258195E-1,9.608331463E0
3.876691583E0,-1.041447229E1,-1.347926903E0,2.051090400E0,1.069977158E1
3.886694583E0,-1.126189873E1,-1.891539473E0,4.210004625E0,1.217096642E1
3.896696583E0,-1.199690309E1,-2.503689742E0,6.473109802E0,1.385984476E1
3.906698583E0,-1.227278642E1,-2.845584335E0,8.483431660E0,1.518839193E1
3.916701583E0,-1.191148463E1,-2.675122211E0,9.295873039E0,1.534447785E1
3.926703583E0,-1.097984308E1,-2.307845147E0,8.724773147E0,1.421283820E1
3.936705583E0,-1.051336859E1,-2.259258440E0,7.326251310E0,1.301188403E1
3.946707583E0,-1.051576010E1,-2.287864334E0,5.415285341E0,1.204744160E1
3.956710583E0,-1.072368826E1,-2.419207270E0,3.958293686E0,1.168409785E1
3.966712583E0,-1.147397373E1,-2.650907137E0,3.261539469E0,1.221953443E1
3.976714583E0,-1.221495044E1,-2.602290755E0,3.494644568E0,1.296878838E1
3.986717583E0,-1.245960262E1,-2.365354998E0,3.367127320E0,1.312151471E1
3.996719583E0,-1.155087397E1,-2.097403271E0,2.802363471E0,1.206959117E1
4.006721583E0,-1.090866375E1,-1.994003887E0,2.307270512E0,1.132689250E1
4.016723583E0,-1.114290789E1,-2.261478481E0,2.430685062E0,1.162699063E1
4.026726583E0,-1.151422714E1,-2.516237574E0,2.864416755E0,1.212904619E1
4.036728583E0,-1.142359763E1,-2.269863242E0,3.051727338E0,1.204009559E1
4.046730583E0,-1.097995418E1,-1.761079613E0,3.226460853E0,1.157889653E1
4.056733583E0,-1.072322399E1,-1.490125048E0,3.034641774E0,1.124353397E1
4.066735583E0,-1.075907093E1,-1.712742728E0,2.698892312E0,1.122386362E1
4.076737583E0,-1.076895974E1,-2.267233603E0,2.972156088E0,1.139932252E1
4.086739583E0,-1.046048169E1,-2.659958627E0,3.892627115E0,1.147386609E1
4.096742583E0,-9.754749075E0,-3.049892482E0,5.174277145E0,1.145557147E1
4.106744583E0,-9.248165022E0,-3.555046306E0,6.376809669E0,1.178264028E1
4.116746583E0,-9.394727821E0,-3.800149599E0,7.224337850E0,1.244560586E1
4.126748583E0,-9.696584482E0,-3.388370839E0,7.758452933E0,1.287238903E1
4.136751583E0,-9.999753842E0,-2.747724749E0,7.818107396E0,1.298721954E1
4.146753583E0,-1.023133983E1,-2.203028544E0,7.701621505E0,1.299417652E1
4.156755583E0,-1.028206443E1,-1.622796471E0,8.322008747E0,1.332704569E1
4.166758583E0,-1.020324630E1,-1.145788731E0,9.216266706E0,1.379705182E1
4.176760583E0,-9.993925338E0,-8.360647148E-1,9.324973462E0,1.369425711E1
4.186762583E0,-1.021465305E1,-1.012951540E0,9.409554605E0,1.392497489E1
4.196764583E0,-1.152276407E1,-1.861226922E0,1.222833823E1,1.690474825E1
4.206767583E0,-8.789135789E0,-2.393824507E0,2.091269542E1,2.281052681E1
4.216769583E0,1.100610293E1,-5.981580648E-1,3.450229586E1,3.622016723E1
4.226771583E0,6.494473891E1,-1.744914401E0,6.721191959E1,9.347890657E1
4.236774583E0,1.357819462E2,-5.377658508E0,1.270788826E1,1.364813048E2
4.246776583E0,1.457012284E2,8.266100594E0,-1.267620220E1,1.464850247E2
4.256778583E0,1.326797691E2,1.244205513E1,-1.819184798E1,1.344978409E2
4.266781583E0,5.827493228E1,-2.011456949E0,-1.854299082E1,6.118705909E1
4.276783583E0,-3.662901473E1,-2.039694059E1,-2.856804557E1,5.073315615E1
4.286785583E0,-2.415452743E1,-4.648569188E0,-2.678271755E1,3.636432799E1
4.296787583E0,2.080723972E1,1.639907061E1,-2.608481260E1,3.717913649E1
4.306790583E0,-1.019677227E1,1.183758167E1,-8.802231915E1,8.939816090E1
4.316792583E0,-1.403506822E1,5.766974897E0,-5.779886601E1,5.975742675E1
4.326794583E0,-6.933013194E0,2.063668638E0,-7.347379054E0,1.031064397E1
4.336796583E0,-7.116153835E0,5.824331112E-1,-7.733694068E-1,7.181711076E0
4.346799583E0,-8.460333989E0,-4.268356329E-1,4.666548792E0,9.671407213E0
4.356801583E0,-9.703945541E0,-5.604042379E-1,7.491279616E0,1.227191437E1
4.366803583E0,-1.030935456E1,-1.936341643E-1,7.902981486E0,1.299143571E1
4.376806583E0,-1.039817142E1,1.793701010E-1,8.551833558E0,1.346432322E1
4.386808583E0,-1.037704894E1,3.977867386E-1,9.098002092E0,1.380633989E1
4.396810625E0,-1.001688151E1,1.407491685E-1,9.398292868E0,1.373628896E1
4.406812625E0,-1.047988743E1,-9.087886555E-1,9.359362691E0,1.408018492E1
4.416815625E0,-1.154353572E1,-2.109549254E0,8.531497527E0,1.450826885E1
4.426817625E0,-1.201682690E1,-2.880716453E0,7.287443925E0,1.434606200E1
4.436819625E0,-1.205632016E1,-3.434209501E0,5.753426313E0,1.379313471E1
4.446821625E0,-1.199954837E1,-3.675339319E0,4.303454826E0,1.326714000E1
4.456824625E0,-1.183883414E1,-3.848836148E0,3.667901076E0,1.297786700E1
4.466826625E0,-1.194294265E1,-4.218592723E0,4.066850753E0,1.330299510E1
4.476828625E0,-1.260091813E1,-4.286762779E0,4.293659570E0,1.398552771E1
4.486831625E0,-1.308677848E1,-3.566586370E0,3.765874683E0,1.407714891E1
4.496833625E0,-1.338444152E1,-3.534767577E0,3.235165018E0,1.421633389E1
4.506835625E0,-1.324678520E1,-3.729606743E0,2.473449404E0,1.398231871E1
4.516837625E0,-1.274732306E1,-3.382668634E0,1.707840714E0,1.329862444E1
4.526840625E0,-1.204847787E1,-2.690891275E0,8.792949343E-1,1.237658574E1
4.536842625E0,-1.148902330E1,-2.080781245E0,-2.100356407E-3,1.167592871E1
4.546844625E0,-1.114172675E1,-1.399597432E0,-1.118698069E0,1.128487631E1
4.556847625E0,-1.105222810E1,-9.468816575E-1,-2.202526853E0,1.130926414E1
4.566849625E0,-1.107764946E1,-7.044042756E-1,-2.938665576E0,1.148243259E1
4.576851625E0,-1.111575576E1,-5.955161101E-1,-3.227380620E0,1.159011006E1
4.586853625E0,-1.109085130E1,-5.679814619E-1,-3.270965180E0,1.157708075E1
4.596856625E0,-1.108606594E1,-5.653337330E-1,-2.928083870E0,1.148016269E1
4.606858625E0,-1.117210772E1,-7.330097316E-1,-2.135789803E0,1.139802142E1
4.616860625E0,-1.141408070E1,-1.036463779E0,-9.775931344E-1,1.150265986E1
4.626862625E0,-1.175191177E1,-1.200004773E0,5.646999680E-2,1.181315498E1
4.636865625E0,-1.198910291E1,-9.340518431E-1,1.060735205E0,1.207212494E1
4.646867625E0,-1.195192865E1,-3.425956741E-3,2.112606617E0,1.213720383E1
4.656869625E0,-1.133850895E1,1.344146824E0,3.448255098E0,1.192723686E1
4.666872625E0,-1.063362476E1,2.530675519E0,6.993192737E0,1.297624903E1
4.676874625E0,-9.804535192E0,3.131323146E0,1.442007814E1,1.771645417E1
4.686876625E0,-8.177300100E0,3.673566151E0,2.023134277E1,2.212850098E1
4.696878625E0,-4.931196696E0,3.630066667E0,2.329494697E1,2.408627491E1
4.706881625E0,3.899836732E0,3.382588820E0,3.189702682E1,3.231208681E1
4.716883625E0,2.936559877E1,3.725502875E0,4.541557657E1,5.421062957E1
4.726885625E0,9.616216724E1,-1.436479330E0,3.437466283E1,1.021315002E2
4.736888625E0,1.374699485E2,-1.145562868E1,1.548143432E1,1.388124381E2
4.746890625E0,1.391852129E2,-1.091856718E0,-1.579827037E1,1.400831931E2
4.756892625E0,9.371575770E1,-1.272511767E1,-3.694115547E1,1.015343333E2
4.766894625E0,7.357880069E0,-2.442787307E1,-5.587222717E0,2.611659318E1
4.776897625E0,1.066740998E1,-6.420169111E0,-2.855473731E1,3.115100688E1
4.786899625E0,1.349959074E1,5.398983888E0,-1.237773693E2,1.246283480E2
4.796901625E0,-1.621743271E1,-2.263922325E0,-9.034072612E1,9.181272931E1
4.806904625E0,-1.908493767E0,-1.716355430E0,-2.712836752E0,3.734662992E0
4.816906625E0,-1.348070306E0,-1.373427195E0,5.589601949E0,5.911619555E0
4.826908625E0,-3.818361045E0,-1.016132498E0,7.976693825E0,8.901688081E0
4.836910625E0,-6.330816055E0,-5.703535677E-1,6.830705631E0,9.330759590E0
4.846913625E0,-8.546390385E0,-7.963063527E-1,6.051929011E0,1.050241578E1
4.856915625E0,-9.516171566E0,-1.056402857E0,6.235057958E0,1.142582408E1
4.866917625E0,-9.966597791E0,-1.161796507E0,6.670573783E0,1.204904134E1
4.876919625E0,-1.020589860E1,-1.162732866E0,7.205892223E0,1.254739800E1
4.886922625E0,-1.044219160E1,-1.103532439E0,8.093398987E0,1.325746041E1
4.896924625E0,-1.083471519E1,-1.081682929E0,9.691206797E0,1.457671363E1
4.906926625E0,-1.089444566E1,-9.361884157E-1,1.161144762E1,1.594964297E1
4.916928625E0,-1.029953123E1,-6.823691165E-1,1.435631893E1,1.768190783E1
4.926931625E0,-9.318083103E0,-8.569677068E-1,1.753673530E1,1.987707602E1
4.936933625E0,-6.372485068E0,-2.968023861E0,2.133200627E1,2.246045910E1
4.946935625E0,-6.902032891E0,-3.989731826E0,1.786534882E1,1.956340222E1
4.956938625E0,-6.861617521E0,-3.703791578E0,1.437792439E1,1.635617855E1
4.966940625E0,-7.058372235E0,-3.067907168E0,1.236708798E1,1.456631518E1
4.976942625E0,-7.737977153E0,-2.609836879E0,1.099600011E1,1.369669877E1
4.986944625E0,-8.085777726E0,-1.815856037E0,1.025591217E1,1.318563116E1
4.996947625E0,-8.135263297E0,-2.406598480E-1,1.020086181E1,1.304982788E1
5.006949625E0,-8.407093921E0,9.136564625E-1,9.920942731E0,1.303606923E1
5.016951625E0,-8.956693016E0,1.309043942E0,8.929374824E0,1.271493927E1
5.026953625E0,-9.397760772E0,1.713126305E0,8.320115418E0,1.266795287E1
5.036956625E0,-9.750283556E0,2.116143597E0,7.939567514E0,1.275079705E1
5.046958625E0,-9.776266828E0,2.466216983E0,7.027783695E0,1.229013275E1
5.056960625E0,-9.146158590E0,3.102453980E0,6.038962811E0,1.139063253E1
5.066963625E0,-8.864943770E0,3.111212817E0,5.258279999E0,1.076644704E1
5.076965625E0,-8.820759285E0,2.265068672E0,5.598103800E0,1.068995307E1
5.086967625E0,-8.365672830E0,1.443846529E0,6.921145100E0,1.095314677E1
5.096969625E0,-7.457655203E0,1.134118054E0,7.972117209E0,1.097531310E1
5.106972625E0,-6.840458786E0,8.943230094E-1,8.558579491E0,1.099276912E1
5.116974625E0,-6.542801596E0,6.454220957E-1,8.951511213E0,1.110650149E1
5.126976625E0,-6.334291640E0,6.816685469E-1,9.534924756E0,1.146746322E1
5.136978625E0,-6.184612275E0,7.795083985E-1,1.014528168E1,1.190730040E1
5.146981625E0,-6.070828382E0,8.435433036E-1,1.098848760E1,1.258226460E1
5.156983625E0,-5.890726538E0,8.881480573E-1,1.182055575E1,1.323688046E1
5.166985625E0,-5.618558530E0,1.216160483E0,1.297608952E1,1.419246792E1
5.176988625E0,-5.417178669E0,1.625944612E0,1.415090507E1,1.523934497E1
5.186990625E0,-5.536985194E0,1.505099768E0,1.529321829E1,1.633419897E1
5.196992625E0,-6.265410270E0,1.605562095E0,1.681812419E1,1.801894827E1
5.206994625E0,-5.810760602E0,8.311624092E-1,1.881419872E1,1.970862357E1
5.216997625E0,7.298810327E-1,5.810096066E-1,2.251519504E1,2.253451366E1
5.226999625E0,1.711044755E1,-1.134400475E0,3.958399404E1,4.313869335E1
5.237001625E0,6.683170089E1,-1.265221692E1,4.735054185E1,8.287719017E1
5.247003625E0,1.378741361E2,-3.025245766E1,-1.942443052E1,1.424843750E2
5.257006625E0,1.254387550E2,-5.084191900E1,-1.974710911E1,1.367835162E2
5.267008625E0,1.107346168E2,-4.150927633E1,-2.134939121E1,1.201705949E2
5.277010625E0,7.112521779E1,-2.033979225E1,-1.501213913E1,7.548422401E1
5.287013625E0,-4.151112639E0,1.181403318E0,1.311755939E1,1.380933794E1
5.297015625E0,1.255328320E1,1.973780736E1,-5.823983495E0,2.410569938E1
5.307017625E0,1.239701286E1,1.451274598E1,-4.984811219E1,5.337733613E1
5.317019625E0,-1.822410941E1,9.490942439E-1,-6.214926463E1,6.477306568E1
5.327022625E0,-1.546209173E1,-2.173041099E0,-2.120104735E1,2.633026390E1
5.337024625E0,-1.071908299E1,-1.098682466E0,-5.400105969E0,1.205267554E1
5.347026625E0,-8.920582951E0,-1.959556368E-1,1.828017514E0,9.108064933E0
5.357028625E0,-8.688310495E0,3.164376432E-1,3.786953310E0,9.483031552E0
5.367031625E0,-8.569068811E0,5.886197212E-1,4.239083998E0,9.578373902E0
5.377033625E0,-8.400087202E0,8.005675842E-1,4.862956765E0,9.739133532E0
5.387035625E0,-8.290808004E0,9.489573459E-1,5.427111919E0,9.954474430E0
5.397037208E0,-8.154390709E0,1.049356816E0,5.866123794E0,1.009983396E1
5.407040208E0,-8.040326734E0,1.076651326E0,6.323240987E0,1.028539784E1
5.417042208E0,-7.852149301E0,1.162735351E0,6.871209294E0,1.049865321E1
5.427044208E0,-7.692362439E0,1.297579307E0,7.380256779E0,1.073891717E1
5.437047208E0,-7.769809395E0,1.330366984E0,7.796280910E0,1.108701089E1
5.447049208E0,-8.083902524E0,1.316814600E0,8.133588654E0,1.154290887E1
5.457051208E0,-8.519649314E0,1.251770027E0,8.494293448E0,1.209563449E1
5.467053208E0,-8.756328816E0,1.144179285E0,8.961176661E0,1.258114175E1
5.477056208E0,-8.999165436E0,7.479899327E-1,9.015867423E0,1.276049893E1
5.487058208E0,-9.210246997E0,1.185713739E-1,8.224012921E0,1.234816170E1
5.497060208E0,-8.918230031E0,-1.903544976E-1,7.555940466E0,1.169030787E1
5.507062208E0,-9.283096288E0,-1.105707310E0,8.463618954E0,1.261076172E1
5.517065208E0,-9.876836014E0,-2.421640442E0,9.110528582E0,1.365349637E1
5.527067208E0,-9.666566046E0,-2.829081153E0,8.676258214E0,1.329374499E1
5.537069208E0,-9.259665325E0,-2.372649254E0,9.440044327E0,1.343448188E1
5.547071208E0,-8.431375653E0,-2.194225853E0,1.013064610E1,1.336161341E1
5.557074208E0,-8.590988853E0,-2.397613648E0,1.154728261E1,1.459086620E1
5.567076208E0,-8.459611273E0,-2.104059449E0,1.285343599E1,1.553070847E1
5.577078208E0,-7.637023805E0,-1.948164640E0,1.219474948E1,1.452003419E1
5.587081208E0,-7.127535440E0,-2.344220676E0,1.133809263E1,1.359593603E1
5.597083208E0,-7.324252147E0,-3.022377824E0,1.138356292E1,1.386956891E1
5.607085208E0,-7.813912604E0,-3.381145434E0,1.226429860E1,1.492991610E1
5.617087208E0,-7.958801930E0,-3.215189175E0,1.310904468E1,1.566930190E1
5.627090208E0,-7.848555018E0,-2.823672771E0,1.381223434E1,1.613538848E1
5.637092208E0,-8.048520437E0,-2.669974615E0,1.405848866E1,1.641793376E1
5.647094208E0,-8.356818976E0,-2.602055697E0,1.343713546E1,1.603632522E1
5.657096208E0,-8.395735704E0,-2.505038110E0,1.228533922E1,1.508950476E1
5.667099208E0,-8.107113047E0,-2.339826493E0,1.128777617E1,1.409304654E1
5.677101208E0,-7.525236152E0,-2.052376202E0,1.044829376E1,1.303872193E1
5.687103208E0,-6.910795528E0,-1.762907014E0,9.657016373E0,1.200520309E1
5.697105208E0,-6.405370978E0,-1.700418259E0,8.682274999E0,1.092255001E1
5.707108208E0,-6.287059001E0,-1.760991905E0,8.107787815E0,1.040982356E1
5.717110208E0,-6.340216624E0,-1.532240935E0,8.176130072E0,1.045921661E1
5.727112208E0,-5.916344360E0,-9.325791487E-1,8.837330294E0,1.067573141E1
5.737115208E0,1.659370220E0,2.317988312E-1,2.950924381E1,2.955677097E1
5.747117208E0,2.853782482E1,5.113914583E0,5.507472309E1,6.223973563E1
5.757119208E0,6.532398464E1,-7.908989207E-1,2.525812390E0,6.537758192E1
5.767121208E0,1.418774206E2,5.655274951E0,-2.360976574E1,1.439395903E2
5.777124208E0,1.721323739E2,1.292114207E1,-3.437770105E1,1.760066373E2
5.787126208E0,1.278590907E2,4.156917462E0,-2.812338119E1,1.309814933E2
5.797128208E0,1.317829793E1,-9.643468959E0,-3.828095489E0,1.677254736E1
5.807130208E0,-3.592413288E1,-7.735003259E0,-1.585759038E-1,3.674777197E1
5.817133208E0,1.309339870E1,6.910027204E0,-8.597809045E0,1.712039386E1
5.827135208E0,5.278418979E0,5.718417279E0,-7.202884415E0,1.060394016E1
5.837137208E0,-6.300403517E0,3.744382949E0,-1.114323650E1,1.333743633E1
5.847140208E0,-1.197877088E1,2.750940717E0,-2.278568957E1,2.588911501E1
5.857142208E0,-1.335235083E1,1.024238347E0,-1.987093443E1,2.396222803E1
5.867144208E0,-1.258089960E1,2.379903748E-1,-1.105758649E1,1.675129527E1
5.877146208E0,-1.113982290E1,-1.807849444E-2,-1.202725482E0,1.120457628E1
5.887149208E0,-1.244233696E1,-4.294742255E-1,-3.616152048E-2,1.244979939E1
5.897151208E0,-1.327564238E1,-5.326779472E-1,4.804224408E-1,1.329500779E1
5.907153208E0,-1.466495251E1,-7.037001246E-1,9.325192147E-1,1.471141115E1
5.917155208E0,-1.549456833E1,-6.475740172E-1,1.329212451E0,1.556495441E1
5.927158208E0,-1.524303866E1,-4.011244755E-1,1.548756688E0,1.532676664E1
5.937160208E0,-1.475719117E1,-2.616205812E-1,1.506277835E0,1.483617233E1
5.947162208E0,-1.478329899E1,-2.507210058E-1,1.929599876E0,1.491080634E1
5.957164208E0,-1.465893690E1,4.918834220E-1,2.344027279E0,1.485331088E1
5.967167208E0,-1.308442439E1,1.738189372E0,2.288400232E0,1.339627708E1
5.977169208E0,-1.130220943E1,3.342753493E0,2.828421880E0,1.212080481E1
5.987171208E0,-1.043282553E1,5.467898587E0,2.741385782E0,1.209367436E1
5.997173208E0,-9.722433853E0,8.001747975E0,1.906904494E0,1.273538281E1
6.007176208E0,-8.834359909E0,9.528818509E0,-4.836813864E-1,1.300300907E1
6.017178208E0,-8.286868150E0,8.101921889E0,-2.248960177E0,1.180555564E1
6.027180208E0,-7.451648943E0,5.270718781E0,1.861516652E-1,9.129194974E0
6.037182208E0,-7.215202745E0,2.723335720E0,5.722934838E0,9.603524939E0
6.047185208E0,-7.255601158E0,1.440785512E0,9.638521630E0,1.214992635E1
6.057187208E0,-6.873877378E0,1.246617314E0,1.213449509E1,1.400179332E1
6.067189208E0,-5.859906449E0,1.590765131E0,1.403283108E1,1.529017284E1
6.077191208E0,-5.165693432E0,1.658502640E0,1.432344822E1,1.531653318E1
6.087194208E0,-4.514139946E0,1.754489070E0,1.496620223E1,1.573031788E1
6.097196208E0,-3.772783753E0,2.676919060E0,1.681046317E1,1.743535101E1
6.107198208E0,-4.499949923E0,3.031315000E0,1.801466331E1,1.881399783E1
6.117201208E0,-6.416516941E0,2.640780929E0,1.729319643E1,1.863330503E1
6.127203208E0,-7.603494117E0,2.313440640E0,1.633219952E1,1.816331114E1
6.137205208E0,-8.079977873E0,2.166452602E0,1.603646138E1,1.808722347E1
6.147207208E0,-8.617652156E0,1.977691763E0,1.456389859E1,1.703767401E1
6.157210208E0,-8.651837903E0,1.786437233E0,1.267822066E1,1.545260289E1
6.167212208E0,-8.251929867E0,1.670467797E0,1.156856882E1,1.430792066E1
6.177214208E0,-7.913567870E0,1.410941323E0,1.060300406E1,1.330560059E1
6.187216208E0,-7.973688356E0,6.247814244E-1,8.935333137E0,1.199209056E1
6.197219208E0,-8.095553686E0,-3.908885591E-2,7.248303832E0,1.086634372E1
6.207221208E0,-8.003707961E0,3.593903393E-2,6.567908370E0,1.035364927E1
6.217223208E0,-7.934595627E0,9.214480966E-2,6.273619176E0,1.011556207E1
6.227225208E0,-8.145635673E0,-2.510791478E-1,6.190661219E0,1.023419306E1
6.237228208E0,-8.008207394E0,-1.609049082E0,7.980489838E0,1.141966036E1
6.247230208E0,2.527458381E0,-3.679221286E0,2.753261594E1,2.789210741E1
6.257232208E0,3.962847497E1,-7.450103524E0,6.377374276E1,7.545203998E1
6.267234208E0,9.421907667E1,-1.572733078E1,7.036585626E1,1.186420544E2
6.277237208E0,1.439619109E2,-1.426940007E1,-9.323591180E0,1.449675030E2
6.287239208E0,1.199173369E2,-1.589864485E1,-9.495707481E0,1.213387945E2
6.297241208E0,9.952639318E1,-1.643378553E1,-1.607053545E1,1.021461421E2
6.307244208E0,5.800886993E1,-1.530281474E1,-1.644603779E1,6.220673025E1
6.317246208E0,4.669463629E-1,-1.903914111E1,-1.620876129E1,2.500861602E1
6.327248208E0,-5.702875029E1,-2.315728480E1,-1.233427691E1,6.277477667E1
6.337250208E0,-2.873145653E1,-1.335715870E0,-2.472713357E1,3.793035547E1
6.347253208E0,-5.751606075E0,5.412519608E0,-1.945149494E1,2.099373707E1
6.357255208E0,5.192802878E0,4.988956661E0,-7.592134731E0,1.046400497E1
6.367257208E0,-4.143249303E-1,3.411621122E0,-6.428576238E0,7.289541569E0
6.377259208E0,-6.365188327E0,2.274679740E0,-4.785515072E0,8.281965036E0
6.387262208E0,-9.389998593E0,1.425003292E0,-2.092756489E0,9.725345119E0
6.397263958E0,-1.013774345E1,1.101981099E0,-6.927120370E-1,1.022096153E1
6.407265958E0,-1.024639408E1,9.510650479E-1,-3.744170622E-1,1.029724742E1
6.417267958E0,-1.050644548E1,7.358787411E-1,-2.357538513E-1,1.053482293E1
6.427270958E0,-1.081670693E1,5.227355976E-1,-1.392427065E-1,1.083022576E1
6.437272958E0,-1.114018309E1,3.031848559E-1,5.270329356E-2,1.114443260E1
6.447274958E0,-1.137788995E1,1.958387108E-1,1.844247083E-1,1.138106959E1
6.457276958E0,-1.144750456E1,1.935499278E-1,2.051127420E-1,1.145097784E1
6.467279958E0,-1.140903806E1,1.918347933E-1,2.724211925E-1,1.141390220E1
6.477281958E0,-1.150325308E1,2.194767013E-1,4.213866127E-1,1.151306076E1
6.487283958E0,-1.186958465E1,2.035522115E-1,6.792382979E-1,1.189074589E1
6.497285958E0,-1.205358834E1,2.966520176E-1,1.015608734E0,1.209993617E1
6.507288958E0,-1.177282376E1,1.391288247E0,1.733024672E0,1.198075276E1
6.517290958E0,-1.141598456E1,2.984103704E0,2.314282347E0,1.202437030E1
6.527292958E0,-1.161690190E1,3.577203745E0,2.421924909E0,1.239413235E1
6.537294958E0,-1.217830477E1,3.396686164E0,2.255598521E0,1.284275316E1
6.547297958E0,-1.262870761E1,2.832635091E0,1.920401037E0,1.308418960E1
6.557299958E0,-1.260824703E1,2.004180820E0,1.322306889E0,1.283484045E1
6.567301958E0,-1.217209035E1,1.768724847E0,9.822550464E-1,1.233908409E1
6.577303958E0,-1.183296354E1,2.104481326E0,8.724045753E-1,1.205026794E1
6.587306958E0,-1.148004431E1,2.330113976E0,8.057568419E-1,1.174180960E1
6.597308958E0,-1.118039322E1,2.519014417E0,8.150982805E-1,1.148960449E1
6.607310958E0,-1.085332921E1,2.738275941E0,9.150377941E-1,1.123077042E1
6.617312958E0,-1.054298590E1,2.976790299E0,1.013499058E0,1.100195494E1
6.627315958E0,-1.036018440E1,3.068640409E0,1.095162442E0,1.086044914E1
6.637317958E0,-1.038182261E1,2.891990762E0,1.087365764E0,1.083181497E1
6.647319958E0,-1.045874390E1,2.576016583E0,1.004282604E0,1.081802981E1
6.657322958E0,-1.060425303E1,2.225985736E0,1.051094243E0,1.088622956E1
6.667324958E0,-1.064213363E1,1.923279767E0,1.147907908E0,1.087527958E1
6.677326958E0,-1.053666857E1,1.823349682E0,1.382492280E0,1.078226663E1
6.687328958E0,-1.035420621E1,1.925521005E0,1.823241216E0,1.068837807E1
6.697331958E0,-1.010401671E1,2.237588512E0,2.432731733E0,1.063090494E1
6.707333958E0,-9.744043992E0,2.957987700E0,3.222732668E0,1.068092180E1
6.717335958E0,-9.435652483E0,3.753510160E0,4.718467973E0,1.119751385E1
6.727337958E0,-9.239825723E0,3.592756754E0,9.213849467E0,1.353430096E1
6.737340958E0,-8.402722542E0,1.838549227E0,1.883718529E1,2.070810371E1
6.747342958E0,-4.242622733E0,-2.191243335E0,2.888869284E1,2.928067569E1
6.757344958E0,1.745001875E1,-7.920102718E0,4.586917082E1,4.971128658E1
6.767346958E0,4.874838658E1,-1.608211293E1,5.700269510E1,7.670949615E1
6.777349958E0,1.058688540E2,-1.926401917E1,-3.645736620E0,1.076689745E2
6.787351958E0,1.196187453E2,-3.173209792E1,-5.617808332E0,1.238835341E2
6.797353958E0,1.043281267E2,-3.433467256E1,-9.972834431E0,1.102845646E2
6.807355958E0,5.469478972E1,-3.015692351E1,-1.706823182E1,6.474785399E1
6.817358958E0,-7.918357909E0,-6.930076137E0,1.947759457E1,2.213827088E1
6.827360958E0,3.865045214E0,-4.073575343E0,-1.658068513E1,1.750576219E1
6.837362958E0,1.394953398E1,-7.802752608E0,-3.084235518E1,3.473792336E1
6.847364958E0,-3.287956020E0,-5.777703953E0,-3.018140229E1,3.090484691E1
6.857367958E0,-1.158054275E1,-2.900093833E0,-3.144234967E1,3.363243773E1
6.867369958E0,-1.252785600E1,-9.596472256E-1,-2.608958393E1,2.895745998E1
6.877371958E0,-1.089698570E1,5.865757173E-1,-1.390591843E1,1.767662116E1
6.887373958E0,-9.308049865E0,1.737339040E0,-5.924352121E0,1.116942645E1
6.897376958E0,-9.131475062E0,2.132808893E0,-1.673366116E0,9.525380032E0
6.907378958E0,-9.248756175E0,2.233302649E0,-6.723998331E-1,9.538304516E0
6.917380958E0,-9.254821492E0,2.244363681E0,-6.036408162E-1,9.542183786E0
6.927382958E0,-9.339031337E0,2.152240360E0,-7.660371445E-1,9.614388061E0
6.937385958E0,-9.391086175E0,2.146862237E0,-6.887696980E-1,9.657945988E0
6.947387958E0,-9.377038824E0,2.218006187E0,-4.286687350E-1,9.645318317E0
6.957389958E0,-9.336911137E0,2.398020176E0,-1.106502970E-1,9.640573315E0
6.967391958E0,-9.278229650E0,2.588787487E0,1.565767407E-1,9.633892379E0
6.977394958E0,-9.270176280E0,2.692694848E0,1.814801053E-1,9.655035414E0
6.987396958E0,-9.294880182E0,2.782582340E0,-6.527188361E-2,9.702670895E0
6.997398958E0,-9.321164585E0,2.851913361E0,-2.566383880E-1,9.751070829E0
7.007400958E0,-9.446092102E0,2.881836487E0,-4.971010752E-1,9.888414788E0
7.017403958E0,-9.595255158E0,2.869880685E0,-9.278186381E-1,1.005813025E1
7.027405958E0,-9.895395076E0,2.733425091E0,-1.440088524E0,1.036649948E1
7.037407958E0,-1.101136659E1,2.214239849E0,-1.611849314E0,1.134685465E1
7.047409958E0,-1.209620753E1,1.145317299E0,-1.271778760E0,1.221668570E1
7.057412958E0,-1.299492106E1,-4.519068126E-1,-1.033414675E0,1.304377779E1
7.067414958E0,-1.302536401E1,-1.729048273E0,-8.447121620E-2,1.313989539E1
7.077416958E0,-1.190659869E1,-2.346819909E0,8.824629557E-1,1.216771947E1
7.087418958E0,-1.071992031E1,-2.628435995E0,2.408408193E0,1.129715881E1
7.097421958E0,-9.682400306E0,-2.636211330E0,4.772842694E0,1.111208861E1
7.107423958E0,-8.613059753E0,-2.314065708E0,7.267926503E0,1.150488827E1
7.117425958E0,-7.507016228E0,-1.823607983E0,9.786803511E0,1.246845466E1
7.127427958E0,-6.742789820E0,-1.622882133E0,1.163382959E1,1.354418517E1
7.137430958E0,-6.386654626E0,-1.725155928E0,1.275290715E1,1.436670320E1
7.147432958E0,-6.083919128E0,-1.976958669E0,1.399695490E1,1.538951539E1
7.157434958E0,-5.570030733E0,-1.812496227E0,1.551705789E1,1.658582137E1
7.167437958E0,-5.176914824E0,-1.063995905E0,1.634980665E1,1.718280280E1
7.177439958E0,-5.676310894E0,-5.305942189E-1,1.722598736E1,1.814488016E1
7.187441958E0,-6.583452024E0,-6.611940828E-1,1.714118051E1,1.837386969E1
7.197443958E0,-7.279259577E0,-7.885782339E-1,1.628452249E1,1.785483543E1
7.207446958E0,-8.193168858E0,-8.545973917E-1,1.477804000E1,1.691888941E1
7.217448958E0,-8.409540396E0,-8.608073540E-1,1.189190113E1,1.459036228E1
7.227450958E0,-8.224399422E0,-5.391547253E-1,9.039566188E0,1.223295510E1
7.237452958E0,-7.976454674E0,-1.492383572E-1,7.228387631E0,1.076548601E1
7.247455958E0,-7.631689391E0,6.876593300E-2,6.193383683E0,9.828805276E0
7.257457958E0,-7.989862924E0,4.453670673E-2,5.793824726E0,9.869564227E0
7.267459958E0,-7.741118862E0,4.979776825E-1,6.317121291E0,1.000394544E1
7.277461958E0,-1.317140290E0,2.139800555E0,1.906861224E1,1.923344945E1
7.287464958E0,2.134639978E1,1.850398609E0,4.447510105E1,4.936727025E1
7.297466958E0,3.958409227E1,-4.913550968E0,2.131776947E1,4.522710071E1
7.307468958E0,1.246718249E2,3.502081349E0,-5.563910102E1,1.365688034E2
7.317470958E0,1.657230397E2,1.008926536E1,-4.562735805E1,1.721852925E2
7.327473958E0,1.327653630E2,6.224157871E-1,-3.559557783E1,1.374557171E2
7.337475958E0,2.403523722E1,-5.682413341E-1,6.276366198E0,2.484770209E1
7.347477958E0,-2.840431184E-1,8.603261282E-1,-1.858563223E1,1.860770182E1
7.357479958E0,1.260033809E1,-3.897696944E-1,-2.175015002E1,2.513940067E1
7.367482958E0,-3.543774043E0,-1.591198702E0,-1.356428433E1,1.410957325E1
7.377484958E0,-9.195006815E0,-1.520565653E0,-7.074892373E0,1.170104151E1
7.387486958E0,-1.004483588E1,-1.037663993E0,-2.118973650E0,1.031821320E1
7.397489208E0,-9.860820490E0,-4.061573933E-1,-3.214193394E0,1.037939226E1
7.407492208E0,-9.952239368E0,5.005655140E-3,-3.672858346E0,1.060834492E1
7.417494208E0,-1.005760386E1,2.176668419E-1,-4.303328526E0,1.094172795E1
7.427496208E0,-9.624885923E0,4.828150483E-1,-2.897866629E0,1.006325844E1
7.437498208E0,-9.848188165E0,4.483183763E-1,-3.756793372E0,1.054994294E1
7.447501208E0,-9.737267654E0,4.711707569E-1,-3.539600886E0,1.037136238E1
7.457503208E0,-9.672599203E0,5.363624606E-1,-3.431428565E0,1.027723514E1
7.467505208E0,-9.859999541E0,7.080073299E-1,-4.170533581E0,1.072912931E1
7.477507208E0,-9.921744969E0,1.646259740E0,-5.107815937E0,1.128011427E1
7.487510208E0,-1.006160335E1,3.268279262E0,-5.403384503E0,1.187914456E1
7.497512208E0,-1.066849522E1,4.064770314E0,-5.980536262E0,1.288821019E1
7.507514208E0,-1.198340655E1,3.915671284E0,-6.876713862E0,1.436049121E1
7.517516208E0,-1.761465412E1,-5.497270302E-2,-7.626457887E0,1.919484102E1
7.527519208E0,-1.823382047E1,-2.372765467E0,-8.490405634E0,2.025312846E1
7.537521208E0,-2.141811237E1,-4.677385729E0,-8.741618975E0,2.360146981E1
7.547523208E0,-2.088953343E1,-5.853409608E0,-6.709736679E0,2.270805093E1
7.557525208E0,-1.624874689E1,-4.581415671E0,-3.601267376E0,1.726210507E1
7.567528208E0,-1.442750410E1,-4.023493064E0,-1.841129749E0,1.509076306E1
7.577530208E0,-1.279237351E1,-3.398107038E0,-5.396933270E-1,1.324700798E1
7.587532208E0,-1.136129438E1,-2.717952189E0,7.582599092E-1,1.170646113E1
7.597534208E0,-9.713815057E0,-1.781646025E0,2.042432135E0,1.008483984E1
7.607536208E0,-7.668171338E0,-2.508723025E-1,3.073367006E0,8.264948478E0
7.617539208E0,-5.571230582E0,1.550328127E0,4.539222162E0,7.351643717E0
7.627541208E0,-3.762446460E0,3.279537199E0,7.629248178E0,9.116841304E0
7.637543208E0,-3.043309686E0,4.404294153E0,1.072853911E1,1.199004138E1
7.647546208E0,-3.429808887E0,4.313212659E0,1.252225905E1,1.368116823E1
7.657548208E0,-4.512994477E0,2.897797632E0,1.321704743E1,1.426375452E1
7.667550208E0,-5.095675364E0,1.446858722E0,1.510005085E1,1.600221369E1
7.677552208E0,-5.098532313E0,8.528355525E-1,1.686403886E1,1.763854209E1
7.687554208E0,-5.390591379E0,5.824801813E-1,1.709064888E1,1.793008749E1
7.697557208E0,-5.131777242E0,8.897363073E-1,1.674081698E1,1.753230508E1
7.707559208E0,-4.366849753E0,1.594980682E0,1.617724362E1,1.683200973E1
7.717561208E0,-4.229619110E0,1.751157619E0,1.466943382E1,1.536712463E1
7.727563208E0,-4.786819001E0,1.544892117E0,1.244037698E1,1.341876698E1
7.737566208E0,-5.229082512E0,1.574344396E0,1.016035581E1,1.153493365E1
7.747568208E0,-4.701247339E0,1.799717722E0,9.119707541E0,1.041680258E1
7.757570208E0,-4.826518672E0,1.758132032E0,7.292587135E0,8.920097413E0
7.767572208E0,-5.499466535E0,1.638314981E0,4.943090517E0,7.573793766E0
7.777575208E0,-3.492558281E0,1.632200694E0,9.394876340E0,1.015508463E1
7.787577208E0,1.956234762E1,-2.107868033E0,4.861628161E1,5.244684347E1
7.797579208E0,3.855700077E1,-6.292829034E0,3.074204970E1,4.971232871E1
7.807581208E0,1.337409405E2,-7.230879130E0,-2.713638990E1,1.366576322E2
7.817584208E0,1.654002172E2,-4.320268494E0,-1.011606666E1,1.657655917E2
7.827586208E0,1.279385941E2,-1.535705585E1,-5.096472924E0,1.289577336E2
7.837588208E0,6.678718720E1,-1.604963633E1,-1.844072653E0,6.871331607E1
7.847591208E0,8.207095172E0,-2.856922086E0,1.292695420E1,1.557641036E1
7.857593208E0,-1.059907240E1,1.073703599E0,1.925198385E0,1.082587474E1
7.867595208E0,-1.258660882E1,6.282058463E-2,-2.202968903E0,1.277809611E1
7.877597208E0,-7.836547760E0,9.718905643E-2,-2.942611277E0,8.371373104E0
7.887599208E0,-8.088068081E0,1.742929271E-1,-4.634363378E0,9.323333482E0
7.897602208E0,-1.016252629E1,2.200754562E-1,-1.231118860E1,1.596529795E1
7.907604208E0,-1.237559451E1,4.724200145E-1,-1.797975778E1,2.183232030E1
7.917606208E0,-1.126485040E1,6.482066859E-1,-9.332273710E0,1.464268961E1
7.927608208E0,-1.185687631E1,6.004554724E-1,-8.157186263E0,1.440436567E1
7.937611208E0,-1.395333350E1,6.809338443E-2,-4.523406029E0,1.466837941E1
7.947613208E0,-1.685451258E1,-8.311273990E-1,-1.755002748E0,1.696600724E1
7.957615208E0,-1.289250942E1,1.546970802E-1,-3.136710770E0,1.326950205E1
7.967617208E0,-1.103337551E1,7.078408304E-1,-3.325537829E0,1.154537204E1
7.977620208E0,-1.035217956E1,1.140495612E0,-3.491860416E0,1.098460018E1
7.987622208E0,-9.995167286E0,2.224185086E0,-4.651448357E0,1.124661461E1
7.997624208E0,-9.915301337E0,3.618780956E0,-5.759111561E0,1.202398196E1
8.007626208E0,-9.822033570E0,5.151273029E0,-5.676729555E0,1.245926225E1
8.017629208E0,-1.106173567E1,6.563777313E0,-3.575059571E0,1.335013931E1
8.027631208E0,-1.735677437E1,5.029062129E0,-3.786733747E0,1.846316427E1
8.037633208E0,-2.056593916E1,2.477505472E-1,-8.159702904E0,2.212690637E1
8.047635208E0,-1.796438895E1,-1.507437631E0,-7.991765023E0,1.971953212E1
8.057638208E0,-1.557997744E1,-1.108384750E0,-7.413934402E0,1.728961067E1
8.067640208E0,-1.513361620E1,-1.083899900E0,-6.355592462E0,1.644976395E1
8.077642208E0,-1.484440824E1,-9.075635907E-1,-4.899955607E0,1.565853418E1
8.087644208E0,-1.444007561E1,-5.501415704E-1,-3.661291384E0,1.490716251E1
8.097647208E0,-1.387728579E1,-3.149148090E-1,-2.536650789E0,1.411073454E1
8.107649208E0,-1.309960727E1,-1.397680423E-1,-1.693545442E0,1.320936569E1
8.117651208E0,-1.240730980E1,6.572811261E-2,-1.230044843E0,1.246830650E1
8.127653208E0,-1.189394415E1,1.998556383E-1,-8.759976894E-1,1.192783391E1
8.137656208E0,-1.137822558E1,2.394744712E-1,-4.133314518E-1,1.138824869E1
8.147658208E0,-1.077053147E1,2.442311081E-1,2.334479653E-1,1.077582920E1
8.157660208E0,-1.013442224E1,2.587565419E-1,9.920467937E-1,1.018614872E1
8.167662208E0,-9.474784974E0,2.992952149E-1,1.890727733E0,9.666228804E0
8.177664208E0,-8.838585691E0,3.349526323E-1,2.824550146E0,9.284981089E0
8.187667208E0,-8.255800139E0,4.309534615E-1,3.698933711E0,9.056824357E0
8.197669208E0,-7.845627902E0,5.333854969E-1,4.320236042E0,8.972336191E0
8.207671208E0,-7.552564284E0,5.176684736E-1,4.963382109E0,9.052312957E0
8.217673208E0,-7.460893391E0,2.552210230E-1,7.153206471E0,1.033916973E1
8.227676208E0,-7.532418872E0,-8.235145435E-2,1.012321312E1,1.261838182E1
8.237678208E0,-7.519332803E0,-2.011073444E-1,1.149045236E1,1.373358312E1
8.247680208E0,-7.499214873E0,-1.370611469E-1,1.139981116E1,1.364597757E1
8.257682208E0,-6.763248058E0,2.110512290E-2,1.288715571E1,1.455406308E1
8.267685208E0,7.784126887E0,1.962640007E0,3.396880759E1,3.490450510E1
8.277687208E0,2.306714647E1,8.677249025E-1,3.748581659E1,4.402309210E1
8.287689208E0,1.689035835E1,-2.071397780E0,1.309537974E1,2.147239773E1
8.297691208E0,3.783808327E1,-9.565322092E0,-3.572365758E1,5.290931528E1
8.307694208E0,1.232239701E2,5.876856943E0,-7.481221938E1,1.442759592E2
8.317696208E0,1.404318486E2,2.700797920E0,-6.116608104E1,1.531981980E2
8.327698208E0,9.705938272E1,-4.756193624E0,-2.589314555E1,1.005663967E2
8.337700208E0,5.583178782E0,7.352854387E0,-2.827737814E1,2.974636898E1
8.347703208E0,-3.442189781E0,4.737611758E0,-4.245209541E1,4.285410179E1
8.357705208E0,2.756079835E0,2.351339222E0,-2.391875133E1,2.419155715E1
8.367707208E0,7.727104256E0,2.892731604E-1,-8.935827227E0,1.181697200E1
8.377709208E0,3.696597456E0,-1.336709459E0,-1.384507231E0,4.167551464E0
8.387712208E0,-2.267749620E0,-8.842569546E-1,4.370256341E0,5.002373356E0
8.397714208E0,-5.271288300E0,4.032129548E-1,7.525422093E0,9.196795024E0
8.407716208E0,-7.056715134E0,1.172424187E0,9.519593942E0,1.190774856E1
8.417718208E0,-7.759928185E0,1.169390652E0,1.024420254E1,1.290455910E1
8.427721208E0,-8.273953405E0,9.779997352E-1,9.632093786E0,1.273546305E1
8.437723208E0,-8.423507055E0,8.558383901E-1,8.871256424E0,1.226324268E1
8.447725208E0,-8.391839705E0,1.006495483E0,8.035623234E0,1.166221452E1
8.457727208E0,-8.404985415E0,1.225124996E0,6.999912942E0,1.100652044E1
8.467730208E0,-8.416351233E0,1.344164951E0,5.965027108E0,1.040304263E1
8.477732208E0,-8.503704541E0,1.330599118E0,5.084506597E0,9.996784097E0
8.487734208E0,-8.589200774E0,1.241136426E0,4.406921307E0,9.733228908E0
8.497736208E0,-8.723675625E0,1.139627520E0,3.913457236E0,9.628936329E0
8.507738208E0,-8.848539991E0,1.053509509E0,3.517999809E0,9.580337412E0
8.517741208E0,-1.033244872E1,3.068982033E-1,3.462533414E0,1.090150543E1
8.527743208E0,-1.652424547E1,-2.887356551E0,5.042406060E0,1.751608903E1
8.537745208E0,-1.560928953E1,-2.000667666E0,4.354782854E0,1.632840239E1
8.547747208E0,-1.464518892E1,-1.402444149E0,3.687497435E0,1.516726889E1
8.557750208E0,-1.409249840E1,-1.093221020E0,2.385297951E0,1.433468834E1
8.567752208E0,-1.253824066E1,-1.476663150E-1,1.197857090E0,1.259619568E1
8.577754208E0,-1.156780634E1,1.540639729E0,-1.897876100E-1,1.167149235E1
8.587756208E0,-1.087936219E1,3.019122094E0,-9.809826922E-1,1.133304667E1
8.597759208E0,-1.004350505E1,4.009499215E0,-3.928687187E-1,1.082138732E1
8.607761208E0,-9.403319135E0,4.268664477E0,1.958278276E0,1.051088774E1
8.617763208E0,-9.325346514E0,3.907769650E0,4.508516679E0,1.107065824E1
8.627765208E0,-9.386577972E0,3.303814253E0,6.534588597E0,1.190478403E1
8.637768208E0,-9.231677043E0,2.887984250E0,7.894463847E0,1.248546649E1
8.647770208E0,-9.048821161E0,2.610577136E0,8.566704782E0,1.273124928E1
8.657772208E0,-9.005183390E0,2.301161487E0,8.460896491E0,1.256882817E1
8.667774208E0,-9.340048168E0,1.904917902E0,7.593798848E0,1.218732920E1
8.677776208E0,-9.556722592E0,1.075035448E0,7.564475647E0,1.223551959E1
8.687779208E0,-9.973668244E0,1.897722611E-1,8.069047673E0,1.283041707E1
8.697781208E0,-1.069201506E1,-5.491786802E-1,9.264493956E0,1.415809420E1
8.707783208E0,-1.044412586E1,-7.280257112E-1,1.128014672E1,1.538998039E1
8.717785208E0,-8.893560044E0,-5.658659028E-1,1.333155579E1,1.603577233E1
8.727788208E0,-7.661397339E0,-4.794243941E-1,1.409929053E1,1.605356192E1
8.737790208E0,-7.269333344E0,-5.955159639E-1,1.354040664E1,1.537987186E1
8.747792208E0,-7.380420501E0,-5.104119328E-1,1.267220505E1,1.467364671E1
8.757794208E0,-7.548282368E0,-4.897185635E-1,1.119045277E1,1.350713235E1
8.767797208E0,-7.738464811E0,-4.251893494E-1,8.889243044E0,1.179335684E1
8.777799208E0,-7.828200860E0,-1.294746038E-1,7.194309474E0,1.063275981E1
8.787801208E0,-7.862516415E0,1.492463788E-1,5.919341058E0,9.842765740E0
8.797803208E0,-7.828528304E0,2.107240042E-1,5.274706582E0,9.442075489E0
8.807806208E0,-3.290508914E0,-8.608572746E-1,1.490739444E1,1.529048506E1
8.817808208E0,3.069585904E1,-6.721476719E0,5.245522193E1,6.114707122E1
8.827810208E0,1.012065274E2,-9.742237787E0,1.402987706E1,1.026377603E2
8.837812208E0,1.524343674E2,-2.389556361E1,-3.630868788E1,1.585104259E2
8.847815208E0,1.314906513E2,-1.400462528E1,-2.383842929E1,1.343658871E2
8.857817208E0,1.006580025E2,-6.777638640E0,-2.386106503E1,1.036692832E2
8.867819208E0,3.659875656E1,-3.563149085E0,4.768273387E0,3.707966348E1
8.877821208E0,-1.391576748E1,-2.793625976E0,8.551190364E-1,1.421914763E1
8.887824208E0,-1.009512427E1,-5.041819584E0,-3.407759855E1,3.589727290E1
8.897826208E0,-8.116894854E0,2.933597794E-1,-1.961103973E1,2.122646747E1
8.907828208E0,-1.211289782E1,1.548161441E-1,-1.503697693E1,1.930950379E1
8.917830208E0,-1.107676887E1,1.957310855E-1,-1.217554489E1,1.646137942E1
8.927833208E0,-9.815436741E0,4.758192202E-1,-4.275643714E0,1.071682469E1
8.937835208E0,-9.841542220E0,5.429384585E-1,-2.239326305E0,1.010768607E1
8.947837208E0,-9.753611791E0,6.662387681E-1,-1.327140198E0,9.866008219E0
8.957839208E0,-9.836743995E0,7.879766285E-1,-1.100932547E0,9.929475921E0
8.967841208E0,-9.831718898E0,8.001508239E-1,-5.567081398E-1,9.879922155E0
8.977844208E0,-1.001775157E1,9.714985085E-1,6.138520282E-2,1.006493537E1
8.987846208E0,-9.796323947E0,1.113729544E0,2.253323954E-1,9.862004414E0
8.997848208E0,-9.797847732E0,1.186307670E0,2.851436009E-1,9.873522823E0
9.007850208E0,-1.004330157E1,1.196496736E0,4.381880021E-1,1.012380954E1
9.017853208E0,-1.043337400E1,1.398292626E0,1.188045462E0,1.059348702E1
9.027855208E0,-1.119880493E1,1.675340574E0,2.439267166E0,1.158317842E1
9.037857208E0,-1.245171356E1,1.392645093E0,2.974929423E0,1.287768753E1
9.047859208E0,-1.269309949E1,1.172496839E0,2.218611374E0,1.293876964E1
9.057862208E0,-1.711118664E1,6.457075860E-1,1.279828037E0,1.717112711E1
9.067864208E0,-2.642071643E1,2.330159292E0,-1.948027961E0,2.659471211E1
9.077866208E0,-1.469498147E1,3.685527508E0,-1.254597886E0,1.520196071E1
9.087868208E0,-1.202994922E1,2.720912634E0,-1.633550670E0,1.244152449E1
9.097871208E0,-1.261685062E1,1.938523458E0,-1.727846378E0,1.288131383E1
9.107873208E0,-1.356450886E1,1.485222743E0,-1.014744515E0,1.368325596E1
9.117875208E0,-1.348156143E1,1.234448527E0,-2.973788996E-1,1.354122580E1
9.127877208E0,-1.239195151E1,1.384695657E0,3.657089867E-2,1.246912915E1
9.137879208E0,-1.154331820E1,1.610498607E0,4.705571647E-1,1.166461851E1
9.147882208E0,-1.098225213E1,1.795907968E0,1.225812774E0,1.119543498E1
9.157884208E0,-1.069183496E1,1.853846128E0,1.898722192E0,1.101622559E1
9.167886208E0,-1.043090063E1,1.661821958E0,2.861992207E0,1.094332397E1
9.177888208E0,-1.026199445E1,1.310895025E0,4.377108985E0,1.123325682E1
9.187891208E0,-1.010836704E1,1.013501105E0,6.157259585E0,1.187931456E1
9.197893208E0,-9.831585581E0,7.458714134E-1,7.956688161E0,1.266985737E1
9.207895208E0,-9.330930605E0,6.217771250E-1,9.536447956E0,1.335652321E1
9.217897208E0,-8.403882045E0,8.642040016E-1,1.076554029E1,1.368462421E1
9.227900208E0,-7.393700112E0,1.077020140E0,1.225192122E1,1.435048247E1
9.237902208E0,-7.003604874E0,9.571511954E-1,1.366828876E1,1.538794129E1
9.247904208E0,-7.050328220E0,7.489455870E-1,1.452769965E1,1.616546023E1
9.257906208E0,-7.148994137E0,6.965157969E-1,1.469358750E1,1.635526719E1
9.267908208E0,-6.967135790E0,1.105617117E0,1.266553220E1,1.449755415E1
9.277911208E0,-2.077780600E0,2.391967869E0,1.605039764E1,1.636013285E1
9.287913208E0,1.867492389E1,3.803055373E0,4.163798056E1,4.579232946E1
9.297915208E0,2.801329449E1,7.602778564E-1,3.635112463E1,4.589909534E1
9.307917208E0,2.421997649E1,-1.912319600E0,1.657999516E1,2.941361023E1
9.317920208E0,4.513444244E1,-3.467442736E0,-9.044026444E0,4.616205659E1
9.327922208E0,1.187820789E2,3.595913081E0,-3.621607033E1,1.242325103E2
9.337924208E0,1.239603169E2,6.298114332E0,-6.682193370E0,1.242999522E2
9.347926208E0,1.293561463E2,7.583963832E0,4.057591102E0,1.296417877E2
9.357929208E0,7.090339781E1,7.374355184E0,1.836695806E0,7.130951120E1
9.367931208E0,8.588498524E0,-3.385447231E-1,8.435990860E0,1.204337416E1
9.377933208E0,-7.590427344E0,1.238299942E0,4.029053181E0,8.682237243E0
9.387935208E0,-2.043732848E0,-2.193989918E0,-1.172133434E1,1.209876500E1
9.397937958E0,-6.661783664E0,-4.066795497E0,-1.575166456E1,1.757933797E1
9.407939958E0,-1.088083335E1,-3.344549173E0,-2.620660309E1,2.857209458E1
9.417941958E0,-1.232752455E1,-1.761487164E0,-2.652222409E1,2.930015477E1
9.427943958E0,-1.283159079E1,-1.073602734E0,-2.178025382E1,2.530181420E1
9.437946958E0,-1.124455472E1,-5.538017812E-1,-1.114073273E1,1.583864366E1
9.447948958E0,-9.406722799E0,-3.353776518E-2,-1.495424818E0,9.524907033E0
9.457950958E0,-9.634138557E0,-4.635011103E-2,-1.815147647E0,9.803751071E0
9.467952958E0,-9.477674668E0,1.243410408E-2,-1.608880098E0,9.613270353E0
9.477955958E0,-9.523843698E0,1.714688681E-2,-1.305343093E0,9.612898282E0
9.487957958E0,-9.574457197E0,1.730090613E-2,-1.086562357E0,9.635930037E0
9.497959958E0,-9.723072369E0,2.460197713E-2,-8.876494360E-1,9.763537426E0
9.507961958E0,-1.070157175E1,-2.213888870E-1,-3.817495437E-1,1.071066682E1
9.517963958E0,-1.187631246E1,-5.086294456E-1,1.108771251E0,1.193879706E1
9.527966958E0,-1.279932351E1,-7.665154468E-1,3.402693594E0,1.326606769E1
9.537968958E0,-1.342607019E1,-8.326187313E-1,4.409884676E0,1.415626001E1
9.547970958E0,-1.400814179E1,-9.085986210E-1,5.824981030E0,1.519815752E1
9.557972958E0,-1.449419978E1,-7.321063368E-1,7.728839124E0,1.644240740E1
9.567975958E0,-1.323248759E1,3.258184044E-1,7.755118850E0,1.534101541E1
9.577977958E0,-1.132556555E1,1.426462465E0,6.180733817E0,1.298093605E1
9.587979958E0,-1.042312500E1,2.116470311E0,5.342993875E0,1.190246046E1
9.597981958E0,-9.721730433E0,2.739344519E0,5.016168433E0,1.127732223E1
9.607983958E0,-9.674517674E0,2.988049990E0,4.697000798E0,1.116183459E1
9.617986958E0,-1.033409296E1,2.835263122E0,4.470579067E0,1.161112705E1
9.627988958E0,-1.005614205E1,2.763971238E0,4.486784917E0,1.135327128E1
9.637990958E0,-8.984827479E0,2.794957680E0,5.088899610E0,1.069746757E1
9.647992958E0,-8.218026541E0,2.619835033E0,5.921417989E0,1.046244172E1
9.657995958E0,-7.808827865E0,2.197811658E0,6.458098245E0,1.036895374E1
9.667997958E0,-7.702086943E0,1.748868288E0,7.258610135E0,1.072698022E1
9.677999958E0,-7.983037469E0,1.120739844E0,8.106095631E0,1.143213591E1
9.688001958E0,-7.945686041E0,6.072149268E-1,8.663140571E0,1.177083859E1
9.698004958E0,-8.044871190E0,7.674485162E-2,8.984868409E0,1.206041884E1
9.708006958E0,-7.760795912E0,-1.823557989E-1,9.445802080E0,1.222646244E1
9.718008958E0,-6.565557790E0,-7.076592743E-4,1.013466782E1,1.207551413E1
9.728010958E0,-5.342227305E0,3.238695274E-1,1.087133981E1,1.211735587E1
9.738012958E0,-4.519008338E0,4.385574000E-1,1.167191368E1,1.252387072E1
9.748015958E0,-4.445296583E0,3.553806111E-1,1.243065657E1,1.320636891E1
9.758017958E0,-4.740189795E0,4.504133606E-1,1.217777852E1,1.307557116E1
9.768019958E0,-5.138033178E0,6.480546583E-1,1.101462934E1,1.217133597E1
9.778021958E0,-5.220416354E0,-9.201142006E-2,1.072066642E1,1.192450843E1
9.788024958E0,-5.772708676E0,4.449323268E-1,8.804270137E0,1.053742392E1
9.798026958E0,-5.928018326E0,1.102601635E0,7.227926286E0,9.412759958E0
9.808028958E0,-2.477930126E0,-2.687913288E0,1.565774775E1,1.607887061E1
9.818030958E0,2.189136729E1,-5.965238192E0,2.777928658E1,3.586787966E1
9.828033958E0,5.667494697E1,-5.502622862E0,-3.987956377E1,6.951768177E1
9.838035958E0,1.205870723E2,-2.185413222E1,-1.583075540E2,2.002002166E2
9.848037958E0,1.053522033E2,-6.777831599E0,-4.437065107E1,1.145154157E2
9.858039958E0,4.365856779E1,-2.856412209E0,-1.024450519E2,1.113966709E2
9.868042958E0,-7.361989492E-1,-5.359131605E0,-6.875905543E1,6.897151575E1
9.878044958E0,-2.749085396E0,-1.824162884E0,-2.175832676E1,2.200704034E1
9.888046958E0,6.631412056E-1,-1.406248640E0,-3.263288956E0,3.614740143E0
9.898048958E0,2.387865171E0,-1.200940108E0,1.175443192E1,1.205449406E1
9.908050958E0,1.736408456E0,-2.123482876E0,1.844745083E1,1.865027442E1
9.918053958E0,-3.613918412E-1,-8.779106791E-1,1.398814899E1,1.402032965E1
9.928055958E0,-7.756080133E-1,-2.743099528E-1,1.291126495E1,1.293744860E1
9.938057958E0,-1.039971743E0,-2.491874090E-1,1.266385288E1,1.270892621E1
9.948059958E0,-1.133154287E0,-2.909359989E-1,1.257093829E1,1.262525928E1
9.958062958E0,-9.292010660E-1,-3.609734729E-1,1.271204213E1,1.275106786E1
9.968064958E0,-7.938659441E-1,-4.751861495E-1,1.286229218E1,1.289552578E1
9.978066958E0,-6.798569334E-1,-5.473107506E-1,1.345523259E1,1.348350988E1
9.988068958E0,-3.588298836E-1,-5.075723787E-1,1.440917893E1,1.442258042E1
9.998070958E0,-4.348296538E-2,-3.373223627E-1,1.734048052E1,1.734381566E1
1.000807396E1,6.493267201E-1,8.090163723E-2,1.828092680E1,1.829263390E1
1.001807596E1,1.882753300E0,-5.034443175E-1,1.844690119E1,1.854956549E1
1.002807796E1,2.927180767E0,-7.219615638E-1,1.979681045E1,2.002506728E1
1.003807996E1,2.692011601E0,-4.690243171E-1,1.889513003E1,1.909169582E1
1.004808296E1,5.672977397E-1,-7.081529255E-1,1.547707112E1,1.550364595E1
1.005808496E1,-1.967703550E0,-9.589644901E-1,1.264649601E1,1.283453667E1
1.006808696E1,-3.712822895E0,-1.382382645E0,1.116560210E1,1.184764559E1
1.007808896E1,-4.394429900E0,-1.831476289E0,1.124534409E1,1.221159626E1
1.008809096E1,-5.039715756E0,-2.249878775E0,1.243105184E1,1.360116683E1
1.009809396E1,-5.778567002E0,-2.496775117E0,1.333845785E1,1.474924338E1
1.010809596E1,-7.099728422E0,-2.218551732E0,1.310801440E1,1.507143513E1
1.011809796E1,-1.010140652E1,-2.809928598E0,1.167622541E1,1.569293957E1
1.012809996E1,-1.197430243E1,-2.925020221E0,8.848783820E0,1.517368239E1
1.013810296E1,-1.267242958E1,-2.575547052E0,7.451152514E0,1.492459674E1
1.014810496E1,-1.334383612E1,-2.998277940E0,6.885684661E0,1.531209607E1
1.015810696E1,-1.241474278E1,-3.285910371E0,9.010189192E0,1.568778361E1
1.016810896E1,-1.044838614E1,-2.778057765E0,1.295717846E1,1.687527337E1
1.017811096E1,-1.060105460E1,-2.168785057E0,1.706704834E1,2.020816980E1
1.018811396E1,-1.357062505E1,-8.207925184E-1,1.909141404E1,2.343752664E1
1.019811596E1,-1.494113288E1,1.560770523E0,1.838147436E1,2.373925137E1
1.020811796E1,-1.338950521E1,3.439901473E0,1.775773315E1,2.250441864E1
1.021811996E1,-9.177213737E0,4.405783439E0,1.749926166E1,2.024490895E1
1.022812296E1,-5.909610121E0,3.784648046E0,1.530638856E1,1.683842580E1
1.023812496E1,-4.150352501E0,2.794600707E0,1.128213945E1,1.234187545E1
1.024812696E1,-4.109210322E0,2.367236486E0,7.381716244E0,8.773776425E0
1.025812896E1,-4.833050596E0,2.151608714E0,5.304640818E0,7.491796335E0
1.026813096E1,-5.413369208E0,1.944252706E0,4.027767671E0,7.021936854E0
1.027813396E1,-5.641129367E0,2.129359474E0,3.344898545E0,6.895277992E0
1.028813596E1,-5.567729269E0,2.124709476E0,2.220199331E0,6.359503490E0
1.029813796E1,-4.916642391E0,1.873203628E0,3.152865458E-1,5.270831987E0
1.030813996E1,6.721029407E-1,1.308712698E0,4.771215121E0,4.992889446E0
1.031814296E1,4.596004591E1,5.897560179E0,5.034411980E1,6.842249217E1
1.032814496E1,1.700412973E2,3.659194572E0,3.242365279E1,1.731436564E2
1.033814696E1,1.471983775E2,-2.163523118E1,-2.073961784E0,1.487943107E2
1.034814896E1,1.295860494E2,1.490979911E0,-4.144994697E-1,1.295952894E2
1.035815196E1,6.466180384E1,9.819947283E0,-9.827932241E0,6.613749687E1
1.036815396E1,-1.874573601E1,6.346687006E-1,-9.709952971E0,2.112080987E1
1.037815596E1,-1.680958140E0,5.911250265E0,-1.360396821E1,1.492770750E1
1.038815796E1,-7.467531735E-1,4.143330872E0,-8.649767404E0,9.619943199E0
1.039816158E1,-6.639054367E0,2.019986575E0,-5.672123119E0,8.962721089E0
1.040816358E1,-8.677117755E0,1.538120310E0,-1.309347121E1,1.578281264E1
1.041816558E1,-1.220580189E1,1.062340193E0,-2.512359584E1,2.795183776E1
1.042816758E1,-1.169551889E1,7.764323976E-1,-1.611320375E1,1.992544465E1
1.043816958E1,-1.050008488E1,4.033177296E-1,-6.443956754E0,1.232635495E1
1.044817258E1,-9.791150916E0,5.349732261E-2,-1.806410591E0,9.956536418E0
1.045817458E1,-9.676043213E0,-2.127661260E-1,-1.038539613E0,9.733942994E0
1.046817658E1,-1.010292445E1,-5.609988266E-1,-9.651532562E-1,1.016441454E1
1.047817858E1,-1.123879755E1,-1.059253156E0,-2.978331918E-1,1.129253259E1
1.048818158E1,-1.224443210E1,-1.462618576E0,1.063626069E-1,1.233193755E1
1.049818358E1,-1.408338610E1,-2.836681364E0,4.552968089E-1,1.437344150E1
1.050818558E1,-2.904861887E1,-9.365249083E0,2.044923341E0,3.058940764E1
1.051818758E1,-3.900950042E1,-1.355194203E1,5.529394923E0,4.166497887E1
1.052818958E1,-1.943915030E1,-3.906985830E0,7.650696350E0,2.125272352E1
1.053819258E1,-1.414165244E1,-2.318610017E0,2.847834928E0,1.461069642E1
1.054819458E1,-1.452865625E1,-2.724175088E0,-4.055484058E0,1.532807664E1
1.055819658E1,-1.452544964E1,3.429438027E-1,-7.421472632E0,1.631516331E1
1.056819858E1,-1.452083268E1,8.622023535E-1,-8.293449776E0,1.674452997E1
1.057820158E1,-1.415656869E1,1.348955721E0,-8.915730931E0,1.678446831E1
1.058820358E1,-1.364629621E1,1.696987551E0,-8.437048622E0,1.613334920E1
1.059820558E1,-1.338375740E1,1.229224479E0,-6.944101853E0,1.512800401E1
1.060820758E1,-1.339191309E1,7.533084869E-1,-5.485843107E0,1.449155908E1
1.061820958E1,-1.371414613E1,4.907433246E-1,-3.996614583E0,1.429305990E1
1.062821258E1,-1.409414030E1,3.347737075E-1,-2.661312842E0,1.434710599E1
1.063821458E1,-1.398559259E1,4.032613405E-1,-1.613997581E0,1.408419000E1
1.064821658E1,-1.345758785E1,7.170509990E-1,-8.134050000E-1,1.350120219E1
1.065821858E1,-1.275600500E1,1.041221293E0,-1.823359915E-1,1.279972858E1
1.066822058E1,-1.177088365E1,1.350056898E0,3.480989273E-1,1.185316533E1
1.067822358E1,-1.061205789E1,1.629872041E0,1.018541697E0,1.078469669E1
1.068822558E1,-9.507371507E0,1.577309080E0,2.102347384E0,9.863968848E0
1.069822758E1,-8.714334698E0,1.420821802E0,3.770890424E0,9.600936330E0
1.070822958E1,-8.477582105E0,1.448774709E0,4.878677297E0,9.887863201E0
1.071823258E1,-8.441814103E0,1.617685128E0,5.571572059E0,1.024321950E1
1.072823458E1,-8.556352286E0,1.686968493E0,6.774722049E0,1.104327334E1
1.073823658E1,-9.006576197E0,1.349537080E0,8.808860786E0,1.267026809E1
1.074823858E1,-9.027886375E0,1.038944972E0,1.007902454E1,1.357088335E1
1.075824058E1,-8.545843086E0,1.136820053E0,1.015140957E1,1.331821723E1
1.076824358E1,-7.712317817E0,6.639878824E-1,9.187583190E0,1.201384247E1
1.077824558E1,2.273064154E-1,-3.219716089E0,2.390560912E1,2.412252863E1
1.078824758E1,2.817093309E1,-8.447374220E0,5.694630455E1,6.409244264E1
1.079824958E1,6.583616798E1,-5.603065748E0,4.790924565E1,8.161550820E1
1.080825258E1,1.158266154E2,-5.142715044E0,1.831300434E-1,1.159408724E2
1.081825458E1,1.276487780E2,-2.679429270E1,-2.574806911E1,1.329477631E2
1.082825658E1,9.678847421E1,-2.747027059E1,-2.025648346E1,1.026301594E2
1.083825858E1,7.859622394E1,-2.011262558E1,-1.696729134E1,8.288409437E1
1.084826158E1,4.991875124E1,-6.375602803E0,-1.054792680E1,5.141778676E1
1.085826358E1,-4.081573457E0,-5.717530257E0,-6.949135137E-1,7.059199594E0
1.086826558E1,-9.558025351E0,-1.624480031E0,-2.557883198E1,2.735455044E1
1.087826758E1,3.196965158E-2,3.309651821E0,-4.027763286E1,4.041339538E1
1.088826958E1,-1.112682571E1,2.582185981E0,-4.707442698E1,4.844043363E1
1.089827258E1,-1.377670315E1,1.580292183E0,-2.876365130E1,3.193184162E1
1.090827458E1,-1.065256740E1,1.261654891E0,-1.053682645E1,1.503641170E1
1.091827658E1,-9.714040759E0,1.294776736E0,-3.711210233E0,1.047912764E1
1.092827858E1,-9.747223123E0,1.312984820E0,-1.386280837E0,9.932475135E0
1.093828158E1,-1.015217789E1,1.306372350E0,1.943190560E-2,1.023590261E1
1.094828358E1,-1.044777803E1,1.273400924E0,5.755787127E-1,1.054082096E1
1.095828558E1,-1.054123642E1,1.294832577E0,6.078547584E-1,1.063784490E1
1.096828758E1,-1.057682023E1,1.355157424E0,3.174978165E-1,1.066800744E1
1.097828958E1,-1.053161190E1,1.372626858E0,-1.276727843E-1,1.062145254E1
1.098829258E1,-1.056014631E1,1.352745740E0,-1.897677295E-1,1.064812767E1
1.099829458E1,-1.071835560E1,1.321804906E0,-1.167908236E-2,1.079955792E1
1.100829658E1,-1.098207204E1,1.234711652E0,4.021767551E-1,1.105857881E1
1.101829858E1,-1.122585415E1,1.235535525E0,8.146054333E-1,1.132298245E1
1.102830058E1,-1.125363544E1,1.417864719E0,1.242288913E0,1.141043088E1
1.103830358E1,-1.144397635E1,1.349093861E0,1.882097681E0,1.167591284E1
1.104830558E1,-1.161653353E1,1.185504262E0,2.647931489E0,1.197333758E1
1.105830758E1,-1.152812948E1,1.166922688E0,3.195815595E0,1.201968032E1
1.106830958E1,-1.142955010E1,1.191258507E0,3.736511135E0,1.208367608E1
1.107831258E1,-1.092214042E1,1.472616877E0,3.622707946E0,1.160111049E1
1.108831458E1,-1.026630852E1,2.007759900E0,3.516083969E0,1.103589765E1
1.109831658E1,-9.966080897E0,2.258867700E0,3.459779960E0,1.078866670E1
1.110831858E1,-9.789092111E0,2.606988408E0,2.798031853E0,1.050960014E1
1.111832058E1,-9.650023688E0,3.184091636E0,1.574099690E0,1.028295612E1
1.112832358E1,-9.383920997E0,3.883404887E0,2.416303396E-2,1.015575653E1
1.113832558E1,-9.068825655E0,4.116343633E0,-5.488208306E-1,9.974421686E0
1.114832758E1,-8.893180559E0,3.275604361E0,1.016320632E0,9.531587067E0
1.115832958E1,-8.818644932E0,2.154903328E0,2.992082230E0,9.558486431E0
1.116833158E1,-8.745895629E0,1.180781759E0,4.910843707E0,1.009957038E1
1.117833458E1,-8.635221285E0,4.044177005E-1,6.703520504E0,1.093927728E1
1.118833658E1,-8.658362811E0,-1.448022026E-1,7.796456326E0,1.165216484E1
1.119833858E1,-8.634733627E0,-2.977548391E-2,8.912522564E0,1.240937427E1
1.120834058E1,-8.126341031E0,1.020049402E0,1.051835509E1,1.333093069E1
1.121834358E1,-7.651745925E0,1.849681010E0,1.226864659E1,1.457704445E1
1.122834558E1,-7.658326381E0,2.132047147E0,1.375234365E1,1.588466380E1
1.123834758E1,-7.910648940E0,2.111586570E0,1.459981219E1,1.673892710E1
1.124834958E1,-8.389464566E0,1.797600591E0,1.519805486E1,1.745266040E1
1.125835158E1,-8.736251231E0,1.510046220E0,1.369977601E1,1.631827773E1
1.126835458E1,-8.650629283E0,1.576937928E0,1.068018029E1,1.383424632E1
1.127835658E1,-8.587365333E0,1.647666726E0,8.774927055E0,1.238777598E1
1.128835858E1,-8.544757258E0,1.484320079E0,8.278375654E0,1.198947814E1
1.129836058E1,-8.301717739E0,9.641085050E-1,9.455465773E0,1.261958223E1
1.130836258E1,-5.600343284E0,4.206288135E-1,1.477920828E1,1.581030584E1
1.131836558E1,9.170963064E0,6.920083246E-1,2.699876281E1,2.852224803E1
1.132836758E1,4.250672712E1,-5.212162424E0,5.434371354E1,6.918979469E1
1.133836958E1,1.052496666E2,-9.338354230E0,3.569737084E1,1.115302625E2
1.134837158E1,1.564127287E2,-1.587532498E1,-2.906589154E1,1.598805607E2
1.135837458E1,1.087652091E2,-1.566247347E1,-2.961787104E1,1.138086204E2
1.136837658E1,7.937880592E1,-7.369576254E0,-3.871886807E1,8.862537012E1
1.137837858E1,1.465390127E1,-1.215669346E1,-2.892581564E1,3.462982572E1
1.138838058E1,3.292919136E0,-7.632192982E-1,-2.479263174E1,2.502199849E1
1.139838288E1,7.742541490E0,1.058644592E1,-8.939859467E0,1.587264544E1
1.140838487E1,-4.396030283E-1,9.718691050E0,-1.727771300E1,1.982840319E1
1.141838687E1,-9.227903835E0,3.650726927E0,-1.810705049E1,2.064817895E1
1.142838887E1,-1.013923800E1,7.742164490E-1,-7.296265034E0,1.251555200E1
1.143839088E1,-9.655972645E0,-2.304838655E-1,-3.968630978E0,1.044226807E1
1.144839387E1,-9.616417986E0,-9.880728067E-1,-1.933379370E0,9.858485611E0
1.145839587E1,-9.595240540E0,-1.302174926E0,-1.218431688E0,9.759553081E0
1.146839787E1,-9.596166154E0,-1.549480281E0,-9.222503346E-1,9.764109774E0
1.147839987E1,-9.505478763E0,-1.816429210E0,-5.083510816E-1,9.690818459E0
1.148840188E1,-9.337198235E0,-2.071714991E0,6.914038321E-2,9.564520599E0
1.149840487E1,-9.209180465E0,-2.347138583E0,8.575853920E-1,9.542196659E0
1.150840687E1,-9.166395219E0,-2.676917306E0,1.667939315E0,9.693849036E0
1.151840887E1,-9.341232229E0,-3.105398346E0,2.345380179E0,1.011943312E1
1.152841088E1,-9.953268478E0,-3.737617428E0,3.190351957E0,1.110025599E1
1.153841387E1,-1.090164242E1,-4.759356383E0,5.043202450E0,1.292018466E1
1.154841587E1,-1.174899986E1,-5.779379765E0,6.318131690E0,1.453819164E1
1.155841787E1,-1.229969531E1,-6.455733047E0,6.403311589E0,1.529579658E1
1.156841987E1,-1.243793050E1,-7.005873009E0,6.573522867E0,1.571609286E1
1.157842188E1,-1.176240753E1,-7.082059890E0,6.163806127E0,1.504999366E1
1.158842487E1,-1.081019430E1,-6.210133617E0,5.051668049E0,1.345159509E1
1.159842687E1,-1.052824390E1,-5.393076446E0,4.361468853E0,1.260760103E1
1.160842887E1,-1.047901970E1,-4.773728547E0,4.187503955E0,1.225289874E1
1.161843088E1,-1.029486983E1,-3.897083571E0,4.462989088E0,1.187812598E1
1.162843287E1,-1.006977425E1,-3.240819275E0,4.726526314E0,1.158634170E1
1.163843587E1,-9.774760585E0,-2.704311804E0,4.948615551E0,1.128485900E1
1.164843787E1,-9.434529233E0,-2.195771857E0,5.310278703E0,1.104675589E1
1.165843987E1,-9.073827948E0,-1.740234289E0,5.922418447E0,1.097441612E1
1.166844188E1,-8.828327921E0,-1.375491116E0,6.839983993E0,1.125241000E1
1.167844487E1,-8.649031824E0,-1.129043840E0,7.953552300E0,1.180421474E1
1.168844687E1,-8.642485866E0,-1.189182307E0,8.932118338E0,1.248556985E1
1.169844887E1,-8.793206035E0,-1.311110202E0,9.534631226E0,1.303643644E1
1.170845088E1,-8.641245672E0,-1.104607303E0,9.725168011E0,1.305642282E1
1.171845287E1,-8.450211874E0,-7.853228697E-1,9.562432398E0,1.278526207E1
1.172845587E1,-8.240019674E0,-4.576712901E-1,9.373667904E0,1.248891657E1
1.173845787E1,-7.907703112E0,-7.829334050E-2,9.125917284E0,1.207560618E1
1.174845988E1,-7.552892897E0,3.290334959E-1,8.914580784E0,1.168863571E1
1.175846187E1,-7.020526716E0,9.439710597E-1,8.686721222E0,1.120883590E1
1.176846387E1,-6.465176300E0,1.556980358E0,8.304530250E0,1.063898092E1
1.177846687E1,-6.581509579E0,1.454253111E0,7.609631354E0,1.016551080E1
1.178846887E1,-7.311068430E0,6.906383950E-1,6.536308263E0,9.831176363E0
1.179847088E1,-7.774642704E0,8.866659343E-2,5.377988291E0,9.453871640E0
1.180847287E1,-7.923181277E0,-2.701436289E-1,4.350291608E0,9.042942895E0
1.181847487E1,-7.941416404E0,-5.688968070E-1,2.525440507E0,8.352699434E0
1.182847787E1,-6.401256877E0,-1.745816480E0,1.447586993E0,6.791131930E0
1.183847988E1,2.786363150E0,-3.882031083E0,1.144050895E1,1.239835594E1
1.184848187E1,4.764262197E1,-4.744225397E-1,4.515940304E1,6.564614374E1
1.185848387E1,1.307843825E2,2.491578404E0,2.823096294E1,1.338198413E2
1.186848687E1,1.255768990E2,-1.739734352E0,8.427518245E0,1.258713919E2
1.187848887E1,1.017611990E2,-2.067507042E0,-1.021437823E1,1.022934491E2
1.188849088E1,4.653209538E1,2.668421594E0,1.954745243E0,4.664951665E1
1.189849287E1,-5.920732695E0,1.450114452E0,-4.442886595E1,4.484508933E1
1.190849587E1,3.085470450E-1,-1.343685041E0,-8.243112734E1,8.244265549E1
1.191849787E1,8.288129979E-1,9.022312224E-1,-3.645644936E1,3.647702910E1
1.192849988E1,2.306776861E0,9.748213349E-1,-1.423206676E1,1.445071696E1
1.193850187E1,1.277657551E0,4.958700536E-1,-3.025251145E0,3.321210686E0
1.194850387E1,-1.406160055E0,-3.286866099E-1,3.574678917E0,3.855340497E0
1.195850687E1,-3.847595369E0,-9.813479970E-1,7.561442696E0,8.540635202E0
1.196850887E1,-5.672675681E0,-1.724375617E0,8.862814214E0,1.066312320E1
1.197851088E1,-7.022780818E0,-1.936827620E0,8.150334495E0,1.093154628E1
1.198851287E1,-7.798684700E0,-2.103914292E0,7.388334707E0,1.094684558E1
1.199851487E1,-8.099935005E0,-2.304957354E0,7.581547177E0,1.133144444E1
1.200851787E1,-8.391818070E0,-2.509126483E0,7.935893124E0,1.181933695E1
1.201851988E1,-8.761313567E0,-2.683559743E0,8.629731334E0,1.258707159E1
1.202852187E1,-9.333171843E0,-2.922671687E0,9.959241993E0,1.395838843E1
1.203852387E1,-1.005552926E1,-3.472485375E0,1.109642837E1,1.537213538E1
1.204852587E1,-1.046419350E1,-4.421541685E0,1.126214431E1,1.599641432E1
1.205852888E1,-1.022552186E1,-5.099025818E0,1.023070717E1,1.533716827E1
1.206853088E1,-1.005408851E1,-5.156189368E0,8.980230982E0,1.443314010E1
1.207853287E1,-1.012303888E1,-5.166913161E0,8.194070499E0,1.401127043E1
1.208853487E1,-9.920167390E0,-5.158702501E0,7.959642760E0,1.372508089E1
1.209853687E1,-9.771573268E0,-5.377735106E0,7.882216269E0,1.365770890E1
1.210853988E1,-9.729281527E0,-5.820353544E0,7.926394322E0,1.383340744E1
1.211854187E1,-9.843054310E0,-6.163783908E0,7.607374914E0,1.388344710E1
1.212854387E1,-9.913295742E0,-6.445475861E0,7.087357467E0,1.378579803E1
1.213854587E1,-1.007605767E1,-6.801689408E0,6.760563601E0,1.391025295E1
1.214854888E1,-1.072509393E1,-7.400754193E0,6.570173582E0,1.459335408E1
1.215855087E1,-1.189959607E1,-7.740565131E0,6.328592359E0,1.554245207E1
1.216855287E1,-1.290201231E1,-7.623538372E0,5.474048688E0,1.595448113E1
1.217855487E1,-1.358193591E1,-7.423709192E0,4.187104590E0,1.603472126E1
1.218855687E1,-1.408656348E1,-7.042947865E0,2.850854430E0,1.600505409E1
1.219855988E1,-1.422140378E1,-6.392783092E0,1.339622834E0,1.564961950E1
1.220856187E1,-1.398520668E1,-5.517611614E0,4.233610712E-2,1.503435519E1
1.221856387E1,-1.377270950E1,-4.947736130E0,-1.210246244E0,1.468442426E1
1.222856587E1,-1.407152444E1,-4.252433192E0,-3.970679697E-1,1.470539531E1
1.223856787E1,-1.328368464E1,-3.387619472E0,1.514905110E0,1.379228700E1
1.224857087E1,-1.147158456E1,-2.021401747E0,2.870495228E0,1.199679375E1
1.225857287E1,-1.035033301E1,-1.065469550E0,3.704422785E0,1.104478913E1
1.226857487E1,-9.507590193E0,-3.864407283E-1,4.055247830E0,1.034353144E1
1.227857687E1,-8.832235615E0,2.126597615E-1,4.340908873E0,9.843632459E0
1.228857888E1,-8.599136948E0,5.524652539E-1,5.289714046E0,1.011095687E1
1.229858187E1,-8.532686850E0,8.980536061E-1,6.312208461E0,1.065162996E1
1.230858387E1,-8.536444856E0,1.322163340E0,6.237845911E0,1.065503300E1
1.231858587E1,-8.227172756E0,1.491086184E0,5.694041991E0,1.011591932E1
1.232858788E1,-6.735465013E0,2.157508701E0,9.562266921E0,1.189362356E1
1.233858987E1,1.289931207E1,6.502399090E0,3.428154475E1,3.720077629E1
1.234859287E1,7.361884476E1,9.080621243E0,6.782452536E1,1.005104881E2
1.235859487E1,1.623447149E2,6.996561318E0,-1.739843929E1,1.634241843E2
1.236859687E1,1.664403106E2,4.562494373E0,-5.696418300E1,1.759775880E2
1.237859888E1,1.034772586E2,5.477063513E0,-3.790672023E1,1.103379386E2
1.238860187E1,3.358528404E1,-5.105186445E0,-2.397106987E1,4.157699392E1
1.239860375E1,-9.547876924E0,-7.150379927E0,-3.390533256E1,3.594247436E1
1.240860575E1,1.314678027E0,7.848227135E-1,-3.838306716E1,3.841359355E1
1.241860775E1,-3.216394286E0,5.992419193E-1,-3.663351241E1,3.677932183E1
1.242860975E1,-5.675919716E0,8.085868943E-1,-2.213201296E1,2.286254306E1
1.243861275E1,-7.704821686E0,9.151578813E-1,-8.364927894E0,1.140937377E1
1.244861475E1,-8.371957417E0,8.711783411E-1,-2.432479865E0,8.761596943E0
1.245861675E1,-9.574753066E0,3.591093075E-1,2.055115038E-1,9.583688786E0
1.246861875E1,-1.029419623E1,-5.171569884E-3,1.629521354E0,1.042237222E1
1.247862075E1,-1.059320647E1,-5.626702532E-2,2.880745397E0,1.097806373E1
1.248862375E1,-1.074821148E1,1.442413084E-1,3.312420770E0,1.124797701E1
1.249862575E1,-1.053358826E1,7.365529981E-1,3.712854470E0,1.119304607E1
1.250862775E1,-1.029093349E1,1.931839360E0,5.365424963E0,1.176533469E1
1.251862975E1,-1.034024423E1,3.311030887E0,7.119790803E0,1.298364345E1
1.252863175E1,-1.105768589E1,2.103974518E0,5.432643385E0,1.249850952E1
1.253863475E1,-1.208095331E1,4.385236323E-2,2.369138585E0,1.231114022E1
1.254863675E1,-1.326362752E1,-9.817504317E-1,1.550395662E0,1.338997295E1
1.255863875E1,-1.406468671E1,-1.406433120E0,1.658154584E0,1.423175825E1
1.256864075E1,-1.425635844E1,-1.527152395E0,1.524204814E0,1.441870836E1
1.257864375E1,-1.405361676E1,-1.255701256E0,1.301704810E0,1.416952240E1
1.258864575E1,-1.350176473E1,-8.822809611E-1,9.518582958E-1,1.356400032E1
1.259864775E1,-1.267093620E1,-2.548571800E-1,7.719529188E-1,1.269698735E1
1.260864975E1,-1.199643298E1,6.321923317E-1,5.188959503E-1,1.202428062E1
1.261865175E1,-1.168058042E1,2.256586847E0,-3.021738138E0,1.227432461E1
1.262865475E1,-1.122734402E1,4.279011126E0,-6.035803560E0,1.344597020E1
1.263865675E1,-1.052051622E1,5.253294663E0,-5.959944123E0,1.318329626E1
1.264865875E1,-9.299603562E0,5.128174188E0,-4.757308688E0,1.163669983E1
1.265866075E1,-8.049805655E0,4.310248706E0,-1.712357104E0,9.290305799E0
1.266866275E1,-7.122312123E0,3.651705751E0,2.273363239E0,8.320484678E0
1.267866575E1,-6.759671316E0,2.894019161E0,7.031249925E0,1.017383795E1
1.268866775E1,-6.578810504E0,2.530324686E0,1.113953990E1,1.318228507E1
1.269866975E1,-6.359629964E0,2.701416847E0,1.327151775E1,1.496247739E1
1.270867175E1,-5.937038240E0,2.830963372E0,1.365109911E1,1.515306186E1
1.271867375E1,-5.194444191E0,2.868571494E0,1.324051932E1,1.450938678E1
1.272867675E1,-4.914890565E0,2.646466177E0,1.311545907E1,1.425395381E1
1.273867875E1,-4.976962268E0,2.539067443E0,1.289757545E1,1.405576285E1
1.274868075E1,-5.080668485E0,2.557290583E0,1.243141437E1,1.367088112E1
1.275868275E1,-4.872093624E0,2.026057885E0,1.309982128E1,1.412258916E1
1.276868475E1,-4.527525977E0,1.412506038E0,1.417207550E1,1.494461069E1
1.277868775E1,-4.264647440E0,6.408340779E-1,1.447409004E1,1.510288610E1
1.278868975E1,-4.152127715E0,3.655421948E-1,1.409661484E1,1.469994339E1
1.279869175E1,-4.045031283E0,5.966864303E-1,1.393832838E1,1.452567763E1
1.280869375E1,-4.213469393E0,7.217539877E-1,1.340896591E1,1.407389853E1
1.281869575E1,-4.533725195E0,8.643968135E-1,1.286720501E1,1.366992358E1
1.282869875E1,-3.653997567E0,3.345101443E-1,1.607980094E1,1.649313777E1
1.283870075E1,-3.351857901E0,-1.988009468E-2,1.002440336E1,1.056995787E1
1.284870275E1,-3.803597994E0,-8.632601148E-1,7.081598545E0,8.084652972E0
1.285870475E1,-8.029840922E-1,-5.330874935E0,8.439519655E0,1.001441476E1
1.286870675E1,2.046421164E1,-1.008593011E1,-1.224955426E0,2.284754823E1
1.287870975E1,1.081043427E2,8.671585996E-1,-6.787575165E1,1.276495928E2
1.288871175E1,1.623767670E2,-2.072052785E1,-1.311015074E2,2.097216250E2
1.289871375E1,7.107308401E1,-2.438013874E1,-2.897941824E1,8.053310572E1
1.290871575E1,2.238508981E1,-1.343996434E1,-5.667467566E1,6.239986977E1
1.291871875E1,1.943660091E1,-5.211623311E0,-4.370035901E1,4.811095354E1
1.292872075E1,8.970613482E0,-2.659413666E0,-2.058771653E1,2.261412079E1
1.293872275E1,4.740228971E0,-1.844077477E0,-1.104075469E1,1.215601319E1
1.294872475E1,-2.695390999E-1,-1.769287203E0,-1.484334989E0,2.325140618E0
1.295872675E1,-1.788491360E0,-1.671185543E0,5.984947402E0,6.466154798E0
1.296872975E1,-1.880679147E0,-1.024748663E0,9.681360086E0,9.915432265E0
1.297873175E1,-2.652382974E0,-7.602038891E-1,1.052938177E1,1.088489439E1
1.298873375E1,-2.807578602E0,-8.404947846E-1,1.076837502E1,1.116005509E1
1.299873575E1,-2.566225713E0,-1.052000635E0,1.115857141E1,1.149808400E1
1.300873775E1,-2.370072093E0,-1.295638908E0,1.122105242E1,1.154157439E1
1.301874075E1,-2.233788992E0,-1.569670132E0,1.124536280E1,1.157202930E1
1.302874275E1,-2.033639969E0,-1.845739987E0,1.121313646E1,1.154456049E1
1.303874475E1,-1.710692986E0,-2.100895959E0,1.147149685E1,1.178708931E1
1.304874675E1,-1.467960446E0,-2.386161877E0,1.207755725E1,1.239822832E1
1.305874875E1,-1.082937960E0,-2.605252662E0,1.344407610E1,1.373693118E1
1.306875175E1,-4.736863022E-1,-2.825702047E0,1.693563685E1,1.717628500E1
1.307875375E1,5.325205475E-3,-3.061734555E0,2.028450565E1,2.051427348E1
1.308875575E1,1.073221350E0,-3.178023688E0,2.253357868E1,2.278187452E1
1.309875775E1,1.983653000E0,-2.745020412E0,2.293214595E1,2.318088295E1
1.310875975E1,1.318810254E0,-2.979974693E0,1.932984128E1,1.960260884E1
1.311876275E1,-3.193339884E-2,-3.581454670E0,1.742314378E1,1.778746121E1
1.312876475E1,-2.791660435E0,-4.727149919E0,1.860396910E1,1.939708691E1
1.313876675E1,-7.141099811E0,-7.563309127E0,2.445736643E1,2.657746647E1
1.314876875E1,-1.832471543E1,-1.223843754E1,2.506205506E1,3.337186170E1
1.315877075E1,-1.561027187E1,-9.386534702E0,1.650108114E1,2.457790268E1
1.316877375E1,-5.086769469E0,-3.554937547E0,1.127532861E1,1.287034731E1
1.317877575E1,-2.591116433E0,-1.882559904E0,9.486905082E0,1.001295582E1
1.318877775E1,-2.723410857E0,4.378237206E-1,4.563891565E0,5.332706866E0
1.319877975E1,-3.565264900E0,3.740338138E0,-6.045091277E-1,5.202564221E0
1.320878175E1,-4.804112141E0,5.646415835E0,-3.242162966E0,8.091546573E0
1.321878475E1,-5.857233102E0,5.170560654E0,-1.718898969E0,7.999780670E0
1.322878675E1,-6.695102853E0,4.134238451E0,3.090770366E0,8.453945306E0
1.323878875E1,-7.556883622E0,2.960639997E0,9.000343650E0,1.211932610E1
1.324879075E1,-7.974498780E0,2.697205390E0,1.394942172E1,1.629275649E1
1.325879275E1,-8.008565828E0,3.322497277E0,1.686122284E1,1.895987739E1
1.326879575E1,-8.289999919E0,3.929126605E0,1.714135125E1,1.944191496E1
1.327879775E1,-8.318391075E0,3.918278266E0,1.558259232E1,1.809325062E1
1.328879975E1,-8.355440202E0,3.778588868E0,1.379727366E1,1.656670985E1
1.329880175E1,-8.380256955E0,3.443441085E0,1.176463064E1,1.484899078E1
1.330880375E1,-8.252574230E0,2.832918096E0,9.397193007E0,1.282332417E1
1.331880675E1,-8.089983044E0,2.357861645E0,7.374121295E0,1.119754447E1
1.332880875E1,-7.927443312E0,2.132166722E0,5.842057239E0,1.007571959E1
1.333881075E1,-8.056081472E0,1.817752727E0,5.066483724E0,9.688856021E0
1.334881275E1,-8.338106716E0,1.429647735E0,4.390069339E0,9.531034837E0
1.335881475E1,-8.369403938E0,1.285596608E0,3.639043897E0,9.216415865E0
1.336881775E1,-7.812128034E0,1.502544973E0,3.567399133E0,8.718561945E0
1.337881975E1,-2.975936898E0,1.958760233E0,1.262438652E1,1.311747220E1
1.338882175E1,2.889335892E1,5.391542868E-1,4.457693148E1,5.312456774E1
1.339882450E1,1.430208834E2,5.919225283E0,6.630927322E0,1.432968231E2
1.340882650E1,1.826001435E2,1.102798671E1,-8.173150916E0,1.831153443E2
1.341882950E1,1.299450965E2,2.680847805E0,-1.892054320E1,1.313426892E2
1.342883150E1,7.823007597E1,5.957066708E0,-2.274695995E1,8.168754873E1
1.343883350E1,-2.192741889E1,-1.263018461E0,-1.719353414E1,2.789309110E1
1.344883550E1,-2.911463861E1,5.578543402E-1,-3.034596633E1,4.205771101E1
1.345883750E1,-1.448788011E1,1.614166127E0,-2.365142832E1,2.778298515E1
1.346884050E1,-3.319866030E0,2.593792119E0,-1.000956313E1,1.086004706E1
1.347884250E1,4.846013873E0,2.912681134E0,-4.479285278E0,7.213290404E0
1.348884450E1,-3.553900836E0,5.503845222E-2,-1.557883022E0,3.880752491E0
1.349884650E1,-7.244215459E0,-9.128804639E-1,1.329207773E0,7.421509393E0
1.350884850E1,-9.119350861E0,-7.489037794E-1,2.705774485E0,9.541731109E0
1.351885150E1,-9.596115868E0,-2.760734000E-1,3.227520368E0,1.012810663E1
1.352885350E1,-9.687122517E0,-9.459406212E-2,4.363841361E0,1.062508363E1
1.353885550E1,-1.011854821E1,-3.215422625E-1,5.878281909E0,1.170651979E1
1.354885750E1,-1.047232698E1,-5.797653922E-1,6.786113595E0,1.249228154E1
1.355885950E1,-1.099663511E1,-8.492099865E-1,6.815361367E0,1.296519541E1
1.356886250E1,-1.137801742E1,-9.555886732E-1,6.230692427E0,1.300745779E1
1.357886450E1,-1.118186438E1,-7.802378386E-1,5.374824947E0,1.243107418E1
1.358886650E1,-1.109002450E1,-7.069270568E-1,4.721758786E0,1.207407948E1
1.359886850E1,-1.159415390E1,-9.375147834E-1,4.329720519E0,1.241168072E1
1.360887050E1,-1.165074325E1,-1.015044624E0,3.838457340E0,1.230869159E1
1.361887350E1,-1.104745560E1,-6.026938596E-1,3.143071371E0,1.150167000E1
1.362887550E1,-1.054968681E1,-4.083154544E-2,2.371128978E0,1.081294649E1
1.363887750E1,-1.076795870E1,1.389285283E-1,1.622404123E0,1.089038249E1
1.364887950E1,-1.110102545E1,4.380820213E-1,9.371022624E-1,1.114911847E1
1.365888150E1,-1.136310468E1,1.007421170E0,4.784448759E-1,1.141770357E1
1.366888450E1,-1.169307475E1,1.572644902E0,6.934211215E-2,1.179855997E1
1.367888650E1,-1.198567176E1,2.004233737E0,-2.077428196E-1,1.215386513E1
1.368888850E1,-1.205391812E1,2.472274991E0,-5.516684246E-1,1.231720032E1
1.369889050E1,-1.189715193E1,2.964514362E0,-8.925318611E-1,1.229337963E1
1.370889250E1,-1.159310958E1,3.400025509E0,-8.667854011E-1,1.211245971E1
1.371889550E1,-1.115399187E1,3.707991341E0,-4.309080724E-1,1.176207534E1
1.372889750E1,-1.069100817E1,3.975904330E0,1.836575353E-1,1.140785698E1
1.373889950E1,-1.026823927E1,4.217315984E0,9.335654278E-1,1.113975028E1
1.374890150E1,-9.862435491E0,4.581006950E0,1.871922064E0,1.103437133E1
1.375890350E1,-9.579505683E0,4.916199172E0,2.976174587E0,1.117110373E1
1.376890650E1,-9.367261695E0,4.821240975E0,4.885947140E0,1.161302870E1
1.377890850E1,-8.784658576E0,4.602104289E0,7.614298017E0,1.250308460E1
1.378891050E1,-8.255855103E0,4.533491306E0,9.319225649E0,1.324989259E1
1.379891250E1,-8.134145309E0,4.267667235E0,1.030639820E1,1.380576501E1
1.380891450E1,-8.518590968E0,3.619549280E0,1.086175505E1,1.427043278E1
1.381891750E1,-8.586234482E0,3.428980336E0,1.163877985E1,1.486413553E1
1.382891950E1,-7.991949795E0,3.417330636E0,1.163630881E1,1.452422435E1
1.383892150E1,-8.115708454E0,2.053725740E0,9.305702208E0,1.251713253E1
1.384892350E1,-8.582715043E0,7.850657384E-1,7.523244005E0,1.144021530E1
1.385892550E1,-8.842207457E0,-2.626885021E-1,7.065556709E0,1.132147206E1
1.386892850E1,-8.912064142E0,-1.939054386E0,8.276322112E0,1.231593792E1
1.387893050E1,-7.485369835E0,-4.212962147E0,1.236580744E1,1.505632775E1
1.388893250E1,-1.521258402E0,-7.248786228E0,1.652575171E1,1.810965484E1
1.389893450E1,1.719395514E1,-1.308956643E1,2.527349740E1,3.325234599E1
1.390893650E1,6.598837335E1,-2.091401221E1,3.900189904E1,7.945444892E1
1.391893950E1,1.203798469E2,-2.775280103E1,1.121714882E1,1.240457575E2
1.392894150E1,1.262477758E2,-2.420262429E1,1.231772344E1,1.291355653E2
1.393894350E1,9.789318632E1,-2.261802183E1,-1.978577792E1,1.024017961E2
1.394894550E1,4.515719045E1,-5.808213555E0,8.106170475E0,4.624518563E1
1.395894750E1,-2.804637453E0,9.710730650E0,1.653669185E1,1.938108507E1
1.396895050E1,-3.853268922E0,-6.051460065E0,-5.287716637E1,5.336162079E1
1.397895250E1,-4.462240645E0,1.939680769E0,-5.124323446E1,5.147371204E1
1.398895450E1,-8.983525304E0,5.290235032E0,-3.069736294E1,3.241941402E1
1.399895650E1,-9.072357958E0,4.894740475E0,-1.948251910E1,2.204165859E1
1.400895850E1,-8.603158078E0,3.305798798E0,-1.131104692E1,1.459049063E1
1.401896150E1,-8.998222865E0,2.069495827E0,-5.446001934E0,1.071959723E1
1.402896350E1,-9.180150794E0,1.485791677E0,-2.848962856E0,9.726218939E0
1.403896550E1,-9.325613732E0,1.349909256E0,-2.080328817E0,9.649719916E0
1.404896750E1,-9.392296548E0,1.342296327E0,-1.662588528E0,9.632299544E0
1.405896950E1,-9.583757778E0,1.341017687E0,-1.166025871E0,9.747120493E0
1.406897250E1,-9.788498619E0,1.354068965E0,-3.783943748E-1,9.888952941E0
1.407897450E1,-1.000029997E1,1.402050632E0,1.968534585E-1,1.010002459E1
1.408897650E1,-1.048162055E1,1.383385296E0,4.638531858E-1,1.058268793E1
1.409897850E1,-1.091452968E1,1.417881529E0,1.240630642E0,1.107594288E1
1.410898050E1,-1.127114786E1,1.528691090E0,2.211234527E0,1.158728737E1
1.411898250E1,-1.150594397E1,1.602757186E0,2.744048020E0,1.193672387E1
1.412898550E1,-1.144914529E1,1.812710235E0,3.223860011E0,1.203171308E1
1.413898750E1,-1.118328292E1,2.026969027E0,3.561201085E0,1.191035572E1
1.414898950E1,-1.075265536E1,2.243469349E0,3.971095580E0,1.167999795E1
1.415899150E1,-1.032508357E1,2.450481541E0,4.409922390E0,1.149171988E1
1.416899350E1,-9.915486109E0,2.687809207E0,4.702048992E0,1.129824977E1
1.417899650E1,-9.413935339E0,2.902328639E0,4.772286916E0,1.094625107E1
1.418899850E1,-9.196830561E0,3.074014293E0,4.909495339E0,1.086896503E1
1.419900050E1,-9.170572470E0,4.106190820E0,5.126465632E0,1.128010870E1
1.420900250E1,-9.470087906E0,6.272189532E0,3.792033664E0,1.197507602E1
1.421900450E1,-9.305327402E0,7.265640242E0,4.593385506E0,1.266798471E1
1.422900750E1,-8.816308969E0,7.356015977E0,7.275588695E0,1.359310361E1
1.423900950E1,-9.098672767E0,6.275401407E0,6.172526665E0,1.265964432E1
1.424901150E1,-9.534289749E0,4.656188402E0,5.011842663E0,1.173462135E1
1.425901350E1,-9.886555256E0,3.766253582E0,5.141252071E0,1.176270010E1
1.426901550E1,-1.031828208E1,2.841657345E0,5.485926138E0,1.202652681E1
1.427901850E1,-1.032481342E1,2.014197100E0,6.339569921E0,1.228205638E1
1.428902050E1,-1.017477036E1,1.381844701E0,6.876401036E0,1.235800704E1
1.429902250E1,-1.027442329E1,9.970834391E-1,7.481765612E0,1.274891235E1
1.430902450E1,-1.023059724E1,8.962186767E-1,7.814175144E0,1.290463719E1
1.431902650E1,-9.770575733E0,1.171233548E0,8.177848569E0,1.279504378E1
1.432902950E1,-8.814700400E0,1.918684587E0,8.530536245E0,1.241572963E1
1.433903150E1,-8.017318525E0,2.532411557E0,9.104857952E0,1.239310062E1
1.434903350E1,-7.450494118E0,2.858190932E0,9.891596725E0,1.270916220E1
1.435903550E1,-7.016421971E0,2.670575708E0,1.050569236E1,1.291246390E1
1.436903750E1,-5.578606845E0,2.843870516E0,1.177162157E1,1.333339897E1
1.437903950E1,-8.227137673E-1,2.810637866E0,1.661144616E1,1.686762244E1
1.438904250E1,1.051156063E1,-6.171803364E-1,2.678441558E1,2.877983212E1
1.439904346E1,2.730236662E1,-1.236776859E1,2.841010760E1,4.129788296E1
1.440904546E1,3.051414161E1,-3.461402445E1,3.040170901E0,4.624376894E1
1.441904746E1,4.051674655E1,-4.431352143E1,-1.269635054E1,6.137175450E1
1.442905046E1,8.985391033E1,-2.454285038E1,-5.294889065E1,1.071431833E2
1.443905246E1,1.121103965E2,-2.246372550E1,-8.903954756E1,1.449186013E2
1.444905446E1,6.690908996E1,-1.854272185E1,-3.084998930E1,7.597618504E1
1.445905646E1,-1.147304520E1,-2.493359875E1,-4.761254857E1,5.495698221E1
1.446905846E1,-6.947720110E0,-2.354901551E1,-5.584800098E1,6.100677143E1
1.447906146E1,5.905841591E0,-9.821094507E0,-3.022606333E1,3.232565183E1
1.448906346E1,5.936609640E0,-5.511576703E0,-1.476015220E1,1.683695058E1
1.449906546E1,1.707256578E0,-4.521705658E0,-1.025449013E0,4.940859517E0
1.450906746E1,4.117847244E0,-1.474761343E0,7.059116585E0,8.304379201E0
1.451906946E1,2.478742304E0,5.992635906E-2,1.059464021E1,1.088090785E1
1.452907246E1,4.363493451E-1,1.392054816E0,1.261691494E1,1.270097477E1
1.453907446E1,-1.747966647E-2,2.486651248E0,1.351922101E1,1.374602039E1
1.454907646E1,-2.193197036E-1,3.147197167E0,1.385227257E1,1.420698442E1
1.455907846E1,-4.144453830E-1,3.429981380E0,1.458727693E1,1.499083672E1
1.456908046E1,-8.904139996E-1,3.535561044E0,1.463890200E1,1.508610224E1
1.457908246E1,-1.574772997E0,3.708615823E0,1.379090253E1,1.436741918E1
1.458908546E1,-2.101497492E0,4.036719466E0,1.277456406E1,1.356100596E1
1.459908746E1,-2.111699129E0,4.635477857E0,1.203566896E1,1.306921021E1
1.460908946E1,-1.067471198E0,5.867800190E0,1.164680573E1,1.308505474E1
1.461909146E1,-3.471907085E-1,6.492292178E0,1.208152400E1,1.371982585E1
1.462909346E1,-2.716265559E-1,6.591906513E0,1.286600282E1,1.445894329E1
1.463909646E1,-4.994855332E-1,6.562352346E0,1.309164687E1,1.465282130E1
1.464909846E1,-9.050954810E-1,6.396330013E0,1.278562232E1,1.432495632E1
1.465910046E1,-1.450516740E0,6.243037654E0,1.126453465E1,1.296029548E1
1.466910246E1,-1.927174159E0,6.159178641E0,9.430997515E0,1.142773800E1
1.467910446E1,-2.380600882E0,6.504239793E0,7.728884148E0,1.037824870E1
1.468910746E1,-3.081401080E0,7.896426757E0,5.285886458E0,9.989453628E0
1.469910946E1,-3.790424802E0,9.889418052E0,2.479042851E0,1.087720383E1
1.470911146E1,-4.093799985E0,1.028842620E1,2.649731846E0,1.138560455E1
1.471911346E1,-4.372827947E0,1.039431460E1,4.021538340E0,1.197230850E1
1.472911546E1,-5.089691323E0,1.132321497E1,2.930079525E0,1.275560744E1
1.473911846E1,-5.918158166E0,1.261347795E1,1.520308814E0,1.401555425E1
1.474912046E1,-5.852136084E0,1.176671458E1,2.233456285E0,1.333009362E1
1.475912246E1,-5.453092852E0,1.010417108E1,4.292655019E0,1.225795179E1
1.476912446E1,-4.895634807E0,8.900696570E0,6.614386134E0,1.212187046E1
1.477912646E1,-4.465607764E0,8.593415447E0,8.989690608E0,1.321374205E1
1.478912946E1,-4.241431363E0,8.644098528E0,1.103935136E1,1.464846265E1
1.479913146E1,-4.495676778E0,9.503627535E0,1.291380966E1,1.665222285E1
1.480913346E1,-4.886086012E0,1.013222602E1,1.276853208E1,1.701679324E1
1.481913546E1,-5.069485685E0,8.979569662E0,1.195440553E1,1.578734202E1
1.482913746E1,-4.801753959E0,6.552876933E0,1.328722688E1,1.557393449E1
1.483913946E1,-4.313183716E0,4.308253051E0,1.574088580E1,1.688016836E1
1.484914246E1,-3.923318858E0,2.740793459E0,1.769474928E1,1.833053550E1
1.485914446E1,-3.787271984E0,1.633288423E0,1.938328249E1,1.981723241E1
1.486914646E1,-3.874390234E0,8.536905617E-1,2.054894481E1,2.092842135E1
1.487914846E1,-3.982156758E0,5.015776670E-1,1.989009459E1,2.029100824E1
1.488915046E1,-4.054599082E0,3.035424131E-1,1.823548341E1,1.868327506E1
1.489915346E1,-4.166552212E0,-2.484072626E-2,1.544032605E1,1.599263715E1
1.490915546E1,-4.445317633E0,-7.181561959E-1,1.285483581E1,1.362069752E1
1.491915746E1,-4.584396581E0,-1.835138692E0,1.179130914E1,1.278355965E1
1.492915946E1,-4.381602863E0,-3.782928672E0,1.186244052E1,1.319948818E1
1.493916146E1,-9.197301847E-1,-9.452650924E0,1.584268933E1,1.847131068E1
1.494916446E1,1.911733358E1,-2.534668583E1,3.878829090E1,5.012442954E1
1.495916646E1,6.214520900E1,-4.689041744E1,3.495851667E1,8.533953443E1
1.496916846E1,9.536000410E1,-5.996929165E1,-9.494008280E0,1.130485848E2
1.497917046E1,1.062522442E2,-6.136053605E1,-1.587003793E1,1.237194927E2
1.498917246E1,9.870577154E1,-5.712957500E1,-1.836894260E1,1.155163873E2
1.499917546E1,5.407930245E1,-4.697714802E1,-2.134185766E1,7.474555691E1
1.500917746E1,1.855800530E1,-2.426099587E1,2.433522277E0,3.064176092E1
1.501917946E1,-1.262224643E1,9.098614295E0,3.288109217E1,3.637680730E1
1.502918146E1,1.186017648E1,1.017862719E1,-1.360450031E1,2.072077861E1
1.503918346E1,7.909343256E0,8.503223315E0,-3.912276099E1,4.080996134E1
1.504918646E1,-7.631332126E0,7.645673007E0,-4.607666277E1,4.732602242E1
1.505918846E1,-1.099882314E1,3.149193991E0,-2.417116159E1,2.674203781E1
1.506919046E1,-9.510467607E0,1.646114729E0,-1.206267024E1,1.544884141E1
1.507919246E1,-8.912658804E0,1.959321712E0,-6.641497334E0,1.128644831E1
1.508919446E1,-8.498322179E0,2.449441614E0,-2.683806496E0,9.242513802E0
1.509919746E1,-8.298771912E0,2.329942360E0,-5.100596380E-1,8.634721042E0
1.510919946E1,-8.295106877E0,2.014892773E0,7.950143373E-1,8.573251354E0
1.511920146E1,-8.387958907E0,1.998861754E0,1.395232193E0,8.734985737E0
1.512920346E1,-8.552099022E0,1.849757316E0,1.701492977E0,8.913757802E0
1.513920546E1,-8.777909719E0,1.455780404E0,2.087884004E0,9.139488784E0
1.514920746E1,-8.982979174E0,1.134267377E0,2.358000663E0,9.356315752E0
1.515921046E1,-9.145601935E0,8.919396843E-1,2.593590682E0,9.547999989E0
1.516921246E1,-9.543894385E0,6.367096712E-1,2.864069430E0,9.984698941E0
1.517921446E1,-1.010117497E1,3.856885571E-1,3.093155738E0,1.057119217E1
1.518921646E1,-9.521141700E0,3.409018454E-1,3.612020698E0,1.018896692E1
1.519921846E1,-9.238919404E0,2.272043815E-1,3.942677819E0,1.004758488E1
1.520922146E1,-9.245951850E0,1.081022175E-1,4.243967008E0,1.017401433E1
1.521922346E1,-9.199298086E0,-2.170607049E-2,4.557940854E0,1.026656619E1
1.522922546E1,-9.180132667E0,-1.593337395E-1,4.912926486E0,1.041331214E1
1.523922746E1,-9.181345380E0,-3.100545303E-1,5.318522108E0,1.061507957E1
1.524922946E1,-9.126761037E0,-4.390969518E-1,5.714168108E0,1.077693325E1
1.525923246E1,-9.059761886E0,-5.880693520E-1,6.053930513E0,1.091215770E1
1.526923446E1,-8.699162927E0,-6.443525668E-1,6.432994394E0,1.083854431E1
1.527923646E1,-8.093358057E0,-5.968162019E-1,6.509061407E0,1.040319733E1
1.528923846E1,-8.081874710E0,-7.233079583E-1,7.523890707E0,1.106565880E1
1.529924046E1,-8.202343724E0,-8.274552014E-1,7.755270878E0,1.131845180E1
1.530924246E1,-8.512103482E0,-1.290609426E0,7.788919850E0,1.160986007E1
1.531924546E1,-1.005745300E1,-2.538893781E0,8.413917037E0,1.335635962E1
1.532924746E1,-1.220470378E1,-4.211655002E0,9.369025215E0,1.595216179E1
1.533924946E1,-1.222964917E1,-4.839606494E0,9.297671642E0,1.610691801E1
1.534925146E1,-1.005612919E1,-3.895365951E0,8.593089173E0,1.378915486E1
1.535925346E1,-8.996094478E0,-3.257464544E0,8.550951798E0,1.283197443E1
1.536925646E1,-8.504938889E0,-2.895523065E0,8.388578712E0,1.229171640E1
1.537925846E1,-7.716011503E0,-2.087771445E0,8.174692242E0,1.143333794E1
1.538926046E1,-6.718018675E0,-1.206810274E0,8.476877516E0,1.088327241E1
1.539926246E1,-6.082326931E0,-5.152158590E-1,9.019039537E0,1.089051066E1
1.540926533E1,-5.633156104E0,-8.790506668E-2,9.809011236E0,1.131180253E1
1.541926733E1,-5.002599970E0,2.739041926E-1,1.092715031E1,1.202096685E1
1.542927033E1,-4.045674477E0,8.290486407E-1,1.264148377E1,1.329894415E1
1.543927233E1,-2.224508291E0,1.360693275E0,1.554683893E1,1.576401358E1
1.544927433E1,5.102829432E0,2.356389170E0,2.394220802E1,2.459310397E1
1.545927633E1,1.924489644E1,3.449923016E0,2.830131196E1,3.439814336E1
1.546927833E1,2.415205991E1,1.776652722E-1,1.209442529E1,2.701163982E1
1.547928133E1,1.834646240E1,-1.018383472E1,-2.168798944E0,2.109518573E1
1.548928333E1,2.192836380E1,-2.355115091E1,-7.994041345E0,3.315742066E1
1.549928533E1,7.657009822E1,-1.267473806E1,-9.052432869E1,1.192404420E2
1.550928733E1,1.232966346E2,3.022116453E0,-1.302925895E2,1.794083392E2
1.551928933E1,6.242396682E1,-7.628060024E0,-3.041366072E1,6.985649355E1
1.552929233E1,-9.374490607E0,-2.588280300E1,-5.907131837E1,6.517070829E1
1.553929433E1,-1.595644574E1,-2.591941592E1,-4.892025262E1,5.761610365E1
1.554929633E1,2.932828885E-1,-8.846518609E0,-2.621132296E1,2.766550845E1
1.555929833E1,9.267947906E-1,-4.062553342E0,-1.089956432E1,1.166892414E1
1.556930033E1,-3.359078043E0,-2.394545907E0,1.199254575E0,4.295982650E0
1.557930333E1,9.173076832E-1,7.365562141E-1,8.332430239E0,8.415067566E0
1.558930533E1,5.837067810E-1,1.524867011E0,1.098749592E1,1.110815014E1
1.559930733E1,-1.409636225E0,1.158394232E0,1.257641011E1,1.270806999E1
1.560930933E1,-1.528634372E0,1.704988150E0,1.330011415E1,1.349580468E1
1.561931133E1,-1.563842212E0,2.381142334E0,1.364985950E1,1.394396306E1
1.562931333E1,-1.622666663E0,2.818818997E0,1.386632576E1,1.424267453E1
1.563931633E1,-1.170844123E0,3.787580717E0,1.271655735E1,1.332019048E1
1.564931833E1,-9.250967592E-1,4.430904247E0,1.187879635E1,1.271198329E1
1.565932033E1,-1.438189933E0,4.355642395E0,1.166686519E1,1.253617782E1
1.566932233E1,-1.893007124E0,4.290926874E0,1.146651386E1,1.238856204E1
1.567932433E1,-2.098993129E0,4.394436040E0,1.129888705E1,1.230372662E1
1.568932733E1,-2.199080212E0,4.424164453E0,1.147473270E1,1.249314514E1
1.569932933E1,-2.276818067E0,4.317809740E0,1.150299814E1,1.249585322E1
1.570933133E1,-2.372965296E0,4.835350306E0,9.916559658E0,1.128493386E1
1.571933333E1,-2.459347967E0,5.576189606E0,9.379166626E0,1.118530507E1
1.572933533E1,-2.468264093E0,6.580476961E0,9.467382984E0,1.179094336E1
1.573933733E1,-2.477179051E0,7.569684931E0,9.367040670E0,1.229544619E1
1.574934033E1,-2.213677201E0,8.626976711E0,1.079240941E1,1.399289802E1
1.575934233E1,-2.195340333E0,9.411007054E0,1.085918579E1,1.453645379E1
1.576934433E1,-2.690134060E0,9.479205469E0,1.058908535E1,1.446446979E1
1.577934633E1,-3.870039321E0,8.069585617E0,1.052070801E1,1.381233917E1
1.578934833E1,-4.623319741E0,6.613402047E0,1.049488671E1,1.323838431E1
1.579935133E1,-4.735921912E0,5.691772102E0,1.053560906E1,1.287727783E1
1.580935333E1,-4.683698090E0,5.139186834E0,1.075479778E1,1.280679290E1
1.581935533E1,-4.672340459E0,4.715696393E0,1.111222521E1,1.294411476E1
1.582935733E1,-4.482508264E0,4.528755939E0,1.173327904E1,1.335186682E1
1.583935933E1,-4.232286610E0,4.463686369E0,1.178794816E1,1.329633287E1
1.584936133E1,-3.889983881E0,4.210553387E0,1.147181143E1,1.282432033E1
1.585936433E1,-3.366648433E0,3.890844299E0,1.101585257E1,1.215820706E1
1.586936633E1,-3.089391300E0,3.380280339E0,1.083560630E1,1.176354529E1
1.587936833E1,-2.978551188E0,2.758670737E0,1.070966663E1,1.145333972E1
1.588937033E1,-2.694189981E0,2.268323817E0,1.069215773E1,1.125727274E1
1.589937233E1,-2.591388913E0,1.901178315E0,1.062124855E1,1.109687777E1
1.590937533E1,-2.635811673E0,1.532846999E0,1.042421726E1,1.086100495E1
1.591937733E1,-2.655329678E0,1.118571477E0,1.074469262E1,1.112431559E1
1.592937933E1,-2.490566251E0,8.336992237E-1,1.162289179E1,1.191593841E1
1.593938133E1,-2.478893454E0,5.173262653E-1,1.274496078E1,1.299409729E1
1.594938333E1,-2.464165488E0,-1.756971359E-2,1.389430586E1,1.411113587E1
1.595938533E1,-1.624139284E0,-7.338010061E-1,1.598034448E1,1.607941859E1
1.596938833E1,1.865027905E-1,-2.440339253E0,2.031763364E1,2.046451259E1
1.597939033E1,4.230893803E0,-6.550090150E0,2.545750927E1,2.662496802E1
1.598939233E1,1.276888642E1,-1.564288764E1,2.695366441E1,3.367854538E1
1.599939433E1,2.682693654E1,-3.001730837E1,1.485443972E1,4.291127713E1
1.600939633E1,4.036339982E1,-4.254825638E1,-3.151584917E1,6.657932799E1
1.601939933E1,6.956742130E1,-6.179629862E1,-9.743613988E1,1.347301376E2
1.602940133E1,7.418780223E1,-6.641580013E1,-8.740594777E1,1.324941063E2
1.603940333E1,3.152853763E1,-2.469340449E1,-2.075119766E1,4.510460192E1
1.604940533E1,3.595010855E0,-4.959269178E0,-5.681822714E1,5.714743554E1
1.605940733E1,-7.897207945E0,-7.198762713E0,-6.484376919E1,6.571835726E1
1.606941033E1,-1.088025447E1,-1.887513665E0,-4.139068544E1,4.283843469E1
1.607941233E1,-6.969784579E0,8.689146647E-1,-2.721329248E1,2.810509202E1
1.608941433E1,-2.492048228E-1,-2.062297758E0,-1.280003220E1,1.296749780E1
1.609941633E1,3.521571581E0,-3.352493785E0,-2.614963133E0,5.520752953E0
1.610941833E1,2.318562509E0,-2.279771203E0,3.579225712E0,4.835694939E0
1.611942033E1,1.069299622E0,-1.952202289E0,8.197941940E0,8.494748231E0
1.612942333E1,1.594249195E-1,-1.756335475E0,1.220815715E1,1.233487866E1
1.613942533E1,-2.781795305E-1,-2.169698099E0,1.440043500E1,1.456562741E1
1.614942733E1,-2.534832305E-1,-2.121578146E0,1.425572226E1,1.441495629E1
1.615942933E1,-9.882613063E-2,-1.574397605E0,1.343226005E1,1.352457410E1
1.616943133E1,-3.941561294E-1,-1.801917590E0,1.352375026E1,1.364895920E1
1.617943433E1,-6.573241031E-1,-2.312341802E0,1.329616611E1,1.351173685E1
1.618943633E1,-6.793806776E-1,-2.874479520E0,1.358401284E1,1.390142422E1
1.619943833E1,-9.475664395E-1,-3.910813125E0,1.386252975E1,1.443475225E1
1.620944033E1,-6.600082675E-1,-4.620290007E0,1.448640427E1,1.521967803E1
1.621944233E1,-5.524811876E-1,-5.361022595E0,1.543890635E1,1.635254194E1
1.622944433E1,-4.868461919E-1,-5.538989620E0,1.625085656E1,1.717579006E1
1.623944733E1,-9.920058632E-1,-5.376548706E0,1.603585912E1,1.694225868E1
1.624944933E1,-1.742322330E0,-4.537613593E0,1.501039783E1,1.577775862E1
1.625945133E1,-2.937431229E0,-3.942062692E0,1.400514100E1,1.484292205E1
1.626945333E1,-4.225885663E0,-3.023801036E0,1.287329313E1,1.388247667E1
1.627945533E1,-5.722530795E0,-1.841131650E0,1.186601434E1,1.330185779E1
1.628945733E1,-7.032501229E0,-6.758251320E-1,1.091345847E1,1.300063033E1
1.629946033E1,-8.115752308E0,2.853036319E-1,1.077851877E1,1.349530661E1
1.630946233E1,-9.509225659E0,6.515716124E-1,9.794677371E0,1.366695368E1
1.631946433E1,-1.135597107E1,2.175168608E-1,7.435374388E0,1.357535211E1
1.632946633E1,-1.294806382E1,-5.680100767E-1,5.001877838E0,1.389221991E1
1.633946833E1,-1.335728822E1,-9.110881461E-1,3.230789839E0,1.377262623E1
1.634947133E1,-1.313008647E1,7.640132770E-2,1.223916961E0,1.318722793E1
1.635947333E1,-1.401127356E1,9.838614227E-1,-9.849552906E-1,1.408026658E1
1.636947533E1,-1.398935820E1,9.675127539E-1,-1.935057667E0,1.415565865E1
1.637947733E1,-1.320794565E1,1.771247044E0,-1.795279977E0,1.344656739E1
1.638947933E1,-1.294528054E1,1.540021678E0,-1.024766497E0,1.307677718E1
1.639948133E1,-1.348994517E1,-3.769087435E-1,2.616501828E-1,1.349774580E1
1.640948396E1,-1.502730447E1,-2.340710446E0,2.407332890E0,1.539785883E1
1.641948596E1,-1.552559951E1,-3.284887986E0,4.668220510E0,1.654167500E1
1.642948796E1,-1.541424396E1,-3.045769025E0,5.647845479E0,1.669652013E1
1.643948996E1,-1.475294726E1,-2.246015519E0,5.248246762E0,1.581891692E1
1.644949196E1,-1.350799202E1,-1.157862135E0,4.323248528E0,1.423014304E1
1.645949396E1,-1.243499052E1,-5.226185802E-1,4.368885754E0,1.319049970E1
1.646949696E1,-1.143808002E1,1.019052744E-2,5.078776910E0,1.251494120E1
1.647949896E1,-1.055735602E1,6.290082304E-1,7.291787821E0,1.284615067E1
1.648950096E1,-9.960006809E0,1.076264095E0,1.246046801E1,1.598822514E1
1.649950296E1,-9.052203775E0,1.527313194E0,1.781397635E1,2.004028024E1
1.650950496E1,-8.332561217E0,2.360416732E0,1.647698125E1,1.861435078E1
1.651950796E1,-6.767941618E-1,2.119636432E0,3.109855912E1,3.117805780E1
1.652950996E1,4.360649483E1,-2.062280216E0,6.826720636E1,8.103203598E1
1.653951196E1,1.262633060E2,-6.414223078E0,5.826751333E1,1.392072836E2
1.654951396E1,1.560647960E2,-1.739375684E1,-1.401671849E1,1.576554208E2
1.655951596E1,1.188772435E2,-7.919318022E0,-1.228452880E1,1.197723852E2
1.656951896E1,7.905027660E1,2.953932948E-1,-9.044525796E0,7.956655664E1
1.657952096E1,3.765009996E1,3.612478535E0,-1.039009174E1,3.922415117E1
1.658952296E1,7.313684474E0,1.520373426E0,-1.532759173E1,1.705099951E1
1.659952496E1,-3.756902247E1,-4.608157327E0,-1.826745131E1,4.202816128E1
1.660952696E1,-1.582940680E1,9.446152913E0,-1.467673114E1,2.356281735E1
