"Time (s)","Linear Acceleration x (m/s^2)","Linear Acceleration y (m/s^2)","Linear Acceleration z (m/s^2)","Absolute acceleration (m/s^2)"
1.633845828E-2,-9.546544343E-2,2.125959903E-1,-8.671625465E-1,8.979318393E-1
2.634045831E-2,-6.738711387E-2,4.636321610E-1,-5.977895075E-1,7.595051673E-1
3.634345834E-2,-1.731334242E-1,4.973629940E-1,-3.777628756E-1,6.481125832E-1
4.634645837E-2,-2.481561247E-1,4.867029351E-1,-2.194875187E-1,5.887579979E-1
5.634845828E-2,-2.910401890E-1,3.901379228E-1,-2.434067237E-1,5.442047625E-1
6.635145831E-2,-2.303013593E-1,4.196537903E-1,-5.506697202E-1,7.296472850E-1
7.635445835E-2,-2.078147221E-1,3.844769409E-1,-8.480211014E-1,9.540174344E-1
8.635645837E-2,-1.823088750E-1,1.397978631E-1,-1.000110104E0,1.026157975E0
9.635945829E-2,-1.189879149E-2,-9.396095484E-2,-7.941097730E-1,7.997378157E-1
1.063614583E-1,1.200404137E-1,5.206653178E-2,-6.374558491E-1,6.507461749E-1
1.163644583E-1,7.118955821E-2,3.109979054E-1,-5.944577640E-1,6.746611621E-1
1.263674584E-1,6.881032616E-2,4.239266431E-1,-2.446346390E-1,4.942618399E-1
1.363694583E-1,1.920827883E-1,4.615084523E-1,2.088473403E-1,5.417592276E-1
1.463724583E-1,1.988681898E-1,3.149555933E-1,3.225534654E-1,4.927335189E-1
1.563744583E-1,1.556865022E-1,2.222409725E-1,2.563705856E-1,3.733031127E-1
1.663774584E-1,4.192453623E-4,2.434836146E-1,3.405494410E-1,4.186387083E-1
1.763804583E-1,6.664977998E-2,1.610124385E-1,2.709073484E-1,3.221148707E-1
1.863824583E-1,1.017330739E-1,1.339632189E-1,-3.009620368E-2,1.708845921E-1
1.963854583E-1,-1.765686634E-1,2.463809100E-1,-3.092662525E-1,4.330423312E-1
2.063874584E-1,-4.582784504E-1,4.108218634E-1,-5.268031400E-1,8.101328841E-1
2.163904583E-1,-5.537649438E-1,4.813544869E-1,-6.066842920E-1,9.520628053E-1
2.263934583E-1,-3.800406584E-1,4.606614831E-1,-5.707139754E-1,8.260474235E-1
2.363954583E-1,-1.485754108E-1,3.925498992E-1,-3.204028594E-1,5.280417298E-1
2.463984584E-1,4.172865450E-3,2.567623490E-1,-2.360696375E-1,3.488168437E-1
2.564014583E-1,4.160557061E-2,1.227681398E-1,1.064310193E-2,1.300627360E-1
2.664034583E-1,-3.986017674E-2,1.371815264E-1,5.882679015E-1,6.053649551E-1
2.764064583E-1,-2.258527976E-1,2.946949911E-1,1.016348407E0,1.082043764E0
2.864084584E-1,-4.802142799E-1,6.118716493E-1,4.964134061E-1,9.227236529E-1
2.964114583E-1,-8.228693032E-1,8.330127606E-1,-5.638247859E-1,1.299585526E0
3.064144583E-1,-1.248110985E0,8.946976697E-1,-1.124922431E0,1.903605901E0
3.164164583E-1,-1.368935511E0,8.371356323E-1,-4.761604053E-1,1.673770961E0
3.264194584E-1,-8.993754423E-1,7.196308637E-1,9.819691175E-1,1.513607649E0
3.364214583E-1,-3.818269828E-1,5.594317728E-1,1.973408970E0,2.086408090E0
3.464244583E-1,-3.300990048E-1,7.412407109E-1,2.175533182E0,2.321927598E0
3.564274583E-1,-9.015244402E-1,1.345164240E0,9.230666059E-1,1.863938064E0
3.664294584E-1,-1.580966806E0,1.443964935E0,9.549497187E-2,2.143270880E0
3.764324583E-1,-1.339520946E0,1.841295810E0,-5.626787317E-1,2.345483741E0
3.864344583E-1,-1.240677128E0,1.705242797E0,-1.539827989E0,2.611168889E0
3.964374583E-1,-4.166560690E-1,1.224094424E0,-2.282671714E0,2.623470906E0
4.064404584E-1,1.017180173E0,6.664554074E-1,-2.265467452E0,2.571217822E0
4.164424583E-1,1.944258554E0,-8.168504718E-1,-1.404674862E0,2.533870061E0
4.264454583E-1,3.023072473E0,-1.953722857E0,-1.599364339E0,3.938777281E0
4.364484583E-1,4.190936270E0,-3.920248193E0,-3.053549330E0,6.500496614E0
4.464504584E-1,1.916054070E0,-2.867938240E0,-6.535341133E0,7.389656060E0
4.564534583E-1,1.429327746E0,-2.454596812E-1,-6.581790245E0,6.739672922E0
4.664554583E-1,1.119364360E0,9.065906140E-1,-3.728033257E0,3.996637972E0
4.764584583E-1,-4.777211733E-1,2.839998490E0,1.929655425E0,3.466609150E0
4.864614584E-1,-1.043315473E0,2.624642029E0,4.146603266E0,5.017127824E0
4.964634583E-1,3.594677418E-1,2.637846211E0,2.185683364E0,3.444511788E0
5.064664583E-1,1.879766250E0,2.255164658E0,-3.029512596E-1,2.951451889E0
5.164684583E-1,2.959301862E0,1.553792456E0,-2.618976662E0,4.246266273E0
5.264714584E-1,3.376023858E0,9.434055609E-1,-4.075756062E0,5.375810508E0
5.364744583E-1,2.904352068E0,3.358354157E-1,-4.974795874E0,5.770324112E0
5.464764583E-1,2.204570163E0,-6.466076186E-1,-5.725309392E0,6.169067892E0
5.564794583E-1,1.930798848E0,-2.169740930E0,-6.123752115E0,6.777617566E0
5.664814584E-1,1.372582711E0,-4.590211929E0,1.821041055E0,5.125448213E0
5.764844583E-1,1.353598849E0,-6.098678670E0,-1.049472883E0,6.334627431E0
5.864874583E-1,1.781514462E0,-5.695486253E0,2.802564030E0,6.592929742E0
5.964894583E-1,1.304703262E0,-5.656358441E0,4.184862767E0,7.156096547E0
6.064924584E-1,1.178118206E0,-5.921082358E0,1.345830823E0,6.185340686E0
6.164954583E-1,9.549000174E-1,-5.855084251E0,-9.531908762E-1,6.008528811E0
6.264974583E-1,3.145496139E-1,-5.473701364E0,-5.059307436E0,7.460357888E0
6.365004583E-1,6.840007089E-1,-4.781718475E0,-6.429598331E0,8.041916640E0
6.465024584E-1,2.126225367E0,-4.186819831E0,-3.974825519E0,6.152197372E0
6.565054583E-1,3.695390883E0,-2.698250872E0,5.431197953E-1,4.607759831E0
6.665084583E-1,3.916822017E0,-1.514970306E0,3.100327640E0,5.220025020E0
6.765104583E-1,1.653240584E0,7.632955313E-2,2.983257612E0,3.411576851E0
6.865134584E-1,-9.690880523E0,4.443231931E0,2.389887430E0,1.092552229E1
6.965154583E-1,-9.566374590E0,1.128840299E1,5.155202358E0,1.566906750E1
7.065184583E-1,-3.554606595E0,1.229667347E1,6.396294345E0,1.430929725E1
7.165214584E-1,-7.173280840E-1,1.184616655E1,1.117739477E1,1.630277201E1
7.265234584E-1,-1.223180650E0,1.269326438E1,1.848468590E1,2.245659690E1
7.365264583E-1,-1.374480133E0,1.093775014E1,2.339174178E1,2.585917936E1
7.465284583E-1,-2.080843079E0,7.599743128E0,2.471770084E1,2.594322143E1
7.565314583E-1,-3.628373314E0,5.383543146E0,2.336882303E1,2.425385577E1
7.665344584E-1,-3.465362004E0,4.888227847E0,2.104883029E1,2.188508081E1
7.765364583E-1,-1.410769707E0,6.367925409E0,1.800864536E1,1.915338228E1
7.865394583E-1,3.912484552E-1,8.916906222E0,1.380070831E1,1.643544468E1
7.965414583E-1,7.958458845E-1,1.118117207E1,9.045399370E0,1.440386161E1
8.065444584E-1,4.614409900E-1,1.101336634E1,5.620193412E0,1.237310551E1
8.165474583E-1,-8.093810923E-1,9.006825873E0,3.934722390E0,9.862051022E0
8.265494583E-1,-4.108591102E0,7.128686172E0,2.079668081E0,8.486678191E0
8.365524583E-1,-5.943156767E0,5.202961830E0,5.029348058E-1,7.914851078E0
8.465544584E-1,-3.944936891E0,3.623986148E0,-1.002721471E0,5.449885597E0
8.565574583E-1,-1.652253574E-1,2.153378082E0,-1.021064186E-1,2.162119863E0
8.665604583E-1,1.968999146E0,-2.779111433E-1,4.100545918E0,4.557265525E0
8.765624583E-1,1.443766568E0,-1.952715089E0,5.307587814E0,5.836783920E0
8.865654584E-1,1.049186516E0,-3.126804417E0,2.602527859E0,4.201291405E0
8.965674583E-1,1.364017710E0,-3.387995448E0,9.334173471E-1,3.769658527E0
9.065704583E-1,1.436447316E0,-3.439848556E0,-1.324663317E0,3.956093008E0
9.165734584E-1,1.112556008E0,-3.704179541E0,-4.365841693E0,5.832606676E0
9.265754584E-1,8.752591860E-1,-4.325674830E0,-7.097219381E0,8.357515440E0
9.365784583E-1,2.170705867E0,-3.889766073E0,-7.667662046E0,8.867653879E0
9.465804583E-1,1.418126820E0,-4.052290601E0,-7.174849355E0,8.361256249E0
9.565834583E-1,-5.600887075E-1,-5.993086726E0,-7.239975643E0,9.415308555E0
9.665864584E-1,-2.055480781E0,-7.890705256E0,-7.185702957E0,1.086842020E1
9.765884583E-1,-3.229112857E0,-9.100070837E0,-7.358976422E0,1.214055160E1
9.865914583E-1,-4.162593062E0,-1.007202075E1,-7.611593680E0,1.329319906E1
9.965944584E-1,-5.023909562E0,-1.081600176E1,-7.939537693E0,1.432696130E1
1.006596458E0,-5.699874004E0,-1.130378234E1,-8.729849700E0,1.537772202E1
1.016599458E0,-5.754635518E0,-1.163220874E1,-9.588784629E0,1.613595057E1
1.026601958E0,-5.275101854E0,-1.199803745E1,-1.050491351E1,1.679680952E1
1.036604958E0,-4.857709474E0,-1.235017198E1,-1.028691528E1,1.679120947E1
1.046606958E0,-4.761567508E0,-1.302339934E1,-8.595333334E0,1.631444791E1
1.056609958E0,-4.924435560E0,-1.350731491E1,-7.616569076E0,1.626990308E1
1.066612958E0,-5.132322788E0,-1.238141366E1,-9.008427426E0,1.614905279E1
1.076614958E0,-4.517631319E0,-1.172087475E1,-8.368452596E0,1.509367075E1
1.086617958E0,-4.141196346E0,-1.163723384E1,-8.040818485E0,1.473870688E1
1.096620958E0,-3.524353686E0,-1.131812906E1,-7.433812011E0,1.399223626E1
1.106622958E0,-2.659182116E0,-1.103963320E1,-6.625820364E0,1.314710030E1
1.116625958E0,-1.867765717E0,-1.071149915E1,-6.194591718E0,1.251390145E1
1.126627958E0,-1.100051299E0,-1.019461230E1,-6.264476470E0,1.201598512E1
1.136630958E0,-6.121603556E-1,-9.736082423E0,-6.323390676E0,1.162545960E1
1.146633958E0,-4.485912220E-1,-9.422800888E0,-6.514882311E0,1.146447130E1
1.156635958E0,-1.683702824E-1,-9.156678901E0,-6.716792514E0,1.135730684E1
1.166638958E0,4.182416146E-1,-8.742651009E0,-6.567011408E0,1.094232661E1
1.176640958E0,7.852068756E-1,-8.668053986E0,-6.464207416E0,1.084147994E1
1.186643958E0,6.945119561E-1,-8.764986203E0,-6.308751587E0,1.082163003E1
1.196646958E0,2.384123245E-1,-8.790088885E0,-6.744870844E0,1.108222837E1
1.206648958E0,-4.867960520E-1,-8.538777895E0,-7.488510960E0,1.136773921E1
1.216651958E0,-9.299132569E-1,-8.034936186E0,-7.969644422E0,1.135518253E1
1.226653958E0,1.527853330E-1,-6.974367042E0,-7.345709674E0,1.013037954E1
1.236656958E0,2.125868394E0,-5.410491208E0,-5.349986560E0,7.900322002E0
1.246659958E0,3.481179015E0,-4.332455261E0,-3.262984900E0,6.444830982E0
1.256661958E0,3.494486108E0,-3.455325551E0,-3.194632119E-1,4.924709592E0
1.266664958E0,2.349159088E0,-2.223283884E0,1.700532280E0,3.654223540E0
1.276666958E0,7.435699493E-1,7.177369505E-1,1.180965654E0,1.569306367E0
1.286669958E0,-7.697020331E-1,5.216070703E0,1.444437683E-1,5.274533041E0
1.296672958E0,-1.666439065E0,9.395806632E0,-2.327302927E-1,9.545279714E0
1.306674958E0,-2.058857987E0,1.107885281E1,7.751250333E-1,1.129516245E1
1.316677958E0,-2.466512268E0,1.029740402E1,4.434794984E0,1.147987887E1
1.326679958E0,-2.799447757E0,8.881395496E0,9.235395872E0,1.311520608E1
1.336682958E0,-1.795179990E0,8.246718829E0,1.448383852E1,1.676343106E1
1.346685958E0,5.547927381E-1,7.906455317E0,1.941853302E1,2.097377541E1
1.356687958E0,4.008508404E0,7.408162615E0,2.224935722E1,2.379039533E1
1.366690958E0,8.168822806E0,7.584831558E0,2.372197615E1,2.621052247E1
1.376692958E0,1.100610760E1,8.008450638E0,2.551629484E1,2.891973355E1
1.386695958E0,1.037178177E1,7.492014611E0,2.655435805E1,2.947605930E1
1.396698958E0,6.626455371E0,6.870909916E0,2.593269612E1,2.763374824E1
1.406700958E0,2.155697965E0,6.935266711E0,2.391641946E1,2.499480101E1
1.416703958E0,4.452923691E-1,8.489772965E0,2.210004740E1,2.367882230E1
1.426705958E0,1.891079004E0,1.004517151E1,2.091975184E1,2.328342044E1
1.436708958E0,4.212635580E0,1.056183265E1,1.972488034E1,2.276772961E1
1.446711958E0,4.641886405E0,9.818663235E0,1.771628224E1,2.078027703E1
1.456713958E0,2.694954797E0,8.360274096E0,1.547495209E1,1.779413124E1
1.466716958E0,1.037244894E-2,6.763197187E0,1.425571992E1,1.577867213E1
1.476718958E0,-1.539326444E0,5.142688147E0,1.272515977E1,1.381109910E1
1.486721958E0,-1.852899902E0,4.151017329E0,1.048054583E1,1.142392331E1
1.496724958E0,-1.650447954E0,3.918250199E0,8.299073628E0,9.324767351E0
1.506726958E0,-1.866881180E0,3.816920291E0,5.896917570E0,7.268270955E0
1.516729958E0,-2.988590273E0,3.798451275E0,3.385942490E0,5.901229571E0
1.526731958E0,-4.510196876E0,3.571920201E0,1.433937837E0,5.929305820E0
1.536734958E0,-5.080454476E0,3.144214502E0,-1.058170617E-1,5.975642206E0
1.546737958E0,-4.617133387E0,2.616311501E0,-1.081245484E0,5.415911593E0
1.556739958E0,-3.272904702E0,1.831193576E0,-9.730035818E-1,3.874520754E0
1.566742958E0,-1.322794693E0,8.177529895E-1,1.027765095E-1,1.558547004E0
1.576744958E0,4.774853843E-1,-4.047922146E-1,8.780354440E-1,1.078329852E0
1.586747958E0,1.563828325E0,-1.004752793E0,4.095781606E-1,1.903376335E0
1.596750958E0,1.830115788E0,-1.221597955E0,-6.107855290E-1,2.283568331E0
1.606752958E0,1.262518378E0,-1.728345730E0,-2.210577884E0,3.076976796E0
1.616755958E0,4.922814712E-1,-2.542807322E0,-4.498399826E0,5.190742829E0
1.626757958E0,-1.598133208E-1,-3.340846424E0,-6.310089430E0,7.141710141E0
1.636760958E0,-6.719690394E-1,-4.503413814E0,-7.623351846E0,8.879626779E0
1.646762958E0,-9.321012850E-1,-5.822858491E0,-8.366944599E0,1.023622273E1
1.656765958E0,-1.401127064E0,-6.838100020E0,-8.682730497E0,1.114058247E1
1.666768958E0,-1.900629993E0,-7.645244406E0,-8.334567981E0,1.146852998E1
1.676770958E0,-2.042029554E0,-7.822050759E0,-7.173458887E0,1.080800052E1
1.686773958E0,-2.272951449E0,-7.701211030E0,-6.282945485E0,1.019560511E1
1.696775958E0,-2.500745084E0,-7.585426220E0,-5.837539680E0,9.892890702E0
1.706778958E0,-2.403562459E0,-7.235890778E0,-6.018451948E0,9.713752709E0
1.716781958E0,-2.273854698E0,-6.747193358E0,-6.821596254E0,9.860487252E0
1.726783958E0,-2.282226741E0,-6.118895418E0,-7.637992104E0,1.004929666E1
1.736786958E0,-2.282124561E0,-5.878739161E0,-8.209877862E0,1.035228290E1
1.746788958E0,-2.342546618E0,-6.138494115E0,-8.567619871E0,1.079688589E1
1.756791958E0,-2.929837450E0,-6.686640177E0,-8.720846742E0,1.137313819E1
1.766794958E0,-3.527521707E0,-6.539428337E0,-8.444630122E0,1.124808029E1
1.776796958E0,-3.285169529E0,-6.088545445E0,-7.952661769E0,1.054075679E1
1.786799958E0,-2.244684547E0,-5.901765497E0,-7.462984940E0,9.775765387E0
1.796801958E0,-1.190963662E0,-5.804141554E0,-7.103026251E0,9.249834352E0
1.806804958E0,-3.114024597E-1,-5.585479077E0,-6.749487805E0,8.766420800E0
1.816807958E0,2.501223240E-1,-5.381777287E0,-6.486135644E0,8.431846982E0
1.826809958E0,3.106519695E-1,-5.346379412E0,-6.549921750E0,8.460600003E0
1.836812958E0,-9.966030903E-2,-5.566970301E0,-6.951762291E0,8.906631768E0
1.846814958E0,-5.281866644E-1,-5.832552005E0,-7.713399552E0,9.684739371E0
1.856817958E0,-8.291569604E-1,-5.934734437E0,-8.197003462E0,1.015378943E1
1.866820958E0,-1.016222399E0,-6.101348509E0,-8.411338999E0,1.044077513E1
1.876822958E0,-1.338391995E0,-6.230350950E0,-8.695019006E0,1.078016334E1
1.886825958E0,-1.762885233E0,-6.207026407E0,-9.280264481E0,1.130301951E1
1.896827958E0,-1.952186062E0,-6.185392878E0,-1.025146829E1,1.213106416E1
1.906830958E0,-1.978229853E0,-6.300649685E0,-1.121542272E1,1.301527128E1
1.916832958E0,-2.130207174E0,-6.527104746E0,-1.197494797E1,1.380363205E1
1.926835958E0,-1.558209296E0,-6.827232385E0,-1.218329362E1,1.405246461E1
1.936838958E0,-1.039818984E0,-6.873532977E0,-1.152522692E1,1.345947750E1
1.946840958E0,-1.143455473E0,-6.655906627E0,-1.111962194E1,1.300978768E1
1.956843958E0,-1.447325915E0,-6.398259010E0,-1.104722055E1,1.284809528E1
1.966845958E0,-1.649313886E0,-6.369979536E0,-1.047355139E1,1.236899973E1
1.976848958E0,-1.704934064E0,-6.428846380E0,-1.002329239E1,1.202926666E1
1.986851958E0,-1.156895590E0,-6.592081929E0,-9.465989592E0,1.159305441E1
1.996853958E0,-8.571146911E-1,-6.326997238E0,-7.306774819E0,9.703324065E0
2.006856958E0,-9.517898834E-1,-4.956901056E0,-5.578745424E0,7.523242157E0
2.016858958E0,-2.329650584E-1,-2.500124987E0,-5.724077969E0,6.250597272E0
2.026861458E0,6.400756940E-2,1.255271485E-1,-6.432409088E0,6.433952184E0
2.036864458E0,-2.853382766E-2,2.732542746E0,-6.658299308E0,7.197260153E0
2.046866458E0,1.026002160E-1,5.687079127E0,-5.762225788E0,8.096705616E0
2.056869458E0,-8.244907361E-1,8.091815561E0,-3.082032287E0,8.698056511E0
2.066871458E0,-1.087398801E0,9.848395157E0,1.690957464E0,1.005150041E1
2.076874458E0,1.589334025E0,1.115505607E1,1.089520814E1,1.567376212E1
2.086877458E0,6.442133008E0,1.133552804E1,2.132403301E1,2.499419247E1
2.096879458E0,1.152059008E1,1.155550497E1,2.934561298E1,3.357705604E1
2.106882458E0,1.422065768E1,1.163173044E1,3.498746741E1,3.951768127E1
2.116884458E0,1.543050039E1,9.605938606E0,3.762926984E1,4.178918936E1
2.126887458E0,1.427530225E1,7.693099773E0,3.702117579E1,4.041701987E1
2.136890458E0,1.182219531E1,8.002032734E0,3.473889993E1,3.755779544E1
2.146892458E0,1.017484287E1,8.979279056E0,2.994908306E1,3.288012251E1
2.156895458E0,9.232200369E0,9.744971945E0,2.488548786E1,2.827517476E1
2.166897458E0,8.747332875E0,9.255724887E0,2.164546615E1,2.511394991E1
2.176900458E0,7.915398633E0,7.404912733E0,1.961528597E1,2.241083916E1
2.186903458E0,6.452393702E0,5.310134277E0,1.867219792E1,2.045682980E1
2.196905458E0,4.550393853E0,3.577887869E0,1.784751364E1,1.876275856E1
2.206908458E0,3.007703359E0,2.445754360E0,1.561743354E1,1.609137111E1
2.216910458E0,8.483579010E-1,3.286083156E0,1.233652107E1,1.279483512E1
2.226913458E0,-5.276417769E-1,4.410704455E0,8.454270426E0,9.550256964E0
2.236915458E0,-6.142229609E-1,4.993250856E0,6.517501279E0,8.233325384E0
2.246918458E0,-3.681548770E-1,5.140723482E0,7.001175941E0,8.693620678E0
2.256921458E0,1.159305520E-1,4.492431866E0,8.349761971E0,9.482294497E0
2.266923458E0,9.979034380E-1,3.356221678E0,9.728218503E0,1.033916198E1
2.276926458E0,1.503064498E0,2.329535101E0,1.045050868E1,1.081198725E1
2.286928458E0,1.421962740E0,1.304307405E0,9.544842219E0,9.737926310E0
2.296931458E0,3.162924861E-1,2.044473106E-1,7.078046361E0,7.088058968E0
2.306934458E0,-1.005793963E0,-5.026895151E-1,3.701890356E0,3.868890080E0
2.316936458E0,-1.926063042E0,-1.399153921E0,2.615915644E-1,2.394948994E0
2.326939458E0,-2.150106565E0,-2.446212197E0,-2.826947504E0,4.312602989E0
2.336941458E0,-1.851387812E0,-3.442930039E0,-5.302660950E0,6.587838586E0
2.346944458E0,-1.164835232E0,-4.506171945E0,-6.460616056E0,7.962536439E0
2.356947458E0,-4.062138920E-1,-5.673822320E0,-6.985626440E0,9.008676162E0
2.366949458E0,3.264347009E-2,-6.783488195E0,-7.217074438E0,9.904692884E0
2.376952458E0,3.374923339E-1,-7.674627249E0,-7.198241726E0,1.052751103E1
2.386954458E0,7.368675052E-1,-8.194779181E0,-7.552403485E0,1.116853518E1
2.396957458E0,9.798230432E-1,-8.313156062E0,-8.820573928E0,1.216022785E1
2.406959458E0,1.298030566E0,-8.175564061E0,-1.043999071E1,1.332359325E1
2.416962458E0,1.203473779E0,-7.914159023E0,-1.190166832E1,1.434335982E1
2.426965458E0,8.288014497E-1,-7.656603207E0,-1.295439401E1,1.507072688E1
2.436967458E0,2.404162018E-1,-7.613351938E0,-1.338521101E1,1.540080522E1
2.446970458E0,-6.896744084E-1,-7.835700499E0,-1.329374887E1,1.544660519E1
2.456972458E0,-1.971362591E0,-8.386708188E0,-1.282036998E1,1.544619795E1
2.466975458E0,-3.216492227E0,-8.816018363E0,-1.254607943E1,1.566754962E1
2.476978458E0,-3.776490010E0,-9.003588270E0,-1.203179694E1,1.549485773E1
2.486980458E0,-3.646553476E0,-9.122972626E0,-1.174467526E1,1.531219706E1
2.496983458E0,-3.244582543E0,-8.997804204E0,-1.182573755E1,1.520972929E1
2.506985458E0,-2.726514851E0,-8.622316480E0,-1.204435793E1,1.506136722E1
2.516988458E0,-2.045446082E0,-8.100760632E0,-1.208342551E1,1.469065501E1
2.526990458E0,-1.469440961E0,-7.586607358E0,-1.190571927E1,1.419373169E1
2.536993458E0,-8.315025710E-1,-7.061621532E0,-1.162472782E1,1.362689224E1
2.546996458E0,-5.710733965E-1,-6.605215945E0,-1.096834395E1,1.281637903E1
2.556998458E0,-7.919470342E-1,-6.369527546E0,-1.016527916E1,1.202210305E1
2.567001458E0,-1.361691980E0,-6.359449870E0,-9.721895324E0,1.169666860E1
2.577003458E0,-1.913362305E0,-6.392357415E0,-9.707546257E0,1.177962830E1
2.587006458E0,-2.162103736E0,-6.226611655E0,-9.706266301E0,1.173273160E1
2.597009458E0,-2.227186316E0,-6.053392569E0,-9.681981061E0,1.163377315E1
2.607011458E0,-2.199193940E0,-6.018564799E0,-9.600525838E0,1.154251587E1
2.617014458E0,-2.184267753E0,-5.869345025E0,-9.739175016E0,1.157893633E1
2.627016458E0,-2.154241277E0,-5.525394258E0,-9.770564623E0,1.142955250E1
2.637019458E0,-2.039987999E0,-5.053311117E0,-9.629019905E0,1.106415512E1
2.647022458E0,-1.982889792E0,-4.465987540E0,-9.593059528E0,1.076585750E1
2.657024458E0,-2.192786707E0,-3.992814185E0,-9.754674230E0,1.076589745E1
2.667027458E0,-2.616913179E0,-3.966348225E0,-1.037635780E1,1.141266639E1
2.677029458E0,-2.369267516E0,-4.080482659E0,-1.038265642E1,1.140453075E1
2.687032458E0,-1.443706488E0,-3.859709922E0,-9.780111957E0,1.061283369E1
2.697034458E0,-1.495950191E-1,-3.400415226E0,-8.724003069E0,9.364477130E0
2.707037458E0,1.392576388E0,-2.899713764E0,-7.076077604E0,7.772932726E0
2.717040458E0,3.268101799E0,-1.704288531E0,-5.200396072E0,6.374104492E0
2.727042458E0,4.838763911E0,-9.034912974E-2,-3.463118135E0,5.951049182E0
2.737045458E0,5.535359083E0,1.178057541E0,-2.378980034E0,6.139019934E0
2.747047458E0,4.883482246E0,1.125548667E0,-1.526695728E0,5.238898596E0
2.757050458E0,3.434331708E0,8.630715421E-1,-3.630460185E-1,3.559681050E0
2.767053458E0,2.257496235E0,2.085875193E0,1.145551992E0,3.280160658E0
2.777055458E0,2.449567329E0,3.896359978E0,4.236579051E0,6.255445886E0
2.787058458E0,4.105117856E0,5.889020321E0,8.708445967E0,1.128581340E1
2.797060458E0,5.402367087E0,7.655173563E0,1.319245989E1,1.618110782E1
2.807063458E0,6.489048727E0,7.769456808E0,1.621129781E1,1.911225756E1
2.817065458E0,8.102152269E0,6.691186388E0,1.900986760E1,2.172077146E1
2.827068458E0,9.469934124E0,6.010685091E0,2.372606452E1,2.624374450E1
2.837071458E0,1.018917673E1,5.044497024E0,2.905091799E1,3.119650796E1
2.847073458E0,1.231533778E1,3.990353677E0,3.412689993E1,3.649980502E1
2.857076458E0,1.532730522E1,3.376915559E0,3.755940029E1,4.070673647E1
2.867078458E0,1.666164334E1,3.399743088E0,3.769867395E1,4.135648232E1
2.877081458E0,1.505084302E1,3.825381796E0,3.405225672E1,3.742616209E1
2.887084458E0,1.145521703E1,4.320751474E0,2.784365975E1,3.041644751E1
2.897086458E0,8.207656505E0,3.789347160E0,2.210495205E1,2.388207868E1
2.907089458E0,5.919150438E0,3.413620870E0,1.722593006E1,1.853164363E1
2.917091458E0,4.609930787E0,3.743040136E0,1.442199836E1,1.559666144E1
2.927094458E0,3.649403409E0,3.582411567E0,1.354308467E1,1.447642774E1
2.937097458E0,1.982650641E0,3.245264621E0,1.185132380E1,1.244654658E1
2.947099458E0,4.657324809E-1,2.986594033E0,9.441412575E0,9.913471747E0
2.957102458E0,-2.614111778E-1,3.096237805E0,8.068133168E0,8.645796503E0
2.967104458E0,1.897595434E-1,3.384932676E0,8.144891907E0,8.822303672E0
2.977107458E0,7.544311523E-1,3.404321751E0,8.119971074E0,8.836996276E0
2.987109458E0,9.093844137E-1,2.751520177E0,7.753018531E0,8.276903988E0
2.997112458E0,7.506287080E-1,1.582160661E0,7.380603518E0,7.585511460E0
3.007115458E0,4.103653421E-1,4.492667216E-1,6.351277801E0,6.380358141E0
3.017117458E0,-4.569452852E-3,-5.957491216E-1,4.155385784E0,4.197876714E0
3.027121083E0,-5.743762328E-1,-1.756501535E0,1.169692222E0,2.187095241E0
3.037123083E0,-1.220538659E0,-2.889569430E0,-1.677052785E0,3.556941404E0
3.047126083E0,-1.479034927E0,-3.453188394E0,-4.051637467E0,5.525198690E0
3.057129083E0,-1.554224565E0,-3.601250711E0,-6.354677957E0,7.467700625E0
3.067131083E0,-1.226725671E0,-3.749127965E0,-8.127242087E0,9.033984741E0
3.077134083E0,-6.040770916E-1,-4.586025615E0,-8.654624686E0,9.813208880E0
3.087136083E0,-4.810667308E-1,-5.865368918E0,-8.544172536E0,1.037481865E1
3.097139083E0,-7.347475241E-1,-6.983351873E0,-7.993625023E0,1.063978845E1
3.107141083E0,-1.261071631E0,-7.584095394E0,-7.378672183E0,1.065615352E1
3.117144083E0,-1.710044822E0,-7.713211856E0,-7.098529742E0,1.062106468E1
3.127147083E0,-1.768392287E0,-7.553525566E0,-7.238441918E0,1.061027809E1
3.137149083E0,-1.750930016E0,-7.363310963E0,-7.695002457E0,1.079338534E1
3.147152083E0,-1.921407635E0,-7.162998219E0,-8.387824422E0,1.119624711E1
3.157154083E0,-2.251048072E0,-6.854101510E0,-9.192132908E0,1.168508589E1
3.167157083E0,-2.484472575E0,-6.558731166E0,-9.905103793E0,1.213674749E1
3.177159083E0,-2.555059578E0,-6.434466723E0,-1.043192857E1,1.252021666E1
3.187162083E0,-2.725595669E0,-6.437568086E0,-1.076938776E1,1.283942628E1
3.197165083E0,-2.839880668E0,-6.564663166E0,-1.081716886E1,1.296807106E1
3.207167083E0,-2.881254397E0,-6.562287442E0,-1.030748812E1,1.255426441E1
3.217170083E0,-2.783285468E0,-6.297779871E0,-9.544132951E0,1.176856759E1
3.227172083E0,-2.694261317E0,-6.080618960E0,-9.035446824E0,1.121928118E1
3.237175083E0,-2.492570677E0,-6.077359722E0,-8.850945536E0,1.102208903E1
3.247178083E0,-2.259801207E0,-6.014627284E0,-8.763640174E0,1.086663849E1
3.257180083E0,-2.112206813E0,-5.779021330E0,-8.838504415E0,1.076929271E1
3.267183083E0,-2.034913785E0,-5.555141968E0,-9.067642179E0,1.082693914E1
3.277185083E0,-1.894674896E0,-5.497460355E0,-9.222816172E0,1.090285290E1
3.287188083E0,-1.676587054E0,-5.524402571E0,-9.361024470E0,1.099812471E1
3.297190083E0,-1.519021550E0,-5.508719169E0,-9.564429222E0,1.114144154E1
3.307193083E0,-1.563785786E0,-5.656990525E0,-9.747235402E0,1.137785418E1
3.317196083E0,-1.731838126E0,-5.925509870E0,-9.839855883E0,1.161609635E1
3.327198083E0,-1.938478727E0,-5.917888024E0,-9.896818289E0,1.169299409E1
3.337201083E0,-1.981580746E0,-5.670429765E0,-1.002069389E1,1.168309642E1
3.347203083E0,-2.182081625E0,-5.333849999E0,-1.070017076E1,1.215339830E1
3.357206083E0,-2.165154374E0,-4.986018435E0,-1.128683827E1,1.252760917E1
3.367208083E0,-1.685926520E0,-4.642001011E0,-1.153216405E1,1.254517156E1
3.377211083E0,-1.122300320E0,-4.336207127E0,-1.143771632E1,1.228346876E1
3.387214083E0,-5.574798261E-1,-4.128345920E0,-1.068903532E1,1.147211837E1
3.397216083E0,-2.639833680E-1,-4.312598117E0,-9.959323854E0,1.085616513E1
3.407219083E0,-6.902702397E-1,-4.876253334E0,-9.658755335E0,1.084185751E1
3.417221083E0,-1.593758321E0,-4.297263209E0,-9.633016477E0,1.066778061E1
3.427224083E0,-1.844305665E0,-3.293108294E0,-9.877495580E0,1.057406944E1
3.437227083E0,-9.683466399E-1,-2.743021541E0,-1.091347134E1,1.129449950E1
3.447229083E0,4.867208422E-1,-2.426351252E0,-1.117547454E1,1.144619189E1
3.457232083E0,1.547272372E0,-2.139119939E0,-9.803840543E0,1.015308698E1
3.467234083E0,1.440520341E0,-2.453118051E0,-8.369011590E0,8.839300991E0
3.477237083E0,-6.561926669E-1,-2.214522708E0,-5.995232654E0,6.424757911E0
3.487239083E0,-2.057455679E0,-9.988918367E-1,-1.724946159E0,2.864672411E0
3.497242083E0,-1.550396978E0,8.079977873E-1,2.368159761E0,2.943598456E0
3.507245083E0,5.228287876E-2,3.150088615E0,3.024686304E0,4.367438496E0
3.517247083E0,1.160714553E0,5.341382382E0,2.122598923E0,5.863706184E0
3.527250083E0,-2.135739371E-2,5.687901830E0,4.583337650E0,7.304770180E0
3.537252083E0,-7.820310335E-1,4.451613915E0,1.120623791E1,1.208338558E1
3.547255083E0,1.310186196E0,2.861832578E0,1.939596276E1,1.964968308E1
3.557257083E0,4.993401715E0,1.729443107E0,2.711637371E1,2.762648652E1
3.567260083E0,7.549246573E0,1.271964994E0,3.392388227E1,3.477698674E1
3.577263083E0,9.448402922E0,9.171778750E-1,3.749091770E1,3.867405388E1
3.587265083E0,1.121884685E1,1.629882419E0,3.887457709E1,4.049384873E1
3.597268083E0,1.235173436E1,2.500913776E0,3.927915296E1,4.125132444E1
3.607270083E0,1.174758016E1,2.657370064E0,3.823898475E1,4.009098664E1
3.617273083E0,9.590224214E0,2.483295238E0,3.570841506E1,3.705711891E1
3.627276083E0,6.926700540E0,2.304106438E0,3.083918833E1,3.169138090E1
3.637278083E0,5.162347655E0,2.280556484E0,2.541894806E1,2.603792794E1
3.647281083E0,5.128208102E0,3.102886966E0,2.061921197E1,2.147273453E1
3.657283083E0,5.691551077E0,4.732806516E0,1.554696640E1,1.721921530E1
3.667286083E0,5.616105623E0,5.910283136E0,1.147573842E1,1.407709705E1
3.677288083E0,4.486382044E0,5.818383032E0,9.605292488E0,1.209309095E1
3.687291083E0,2.366197143E0,4.661245367E0,7.891451361E0,9.465785856E0
3.697294083E0,7.669222668E-1,3.395235762E0,7.823811940E0,8.563166991E0
3.707296083E0,7.130271645E-1,2.279511587E0,9.812645280E0,1.009913799E1
3.717299083E0,1.071456075E0,1.572418761E0,1.137587149E1,1.153390528E1
3.727301083E0,1.788878446E0,1.177293895E0,1.215379091E1,1.234101861E1
3.737304083E0,1.759348983E0,5.679078966E-1,1.126002645E1,1.141078542E1
3.747306083E0,6.101243551E-1,-4.207288009E-1,8.277765205E0,8.310876081E0
3.757309083E0,-1.146403639E-1,-1.126345643E0,5.719696650E0,5.830671204E0
3.767312083E0,-4.898585312E-1,-2.116943204E0,4.065926308E0,4.610115688E0
3.777314083E0,-9.112429512E-1,-3.497326686E0,2.228374470E0,4.245858034E0
3.787317083E0,-1.423199134E0,-4.263894027E0,-2.122241074E-1,4.500147455E0
3.797319083E0,-2.202107023E0,-4.926011385E0,-3.382513683E0,6.368379882E0
3.807322083E0,-3.344792710E0,-5.990816837E0,-6.108065790E0,9.186184863E0
3.817324083E0,-4.019117008E0,-7.157158020E0,-7.627929631E0,1.120551306E1
3.827327083E0,-3.831407352E0,-8.069101467E0,-8.456054996E0,1.230020109E1
3.837330083E0,-3.302043424E0,-8.771840310E0,-9.193766035E0,1.312912819E1
3.847332083E0,-2.905788437E0,-9.035777777E0,-9.864320633E0,1.368918215E1
3.857335083E0,-3.049379096E0,-9.084195646E0,-1.084861285E1,1.447458891E1
3.867337083E0,-3.549069282E0,-9.175915655E0,-1.195953237E1,1.548624342E1
3.877340083E0,-4.024950190E0,-8.976992794E0,-1.298481824E1,1.629086027E1
3.887342083E0,-4.437532066E0,-8.804696399E0,-1.354236429E1,1.675141785E1
3.897345083E0,-4.432377160E0,-8.770341083E0,-1.383699379E1,1.697136551E1
3.907348083E0,-3.876435883E0,-8.592322018E0,-1.356885685E1,1.652176229E1
3.917350083E0,-3.584561296E0,-8.455639844E0,-1.251463428E1,1.552298283E1
3.927353083E0,-3.502048312E0,-8.600007598E0,-1.112998788E1,1.449486472E1
3.937355083E0,-3.472916607E0,-8.843456422E0,-9.753391351E0,1.361603885E1
3.947358083E0,-3.372229600E0,-8.889982132E0,-8.440724182E0,1.271414722E1
3.957361083E0,-3.159210271E0,-8.843290361E0,-7.253333023E0,1.186571675E1
3.967363083E0,-3.296389459E0,-8.764511994E0,-6.885864170E0,1.162316563E1
3.977366083E0,-3.549108751E0,-8.447715697E0,-7.194672001E0,1.165003771E1
3.987368083E0,-3.454291763E0,-7.966264731E0,-7.965442028E0,1.178311385E1
3.997371083E0,-3.106619537E0,-7.442783394E0,-8.886251609E0,1.200048238E1
4.007373083E0,-2.710901031E0,-6.987246119E0,-9.531977175E0,1.212555902E1
4.017376083E0,-2.298751704E0,-6.577850976E0,-9.844484539E0,1.206093938E1
4.027378250E0,-1.768845446E0,-6.196238294E0,-9.724891437E0,1.166600603E1
4.037381250E0,-1.151392191E0,-5.925895202E0,-9.539700762E0,1.128927936E1
4.047384250E0,-8.371101969E-1,-5.882028220E0,-9.465777923E0,1.117586512E1
4.057386250E0,-1.004377256E0,-5.985342089E0,-9.426925514E0,1.121160195E1
4.067389250E0,-1.343783712E0,-6.218964082E0,-9.516006675E0,1.144708050E1
4.077391250E0,-1.541676294E0,-6.438707709E0,-9.568250377E0,1.163551194E1
4.087394250E0,-1.686645289E0,-6.330070535E0,-9.747193887E0,1.174403483E1
4.097397250E0,-1.720346593E0,-5.830536470E0,-9.858473418E0,1.158206571E1
4.107399250E0,-1.467325731E0,-5.328736609E0,-9.807151821E0,1.125738449E1
4.117402250E0,-1.163823518E0,-4.915993350E0,-9.732383475E0,1.096543496E1
4.127404250E0,-8.447335044E-1,-4.643010825E0,-9.635973998E0,1.072954422E1
4.137407250E0,-4.086066458E-1,-4.386149950E0,-9.437135922E0,1.041464379E1
4.147409250E0,-2.355721857E-1,-4.196997202E0,-9.224626470E0,1.013725867E1
4.157412250E0,-4.439612505E-1,-4.371105357E0,-9.049767240E0,1.005991803E1
4.167414250E0,-1.097197419E0,-4.786288366E0,-8.975656705E0,1.023107090E1
4.177417250E0,-2.060994706E0,-5.013015615E0,-9.513312278E0,1.094902440E1
4.187420250E0,-2.121690558E0,-4.801477093E0,-1.022293505E1,1.149191690E1
4.197422250E0,-1.560210360E0,-4.189817406E0,-1.041828818E1,1.133708759E1
4.207425250E0,-1.266503110E0,-3.578904407E0,-1.016024471E1,1.084634314E1
4.217427250E0,-1.544264710E0,-3.467519042E0,-9.737500958E0,1.045118973E1
4.227430250E0,-2.634967919E0,-3.450598662E0,-9.698307071E0,1.062576337E1
4.237432250E0,-3.067139429E0,-3.191210328E0,-8.730489970E0,9.788392245E0
4.247435250E0,-2.136992137E0,-2.150506953E0,-5.396692949E0,6.189968524E0
4.257438250E0,3.995756212E-1,-4.931512445E-1,-6.435468936E-1,9.038868465E-1
4.267440250E0,4.143661532E0,1.023713560E0,5.905919359E0,7.286823987E0
4.277443250E0,8.557151601E0,2.520729405E0,1.298874991E1,1.575711092E1
4.287445250E0,1.203536725E1,2.931389593E0,1.906403270E1,2.273500501E1
4.297448250E0,1.310758872E1,1.718479723E0,2.464811196E1,2.796947403E1
4.307450250E0,1.159162088E1,2.295991087E-1,2.909090125E1,3.131611288E1
4.317453250E0,9.542639573E0,-4.645399778E-1,3.168553771E1,3.309457761E1
4.327456250E0,9.959895712E0,-1.549029387E-1,3.498466308E1,3.637513118E1
4.337458250E0,1.242629571E1,1.258090282E0,3.845829743E1,4.043558158E1
4.347461250E0,1.444380263E1,3.178963335E0,3.815080406E1,4.091714912E1
4.357463250E0,1.438690337E1,4.460250252E0,3.457608772E1,3.771448877E1
4.367466250E0,1.352042904E1,4.941753843E0,3.059623886E1,3.381349974E1
4.377468250E0,1.305792481E1,4.950931633E0,2.762275428E1,3.095218374E1
4.387471250E0,1.300665876E1,5.149062197E0,2.525909688E1,2.887400195E1
4.397474250E0,1.241999125E1,5.247179060E0,2.225143415E1,2.601759775E1
4.407476250E0,1.095021290E1,4.863263159E0,1.879593319E1,2.229003355E1
4.417479250E0,8.934328585E0,4.543589448E0,1.528041874E1,1.827450763E1
4.427481250E0,7.460299898E0,3.687443640E0,1.347390977E1,1.583665241E1
4.437484250E0,6.581565712E0,3.127545260E0,1.277625508E1,1.470820317E1
4.447486250E0,5.469087911E0,2.624773591E0,1.157270163E1,1.306628417E1
4.457489250E0,3.996061437E0,1.765127640E0,1.005489542E1,1.096289672E1
4.467492250E0,2.467839293E0,1.012613205E0,8.492093725E0,8.901194983E0
4.477494250E0,1.061673099E0,3.711673625E-1,7.015774684E0,7.105350758E0
4.487497250E0,1.226017866E-1,-1.339000690E-1,5.875855899E0,5.878659964E0
4.497499250E0,-5.058201143E-1,-6.891961062E-1,5.075537553E0,5.147030864E0
4.507502250E0,-1.043818041E0,-1.382592560E0,4.431857343E0,4.758411268E0
4.517504250E0,-1.467923901E0,-1.948346050E0,3.596290226E0,4.345590443E0
4.527507250E0,-1.913314211E0,-2.581251011E0,2.540999948E0,4.096377520E0
4.537510250E0,-2.212305737E0,-3.465666644E0,6.777694774E-1,4.167074924E0
4.547512250E0,-2.214752796E0,-4.318566662E0,-2.031346691E0,5.261322775E0
4.557515250E0,-2.156747832E0,-4.864969085E0,-4.776916741E0,7.151113127E0
4.567517250E0,-2.138875818E0,-5.316155155E0,-6.999809446E0,9.046194099E0
4.577520250E0,-2.128708094E0,-5.686982063E0,-8.707040881E0,1.061535322E1
4.587522250E0,-2.094628329E0,-5.941547028E0,-9.840616021E0,1.168448427E1
4.597525250E0,-1.936976724E0,-6.185125076E0,-1.026312413E1,1.213834288E1
4.607528250E0,-1.785557519E0,-6.520355304E0,-1.018340085E1,1.222312979E1
4.617530250E0,-1.795998746E0,-6.962867907E0,-9.925398309E0,1.225645432E1
4.627533250E0,-1.999617653E0,-7.465074735E0,-9.595921156E0,1.232101921E1
4.637535250E0,-2.455223633E0,-7.799888057E0,-9.425689997E0,1.247838165E1
4.647538250E0,-3.066893846E0,-7.769117085E0,-9.680309342E0,1.278567195E1
4.657540250E0,-3.483159759E0,-7.480247090E0,-1.021068513E1,1.312800782E1
4.667543250E0,-3.759988291E0,-7.185698279E0,-1.099452193E1,1.366203807E1
4.677545250E0,-4.029342911E0,-6.882397356E0,-1.186781645E1,1.429853367E1
4.687548250E0,-4.206003960E0,-6.617375230E0,-1.250778368E1,1.476227546E1
4.697551250E0,-4.244454081E0,-6.422151318E0,-1.299125486E1,1.510073246E1
4.707553250E0,-4.223819549E0,-6.265293911E0,-1.341153986E1,1.539363377E1
4.717556250E0,-4.178308039E0,-6.193893560E0,-1.353275615E1,1.545826848E1
4.727558250E0,-4.057923809E0,-6.256575712E0,-1.321927405E1,1.517763788E1
4.737561250E0,-3.928826643E0,-6.346519922E0,-1.233184798E1,1.441486970E1
4.747563250E0,-3.678849987E0,-6.524203942E0,-1.108267923E1,1.337628324E1
4.757566250E0,-3.438010776E0,-6.575683998E0,-9.917186480E0,1.238588414E1
4.767569250E0,-3.204751603E0,-6.474700829E0,-8.858494291E0,1.143088381E1
4.777571250E0,-2.902843486E0,-6.379215798E0,-8.059678679E0,1.068079187E1
4.787574250E0,-2.775313374E0,-6.277286550E0,-7.776981590E0,1.037246998E1
4.797576250E0,-2.813633687E0,-6.120810381E0,-8.125341157E0,1.055471568E1
4.807579250E0,-2.741536641E0,-5.979768523E0,-8.822575430E0,1.100506665E1
4.817581250E0,-2.277279705E0,-5.833229113E0,-9.425699937E0,1.131620007E1
4.827584250E0,-1.809828727E0,-5.616747648E0,-9.723954129E0,1.137447221E1
4.837587250E0,-1.336952995E0,-5.238052726E0,-9.740792356E0,1.114036244E1
4.847589250E0,-8.383910295E-1,-4.855526124E0,-9.608048866E0,1.079785333E1
4.857592250E0,-5.863092305E-1,-4.537766206E0,-9.326446960E0,1.038834412E1
4.867594250E0,-6.203198527E-1,-4.186905200E0,-9.161183596E0,1.009169246E1
4.877597250E0,-8.011267242E-1,-3.882793853E0,-9.179528650E0,9.999081876E0
4.887599250E0,-8.669222260E-1,-3.791137870E0,-9.516988422E0,1.028092161E1
4.897602250E0,-9.121353824E-1,-3.798141373E0,-9.973544283E0,1.071118361E1
4.907605250E0,-7.876312043E-1,-3.632349713E0,-1.034633001E1,1.099367418E1
4.917607250E0,-5.541552454E-1,-3.305823941E0,-1.065216044E1,1.116709819E1
4.927610250E0,-6.570112771E-1,-3.173246512E0,-1.105407465E1,1.151927618E1
4.937612250E0,-7.526857585E-1,-3.146073332E0,-1.098887586E1,1.145511702E1
4.947615250E0,-4.037205662E-1,-3.014125941E0,-9.884547322E0,1.034177070E1
4.957617250E0,-4.190158591E-1,-2.803801886E0,-8.141906319E0,8.621340836E0
4.967620250E0,-8.776381257E-1,-2.904047720E0,-6.877786242E0,7.517159399E0
4.977622250E0,-1.299348236E0,-2.532934299E0,-6.386360511E0,6.992114313E0
4.987625250E0,-8.796343651E-1,-1.889366940E0,-5.226479332E0,5.626681993E0
4.997628250E0,-8.565191522E-2,-1.055678095E0,-2.005319565E0,2.267840172E0
5.007630250E0,2.122201605E-1,4.877332876E-1,3.451033110E0,3.491783310E0
5.017633250E0,1.857005525E0,2.368748284E0,1.122372577E1,1.162030370E1
5.027634708E0,5.966690056E0,3.670004904E0,1.638867426E1,1.782298994E1
5.037637708E0,9.372125409E0,4.243011573E0,1.910316929E1,2.169725694E1
5.047639708E0,1.092032076E1,3.850959564E0,2.229344991E1,2.512132966E1
5.057642708E0,1.187640601E1,2.382187670E0,2.656194072E1,2.919350155E1
5.067645708E0,1.243278028E1,1.490264504E0,3.042222572E1,3.289843053E1
5.077647708E0,1.431365063E1,2.679130185E0,3.490474334E1,3.782062189E1
5.087650708E0,1.619493028E1,3.972260053E0,3.883953589E1,4.226776745E1
5.097652708E0,1.643057073E1,4.410528747E0,3.831671529E1,4.192358631E1
5.107655708E0,1.507489963E1,3.976116876E0,3.428770304E1,3.766574948E1
5.117657708E0,1.328992947E1,3.276694282E0,3.079470739E1,3.369974709E1
5.127660708E0,1.253284017E1,2.971918399E0,2.854505899E1,3.131652558E1
5.137662708E0,1.182503354E1,3.268652314E0,2.563015416E1,2.841514224E1
5.147665708E0,1.058832989E1,3.524168914E0,2.185031984E1,2.453505601E1
5.157668708E0,9.446441181E0,3.519231817E0,1.841732831E1,2.099567160E1
5.167670708E0,8.057219340E0,3.530660493E0,1.562577400E1,1.793179189E1
5.177673708E0,6.362077024E0,3.238644696E0,1.321325727E1,1.501848897E1
5.187675708E0,4.744779567E0,2.723997332E0,1.088142509E1,1.217942965E1
5.197678708E0,3.411581946E0,2.182989844E0,9.312395516E0,1.015505028E1
5.207680708E0,2.215973403E0,1.501699027E0,8.686122467E0,9.089244281E0
5.217683708E0,1.254396450E0,9.735176982E-1,8.090637932E0,8.244978430E0
5.227686708E0,8.221315308E-1,5.839795536E-1,7.044410838E0,7.116224872E0
5.237688708E0,6.657109107E-1,2.742882085E-1,5.469097266E0,5.516287696E0
5.247691708E0,4.451412186E-1,-2.843117979E-1,3.640584639E0,3.678700914E0
5.257693708E0,-1.501509431E-1,-1.291277178E0,1.398758065E0,1.909572250E0
5.267696708E0,-1.022802856E0,-2.606497826E0,-1.113654846E0,3.013334319E0
5.277698708E0,-1.555073142E0,-3.533492592E0,-3.603465344E0,5.280983323E0
5.287701708E0,-1.465707660E0,-4.117869756E0,-5.667246541E0,7.157012898E0
5.297703708E0,-1.276650368E0,-4.692141762E0,-7.713246354E0,9.118124796E0
5.307706708E0,-8.032685593E-1,-5.475121068E0,-8.985374778E0,1.055268454E1
5.317709708E0,-7.909886024E-1,-6.459663545E0,-9.252767950E0,1.131223368E1
5.327711708E0,-1.064433935E0,-7.288294694E0,-9.163564582E0,1.175683525E1
5.337714708E0,-1.169958636E0,-7.708244061E0,-9.059168394E0,1.195216975E1
5.347716708E0,-1.437415761E0,-8.008534838E0,-9.261259861E0,1.232776251E1
5.357719708E0,-2.129286384E0,-8.594911165E0,-9.870923309E0,1.326052357E1
5.367721708E0,-3.241982287E0,-9.062652749E0,-1.114049767E1,1.472252738E1
5.377724708E0,-4.222382596E0,-9.119169012E0,-1.277435941E1,1.625336939E1
5.387726708E0,-4.697994240E0,-8.892881767E0,-1.395638458E1,1.720276625E1
5.397729708E0,-4.773159905E0,-8.674109362E0,-1.479415142E1,1.780140851E1
5.407732708E0,-4.681631392E0,-8.487651011E0,-1.543699782E1,1.822796735E1
5.417734708E0,-4.395477721E0,-8.351016784E0,-1.557493597E1,1.821094002E1
5.427737708E0,-4.251776842E0,-8.395857326E0,-1.567640621E1,1.828435775E1
5.437739708E0,-4.544610372E0,-8.694579880E0,-1.562954780E1,1.845350826E1
5.447742708E0,-4.650335047E0,-9.000800318E0,-1.506016816E1,1.815072140E1
5.457744708E0,-4.633975707E0,-9.328701646E0,-1.389043033E1,1.736209837E1
5.467747708E0,-4.931339368E0,-9.345905324E0,-1.276398879E1,1.657056016E1
5.477749708E0,-4.753352462E0,-8.971412212E0,-1.225896594E1,1.591737550E1
5.487752708E0,-3.888800990E0,-8.578738936E0,-1.213597327E1,1.536227138E1
5.497755708E0,-2.409104743E0,-8.238637977E0,-1.226732746E1,1.497218302E1
5.507757708E0,-8.580841595E-1,-7.736301341E0,-1.222778859E1,1.449501572E1
5.517760708E0,3.955637734E-1,-7.127558829E0,-1.173838599E1,1.373856875E1
5.527762708E0,1.186153888E0,-6.524131436E0,-1.085860223E1,1.272322658E1
5.537765708E0,1.323075360E0,-6.171005219E0,-9.934033477E0,1.176931837E1
5.547767708E0,1.109707683E0,-6.273697529E0,-9.229500124E0,1.121491883E1
5.557770708E0,7.436435511E-1,-6.781598960E0,-8.703974016E0,1.105903494E1
5.567772708E0,2.367910378E-1,-6.774329116E0,-8.365920752E0,1.076736899E1
5.577775708E0,6.586025968E-2,-5.871614329E0,-8.112218251E0,1.001440349E1
5.587778708E0,2.320511386E-2,-5.219017700E0,-8.280979419E0,9.788427063E0
5.597780708E0,4.163276017E-2,-5.144207253E0,-8.944855912E0,1.031867476E1
5.607783708E0,3.629841111E-1,-4.962015030E0,-9.352833105E0,1.059381129E1
5.617785708E0,9.513102655E-1,-4.245286432E0,-9.121566955E0,1.010596021E1
5.627788708E0,1.400270154E0,-3.196742964E0,-8.343993693E0,9.044454258E0
5.637790708E0,1.403495186E0,-2.404918283E0,-7.094184092E0,7.621081197E0
5.647793708E0,1.060294252E0,-1.959701343E0,-5.988422402E0,6.389511415E0
5.657796708E0,7.719618358E-1,-1.797315539E0,-5.398533652E0,5.741988664E0
5.667798708E0,9.159267171E-1,-1.578954341E0,-5.167830005E0,5.480737680E0
5.677801708E0,1.586447547E0,-6.713584439E-1,-5.092245387E0,5.375732607E0
5.687803708E0,1.663693359E0,3.484488831E-1,-5.327233289E0,5.591842875E0
5.697806708E0,6.204329232E-1,6.887509869E-1,-5.655177303E0,5.730649637E0
5.707808708E0,-1.268520545E-1,7.187581667E-1,-3.605894278E0,3.679018658E0
5.717811708E0,-8.470750219E-1,1.261510172E0,1.500168080E0,2.135286462E0
5.727813708E0,-1.391841685E0,1.621012047E0,6.357861766E0,6.707257977E0
5.737816708E0,-3.368502000E-1,2.289750354E0,9.511421288E0,9.788950897E0
5.747818708E0,2.099536628E0,3.849630200E0,1.201472541E1,1.278989184E1
5.757821708E0,4.296592826E0,5.247046913E0,1.538549203E1,1.681385073E1
5.767824708E0,5.734797669E0,5.839786180E0,2.090753818E1,2.245253125E1
5.777826708E0,6.370045609E0,5.330121814E0,2.691221701E1,2.816478482E1
5.787829708E0,6.035221177E0,4.391701882E0,3.017059430E1,3.108014962E1
5.797831708E0,6.067730527E0,4.327824559E0,3.260500068E1,3.344597866E1
5.807834708E0,7.606363930E0,4.450282212E0,3.630156831E1,3.735593187E1
5.817836708E0,9.425918623E0,3.482633218E0,4.084532733E1,4.206325523E1
5.827839708E0,9.976059755E0,1.985495604E0,4.323010254E1,4.441064880E1
5.837842708E0,9.092465948E0,7.689087852E-1,4.185914097E1,4.284217362E1
5.847844708E0,7.372758309E0,4.146894448E-3,3.801096439E1,3.871938786E1
5.857847708E0,5.874760131E0,2.602753744E-1,3.236607643E1,3.289594889E1
5.867849708E0,4.999644202E0,1.305116075E0,2.511057760E1,2.563670957E1
5.877852708E0,4.021935951E0,2.109807993E0,1.843962258E1,1.899070666E1
5.887854708E0,2.776453581E0,2.667761736E0,1.431609242E1,1.482484905E1
5.897857708E0,1.634718505E0,2.924463566E0,1.153857377E1,1.201513531E1
5.907859708E0,1.081882830E0,2.854327092E0,9.733017313E0,1.020045487E1
5.917862708E0,9.458375640E-1,2.787475290E0,9.050587020E0,9.517234504E0
5.927864708E0,1.007955606E0,2.474776137E0,8.928997094E0,9.320272557E0
5.937867708E0,9.065558231E-1,1.649062310E0,8.850995822E0,9.048832908E0
5.947870708E0,1.288866955E0,4.526252161E-1,8.269787849E0,8.381851745E0
5.957872708E0,2.348358750E0,-7.579918143E-1,6.890611525E0,7.319143911E0
5.967875708E0,3.779561260E0,-1.843321871E0,5.086793443E0,6.599877754E0
5.977877708E0,4.597737004E0,-2.571893419E0,2.335460962E0,5.762655570E0
5.987880708E0,4.225658499E0,-3.435416074E0,-1.339662010E0,5.608294540E0
5.997882708E0,2.880847138E0,-4.595676737E0,-5.438816875E0,7.681162276E0
6.007885708E0,1.676491160E0,-6.132967912E0,-8.964966241E0,1.099065684E1
6.017887708E0,4.557819816E-1,-8.144067450E0,-1.114106251E1,1.380785449E1
6.027890958E0,-7.103443889E-1,-9.875975304E0,-1.184080816E1,1.543516165E1
6.037893958E0,-1.528819436E0,-1.081222914E1,-1.178116422E1,1.606354314E1
6.047895958E0,-2.084869472E0,-1.135289310E1,-1.161188733E1,1.637286749E1
6.057898958E0,-2.442705621E0,-1.189522703E1,-1.149072834E1,1.671825573E1
6.067900958E0,-2.652605168E0,-1.217094196E1,-1.166277448E1,1.706424481E1
6.077903958E0,-2.870318934E0,-1.211548580E1,-1.254587010E1,1.767547973E1
6.087905958E0,-3.098674048E0,-1.184834172E1,-1.339339595E1,1.814849959E1
6.097908958E0,-3.266748753E0,-1.155096168E1,-1.417620948E1,1.857582511E1
6.107910958E0,-3.497981574E0,-1.134846559E1,-1.494802792E1,1.909102105E1
6.117913958E0,-3.921075281E0,-1.131331564E1,-1.555702010E1,1.963127139E1
6.127916958E0,-4.340194928E0,-1.120948312E1,-1.580118346E1,1.985364456E1
6.137918958E0,-4.645674524E0,-1.120648116E1,-1.561969290E1,1.977731827E1
6.147921958E0,-4.713331487E0,-1.139689223E1,-1.514972294E1,1.953506466E1
6.157923958E0,-4.594731827E0,-1.143320928E1,-1.471310082E1,1.919127851E1
6.167926958E0,-4.131310166E0,-1.121031225E1,-1.405345070E1,1.844554963E1
6.177928958E0,-3.415053730E0,-1.062339447E1,-1.289580257E1,1.705346962E1
6.187931958E0,-2.582521026E0,-9.996675868E0,-1.159561336E1,1.552614545E1
6.197933958E0,-1.534565349E0,-9.702421757E0,-1.053445365E1,1.440370065E1
6.207936958E0,-3.633972534E-1,-9.527235083E0,-9.862512674E0,1.371748600E1
6.217938958E0,8.130323862E-1,-9.104038757E0,-9.076025916E0,1.288094677E1
6.227941958E0,1.065793047E0,-8.425311506E0,-8.037849854E0,1.169310990E1
6.237944958E0,3.098619376E-1,-7.892081691E0,-7.175082659E0,1.067065036E1
6.247946958E0,-6.652628678E-1,-7.743449562E0,-6.841173901E0,1.035399663E1
6.257949958E0,-1.156006741E0,-7.694230624E0,-7.257067055E0,1.063966911E1
6.267951958E0,-1.404393903E0,-7.406952242E0,-8.066499456E0,1.104099983E1
6.277954958E0,-1.608226379E0,-6.924687343E0,-8.921696261E0,1.140764441E1
6.287956958E0,-1.429833384E0,-6.255130280E0,-9.519242524E0,1.147985438E1
6.297959958E0,-9.383912080E-1,-5.470255015E0,-9.667814426E0,1.114768603E1
6.307961958E0,-4.344813059E-1,-4.970867130E0,-9.262418779E0,1.052096458E1
6.317964958E0,-1.303071012E-1,-4.779205926E0,-8.127083627E0,9.429065569E0
6.327967958E0,-1.466487533E-1,-4.830107108E0,-6.494411793E0,8.094987651E0
6.337969958E0,-3.730042653E-1,-4.817513375E0,-4.851064113E0,6.846925611E0
6.347972958E0,-1.759555829E-1,-4.618931114E0,-3.878965096E0,6.034223663E0
6.357974958E0,4.024625377E-1,-3.968529822E0,-3.426176012E0,5.258315995E0
6.367977958E0,6.675937872E-1,-3.109692541E0,-3.207590134E0,4.517134449E0
6.377979958E0,4.498545130E-1,-2.173419998E0,-3.514016978E0,4.156252987E0
6.387982958E0,-8.158874354E-1,-1.847346801E0,-3.744392597E0,4.254272962E0
6.397984958E0,-1.803585070E0,-1.790727043E0,-2.345231659E0,3.458284833E0
6.407987958E0,-1.554159515E0,-7.057767633E-1,6.548700267E-1,1.828219732E0
6.417989958E0,-1.235696323E0,1.585717815E0,3.462377878E0,4.003686671E0
6.427992958E0,-5.991088586E-1,3.971904542E0,5.155946708E0,6.535957740E0
6.437995958E0,2.301263814E-1,6.180206398E0,5.204792594E0,8.083178534E0
6.447997958E0,1.152666153E0,8.659701823E0,6.932540739E0,1.115254213E1
6.458000958E0,2.127469654E0,9.824931450E0,1.382373231E1,1.709242464E1
6.468002958E0,2.896103693E0,8.389526546E0,2.384005482E1,2.543854921E1
6.478005958E0,5.480357834E0,6.324729688E0,3.525086108E1,3.623064635E1
6.488007958E0,1.012266465E1,4.469987036E0,4.519558561E1,4.653052850E1
6.498010958E0,1.393710280E1,4.354990430E0,4.870300283E1,5.084477615E1
6.508012958E0,1.424340218E1,6.876514472E0,4.351268678E1,4.629810868E1
6.518015958E0,1.206295324E1,9.418577444E0,3.501225960E1,3.821102935E1
6.528017958E0,8.896089549E0,9.777307633E0,2.823971739E1,3.118040719E1
6.538020958E0,5.948869497E0,8.276316265E0,2.390175932E1,2.598423671E1
6.548023958E0,4.473609386E0,6.401101341E0,2.179019409E1,2.314735056E1
6.558025958E0,3.882985057E0,5.042416584E0,2.032670852E1,2.129973279E1
6.568028958E0,3.465939417E0,4.843679665E0,1.756000020E1,1.854258816E1
6.578030958E0,3.959032189E0,5.555836033E0,1.372943777E1,1.533097229E1
6.588033958E0,4.433013922E0,6.443096044E0,9.848265349E0,1.257590670E1
6.598035958E0,4.958565173E0,7.215333722E0,7.036763849E0,1.123229517E1
6.608038958E0,5.131086686E0,7.492298201E0,5.888220422E0,1.082283339E1
6.618040958E0,5.246710698E0,6.867761775E0,6.378740419E0,1.074162252E1
6.628043958E0,5.067818059E0,5.366366365E0,7.652734104E0,1.063226256E1
6.638045958E0,4.747503785E0,3.291271391E0,8.260784891E0,1.008026917E1
6.648048958E0,3.973925925E0,1.069957434E0,7.922554455E0,8.927696526E0
6.658051958E0,2.362157302E0,-1.159796102E0,5.843775151E0,6.408948598E0
6.668053958E0,5.376349609E-1,-3.169092066E0,2.472110977E0,4.055062090E0
6.678056958E0,-9.120583454E-1,-4.597234728E0,-1.096089225E0,4.813297119E0
6.688058958E0,-1.625316183E0,-5.495240167E0,-4.042666669E0,7.013021530E0
6.698061958E0,-1.733601354E0,-6.172040761E0,-6.154924791E0,8.887213286E0
6.708063958E0,-1.435584706E0,-6.610055686E0,-7.500815256E0,1.010029550E1
6.718066958E0,-1.024982259E0,-7.412722859E0,-8.383474678E0,1.123751291E1
6.728068958E0,-9.175724159E-1,-8.834672150E0,-8.502661983E0,1.229587866E1
6.738071958E0,-9.035790787E-1,-1.012992456E1,-7.876105928E0,1.286331494E1
6.748073958E0,-9.000499186E-1,-1.088381309E1,-7.260494108E0,1.311420039E1
6.758076958E0,-1.042911065E0,-1.116166693E1,-7.203828156E0,1.332537475E1
6.768079958E0,-1.409189059E0,-1.137297478E1,-7.699681399E0,1.380635588E1
6.778081958E0,-2.041395570E0,-1.154047412E1,-9.178092574E0,1.488580606E1
6.788084958E0,-3.073241291E0,-1.149507867E1,-1.114825225E1,1.630537255E1
6.798086958E0,-4.001993144E0,-1.122841406E1,-1.276694865E1,1.746677444E1
6.808089958E0,-4.289206915E0,-1.092345487E1,-1.372107274E1,1.805511007E1
6.818091958E0,-4.057638465E0,-1.064824280E1,-1.411937221E1,1.814403969E1
6.828094958E0,-3.505385903E0,-1.038328207E1,-1.380558957E1,1.762653058E1
6.838096958E0,-2.765806094E0,-1.010449151E1,-1.258572239E1,1.637531190E1
6.848099958E0,-2.022542539E0,-9.755665918E0,-1.084739195E1,1.472853041E1
6.858101958E0,-1.368393181E0,-9.362821319E0,-9.589890338E0,1.347222772E1
6.868104958E0,-1.013707439E0,-9.081043997E0,-8.458711971E0,1.245161721E1
6.878107958E0,-9.741309249E-1,-9.074029677E0,-7.739747690E0,1.196622914E1
6.888109958E0,-9.691678814E-1,-9.025365055E0,-7.640894662E0,1.186506519E1
6.898112958E0,-1.014645332E0,-8.712945984E0,-7.917592508E0,1.181664944E1
6.908114958E0,-1.185366414E0,-8.407478083E0,-8.369422064E0,1.192216452E1
6.918117958E0,-1.521605142E0,-8.318571169E0,-8.573885747E0,1.204265026E1
6.928119958E0,-1.867518526E0,-8.292784948E0,-8.358634536E0,1.192160555E1
6.938122958E0,-2.089684069E0,-8.192895209E0,-8.172095493E0,1.175897343E1
6.948124958E0,-2.344821477E0,-8.119965811E0,-8.363784764E0,1.189053944E1
6.958127958E0,-2.316108432E0,-7.888742931E0,-8.788939322E0,1.203503543E1
6.968129958E0,-2.248450592E0,-7.484275821E0,-9.341979504E0,1.217959341E1
6.978132958E0,-1.908566565E0,-7.075288230E0,-1.000211144E1,1.239937753E1
6.988134958E0,-1.256709608E0,-6.657807557E0,-1.025138526E1,1.228806821E1
6.998137958E0,-7.889998913E-1,-6.161980627E0,-9.814463764E0,1.161534438E1
7.008140958E0,-5.505714869E-1,-5.841854925E0,-9.138256663E0,1.085993245E1
7.018142958E0,-2.302352858E-1,-5.852575210E0,-8.215476571E0,1.008958375E1
7.028145958E0,2.732805870E-2,-5.776883004E0,-7.292168475E0,9.303163179E0
7.038147958E0,-4.443883896E-2,-5.230464209E0,-6.648499374E0,8.459448835E0
7.048150958E0,-3.253333048E-1,-4.067330225E0,-6.322893078E0,7.525157393E0
7.058152958E0,-4.867182110E-1,-2.437975809E0,-6.464913760E0,6.926451514E0
7.068155958E0,-2.594999423E-1,-9.673794374E-1,-6.191447085E0,6.271935922E0
7.078157958E0,3.910769856E-1,2.679167899E-1,-3.754645690E0,3.784453048E0
7.088160958E0,1.027982319E0,9.747244173E-1,4.003594404E-1,1.472115152E0
7.098162958E0,1.024896232E0,3.948475626E-1,4.034546641E0,4.181373396E0
7.108165958E0,1.857466724E-1,1.129974425E-2,5.619077178E0,5.622157757E0
7.118168958E0,-1.049807344E0,1.404041609E0,4.961135024E0,5.261776224E0
7.128170958E0,-2.311885573E0,3.228968431E0,3.064633312E0,5.016276445E0
7.138173958E0,-3.405664856E0,4.264750936E0,1.786013310E0,5.742516626E0
7.148175958E0,-4.189295542E0,5.050358273E0,3.616504050E0,7.492357264E0
7.158178958E0,-4.238229135E0,5.636011884E0,7.808835467E0,1.052165042E1
7.168180958E0,-3.501075043E0,5.557817069E0,1.285324420E1,1.443442910E1
7.178183958E0,-2.597523520E0,5.099106510E0,1.757018839E1,1.847862375E1
7.188185958E0,-1.252908772E0,4.933439103E0,2.147247510E1,2.206752793E1
7.198188958E0,3.691489036E-1,4.782363715E0,2.364837841E1,2.412992075E1
7.208190958E0,8.930252199E-1,4.528519711E0,2.426387972E1,2.469900492E1
7.218193958E0,1.391223635E0,4.470931069E0,2.516679273E1,2.559867544E1
7.228195958E0,2.992208237E0,4.599261373E0,2.682004150E1,2.737555737E1
7.238198958E0,4.750991649E0,4.465122445E0,2.887782170E1,2.960469264E1
7.248201958E0,5.912326738E0,4.194248718E0,3.000760433E1,3.087075716E1
7.258203958E0,6.100473180E0,4.547919311E0,2.814990884E1,2.916019051E1
7.268206958E0,6.364526423E0,6.351561976E0,2.444188066E1,2.604333055E1
7.278208958E0,6.467641486E0,7.863102890E0,2.077760603E1,2.313801387E1
7.288211958E0,3.808021998E0,8.583229598E0,1.629779684E1,1.880933395E1
7.298213958E0,2.115058135E-1,8.191328155E0,1.301896832E1,1.538298176E1
7.308216958E0,-2.298171806E0,7.253888508E0,1.371438704E1,1.568390589E1
7.318218958E0,-3.536006310E0,6.832870270E0,1.567028067E1,1.745706599E1
7.328221958E0,-2.130604346E0,7.171824591E0,1.766802634E1,1.918681051E1
7.338223958E0,-1.592003864E-1,7.206874555E0,1.878292196E1,2.011871127E1
7.348226958E0,8.417072779E-1,6.416649088E0,1.781464293E1,1.895371624E1
7.358228958E0,1.009458779E0,4.732955327E0,1.656653487E1,1.725890932E1
7.368231958E0,1.496427470E-1,2.905510401E0,1.451960243E1,1.480821523E1
7.378234958E0,-8.521517207E-1,1.641290922E0,1.112387520E1,1.127655080E1
7.388236958E0,-1.756924143E0,6.801937330E-1,6.803348848E0,7.059391015E0
7.398239958E0,-1.640811889E0,3.567830658E-1,1.759971566E0,2.432500303E0
7.408241958E0,-5.924428135E-1,5.131224096E-2,-2.159803587E0,2.240172531E0
7.418244958E0,3.458639022E-1,-1.051639569E0,-4.429088101E0,4.565346540E0
7.428246958E0,9.221102938E-1,-2.827942700E0,-5.851125686E0,6.563780854E0
7.438249958E0,1.349600084E0,-4.749431904E0,-7.162814031E0,8.699679801E0
7.448251958E0,1.856492724E0,-6.578502941E0,-8.003440744E0,1.052512850E1
7.458254958E0,2.222637620E0,-8.409422282E0,-8.363592975E0,1.206682181E1
7.468256958E0,2.302766840E0,-9.724579196E0,-9.027856554E0,1.346745594E1
7.478259958E0,2.331373466E0,-1.044565081E1,-9.858929501E0,1.455147464E1
7.488261958E0,2.295306817E0,-1.096928652E1,-1.053705098E1,1.538255907E1
7.498264958E0,1.772330241E0,-1.138177367E1,-1.159115077E1,1.634138006E1
7.508267958E0,1.292916152E0,-1.139668758E1,-1.271535867E1,1.712414862E1
7.518269958E0,9.512690426E-1,-1.086751105E1,-1.335559954E1,1.724470204E1
7.528272958E0,6.615194803E-1,-1.012188113E1,-1.392662927E1,1.722907683E1
7.538274958E0,8.188436414E-1,-9.355490080E0,-1.464418320E1,1.739677560E1
7.548277958E0,9.653381744E-1,-8.688197644E0,-1.478599221E1,1.717679312E1
7.558279958E0,6.863558212E-1,-8.328953485E0,-1.405829336E1,1.635475964E1
7.568282958E0,4.016320869E-1,-8.285350798E0,-1.286909600E1,1.531084511E1
7.578284958E0,1.653789930E-1,-8.477159352E0,-1.204461169E1,1.472963855E1
7.588287958E0,-1.258905530E-3,-8.583892087E0,-1.143166094E1,1.429566637E1
7.598289958E0,1.353889163E-1,-8.553636255E0,-1.046930865E1,1.351996475E1
7.608292958E0,4.309228367E-1,-8.421352941E0,-9.849943500E0,1.296635133E1
7.618294958E0,6.631426674E-1,-8.207856479E0,-9.650752836E0,1.268643750E1
7.628297958E0,9.277329764E-1,-8.069134796E0,-9.448687096E0,1.245990821E1
7.638299958E0,9.592959541E-1,-7.838304264E0,-9.325688576E0,1.221997258E1
7.648302958E0,8.482726778E-1,-7.540823075E0,-9.226908638E0,1.194652344E1
7.658305958E0,9.370281489E-1,-7.277901853E0,-9.195003306E0,1.176409635E1
7.668307958E0,1.335429942E0,-6.932678733E0,-9.275552210E0,1.165681244E1
7.678310958E0,1.864624008E0,-6.697641714E0,-9.375802723E0,1.167222789E1
7.688312958E0,2.199979660E0,-6.702044082E0,-9.227193983E0,1.161457766E1
7.698315958E0,2.335940288E0,-6.964575294E0,-8.887995833E0,1.153075869E1
7.708317958E0,2.310687186E0,-7.138413016E0,-8.921564698E0,1.165720946E1
7.718320958E0,2.310273934E0,-7.093121653E0,-9.218565831E0,1.185882357E1
7.728322958E0,2.220540370E0,-6.601702938E0,-1.023394652E1,1.237929492E1
7.738325958E0,1.963481568E0,-5.715236979E0,-1.151961359E1,1.300848534E1
7.748327958E0,2.145554800E0,-5.123628563E0,-1.210401005E1,1.331773383E1
7.758330958E0,2.534448435E0,-5.112904769E0,-1.151214903E1,1.284892211E1
7.768332958E0,2.659213399E0,-5.444736012E0,-1.000093030E1,1.169338159E1
7.778335958E0,2.783069998E0,-5.797725989E0,-8.582109856E0,1.072435149E1
7.788338958E0,3.157042708E0,-5.871649997E0,-7.463198363E0,1.000712357E1
7.798340958E0,3.410686153E0,-5.814550182E0,-7.303609722E0,9.939038627E0
7.808343958E0,3.306890766E0,-5.656195303E0,-8.094621640E0,1.041397961E1
7.818345958E0,3.193018872E0,-5.021380057E0,-7.704788942E0,9.735163061E0
7.828348958E0,2.927046281E0,-4.151204732E0,-5.955877385E0,7.827680121E0
7.838350958E0,2.158364003E0,-3.555660848E0,-3.383045779E0,5.361553691E0
7.848353958E0,8.834286234E-1,-3.002965068E0,-1.216019127E0,3.358116711E0
7.858355958E0,-3.800985458E-1,-2.510271952E0,-1.828526661E0,3.128809666E0
7.868358958E0,-2.207012252E0,-1.276544825E0,-5.841996428E0,6.374118922E0
7.878360958E0,-4.173472391E0,8.432863185E-1,-9.342487042E0,1.026698922E1
7.888363958E0,-6.390319660E0,2.833736706E0,-5.102189162E0,8.654396763E0
7.898365958E0,-6.440470644E0,4.516516255E0,1.022823262E1,1.290330670E1
7.908368958E0,-4.397965127E0,4.804911456E0,2.743158775E1,2.819434833E1
7.918370958E0,-4.005264954E0,2.354929413E0,3.360407465E1,3.392376266E1
7.928373958E0,-5.325720030E0,2.196355556E0,3.482962299E1,3.530283146E1
7.938376958E0,-5.213992018E0,3.641365827E0,3.681209105E1,3.735739961E1
7.948378958E0,-3.067584110E0,5.007613372E0,3.958678199E1,4.001998966E1
7.958381958E0,-1.484249766E0,5.515841662E0,4.132725484E1,4.172013302E1
7.968383958E0,-1.916411189E0,4.684349470E0,3.914986400E1,3.947565849E1
7.978386958E0,-3.943128347E0,3.503466555E0,3.411872787E1,3.452405147E1
7.988388958E0,-4.968141743E0,2.539755368E0,2.956563903E1,3.008753564E1
7.998391958E0,-4.432864818E0,2.036440347E0,2.637428252E1,2.682163601E1
8.008393958E0,-3.797963617E0,2.366095987E0,2.265132757E1,2.308907921E1
8.018396958E0,-3.567253245E0,3.233564635E0,1.938920455E1,1.997805018E1
8.028398458E0,-3.310642047E0,3.986781321E0,1.645365788E1,1.725043865E1
8.038401458E0,-2.980636890E0,4.268939881E0,1.382954444E1,1.477715613E1
8.048403458E0,-2.526962245E0,4.366018864E0,1.169143753E1,1.273331734E1
8.058406458E0,-1.945341750E0,4.552913418E0,9.889344378E0,1.105949851E1
8.068408458E0,-1.522607355E0,4.682965434E0,7.799365316E0,9.223806034E0
8.078411458E0,-1.523723880E0,4.267482755E0,6.513864895E0,7.934959319E0
8.088413458E0,-1.806640240E0,3.226018511E0,6.733069993E0,7.681495683E0
8.098416458E0,-2.083410007E0,2.100039635E0,6.984498512E0,7.585115898E0
8.108419458E0,-2.557909218E0,7.576909751E-1,6.945432095E0,7.440162778E0
8.118421458E0,-2.987208576E0,-8.767078337E-1,6.605241673E0,7.302140046E0
8.128424458E0,-3.044901883E0,-2.313125475E0,4.984056110E0,6.281941758E0
8.138426458E0,-2.990252051E0,-3.201687369E0,1.755987858E0,4.719735448E0
8.148429458E0,-2.763734718E0,-3.293752365E0,-1.878836104E0,4.692233939E0
8.158431458E0,-2.185608958E0,-3.024366462E0,-4.728090736E0,6.023165366E0
8.168434458E0,-1.309679681E0,-2.783846216E0,-6.826910788E0,7.488108675E0
8.178436458E0,-1.077928358E-1,-2.877836114E0,-8.176635271E0,8.668963280E0
8.188439458E0,1.212678759E0,-3.113213149E0,-8.748245040E0,9.364532939E0
8.198441458E0,2.199406340E0,-3.515618531E0,-9.050803367E0,9.955601614E0
8.208444458E0,2.714296217E0,-4.233590539E0,-9.054493545E0,1.035734262E1
8.218446458E0,2.725359149E0,-5.314866428E0,-8.675200453E0,1.053254435E1
8.228449458E0,2.251281083E0,-6.620453789E0,-8.323141353E0,1.087075696E1
8.238451458E0,1.771281981E0,-7.721625999E0,-7.871547439E0,1.116790970E1
8.248454458E0,1.718739340E0,-8.023343496E0,-7.159807393E0,1.088994709E1
8.258456458E0,1.846897881E0,-7.692325602E0,-6.588387074E0,1.029513231E1
8.268459458E0,1.881378912E0,-7.134149811E0,-7.022448111E0,1.018579686E1
8.278462458E0,1.784545366E0,-6.486448470E0,-8.309990380E0,1.069179854E1
8.288464458E0,1.658253402E0,-5.841404690E0,-1.012456149E1,1.180586966E1
8.298467458E0,1.734745215E0,-5.193401048E0,-1.168035589E1,1.290005694E1
8.308469458E0,1.769796057E0,-4.607494252E0,-1.247482877E1,1.341575694E1
8.318472458E0,1.334563677E0,-4.502732321E0,-1.281535424E1,1.364877148E1
8.328474458E0,5.609328993E-1,-5.053440925E0,-1.285555502E1,1.382451466E1
8.338477458E0,-3.219199196E-1,-5.922137781E0,-1.243387721E1,1.377594465E1
8.348479458E0,-1.007738674E0,-6.346048636E0,-1.206681942E1,1.367099124E1
8.358482458E0,-1.012070291E0,-6.328400570E0,-1.180966355E1,1.343655809E1
8.368484458E0,-5.029700352E-1,-6.142358540E0,-1.140426440E1,1.296297781E1
8.378487458E0,2.664007531E-1,-5.840403062E0,-1.098179605E1,1.244110613E1
8.388489458E0,9.850789592E-1,-5.591440898E0,-1.082221852E1,1.222108856E1
8.398492458E0,1.490840163E0,-5.301861051E0,-1.056356810E1,1.191307291E1
8.408494458E0,1.870917512E0,-5.004057096E0,-1.006911351E1,1.139859495E1
8.418497458E0,1.855325327E0,-4.873589635E0,-9.748597219E0,1.105573407E1
8.428499458E0,1.525712811E0,-4.956906903E0,-9.568371999E0,1.088358711E1
8.438502458E0,1.033618304E0,-5.122323464E0,-9.519949452E0,1.085983435E1
8.448504458E0,6.388391541E-1,-5.238262056E0,-9.584208013E0,1.094095737E1
8.458507458E0,4.927312683E-1,-5.393392196E0,-9.654555280E0,1.106986455E1
8.468510458E0,6.592339499E-1,-5.308549097E0,-9.903557789E0,1.125592021E1
8.478512458E0,1.122922683E0,-4.928557262E0,-1.037064624E1,1.153698121E1
8.488515458E0,1.604762342E0,-4.318767514E0,-1.049570532E1,1.146241009E1
8.498517458E0,1.842652511E0,-3.936912757E0,-1.017875582E1,1.106804953E1
8.508520458E0,1.683168388E0,-4.079188378E0,-9.602507460E0,1.056792237E1
8.518522458E0,1.500193223E0,-4.631369896E0,-8.728963262E0,9.994746942E0
8.528525458E0,2.081612719E0,-5.753326326E0,-7.071842465E0,9.351194105E0
8.538527458E0,2.516965553E0,-6.684052784E0,-5.481360632E0,9.003165643E0
8.548530458E0,2.399780042E0,-6.633827541E0,-5.782152514E0,9.121397908E0
8.558532458E0,2.643002871E0,-5.527471189E0,-7.128247046E0,9.399484448E0
8.568535458E0,2.598388323E0,-2.993691091E0,-7.600999110E0,8.572572291E0
8.578537458E0,2.386726718E0,-8.052282536E-1,-5.962267807E0,6.472518394E0
8.588540458E0,2.785945074E0,-4.520473650E-1,-4.702503321E0,5.484466634E0
8.598542458E0,2.345960807E0,1.104258370E-1,-4.542731661E0,5.113916006E0
8.608545458E0,5.732244775E-1,2.313405849E0,-5.275571385E0,5.788962460E0
8.618547458E0,-1.709489922E0,4.424180241E0,-4.217573261E0,6.346940272E0
8.628550458E0,-4.928692333E0,6.233899625E0,1.422943318E-1,7.948192268E0
8.638552458E0,-6.431943650E0,7.071867608E0,7.678027990E0,1.226104907E1
8.648555458E0,-5.934318116E0,6.325697987E0,1.979692973E1,2.161363026E1
8.658558458E0,-4.522144784E0,5.209358100E0,3.004981655E1,3.083145602E1
8.668560458E0,-3.550719951E0,5.423947406E0,3.373589896E1,3.435313226E1
8.678563458E0,-3.302008048E0,7.344639634E0,3.228495450E1,3.327409316E1
8.688565458E0,-2.976440343E0,9.934739821E0,3.084730894E1,3.254404279E1
8.698568458E0,-2.738422998E0,1.073942896E1,3.065550623E1,3.259745937E1
8.708570458E0,-3.507149423E0,9.719531879E0,3.080228304E1,3.248922956E1
8.718573458E0,-4.557107041E0,8.044333246E0,3.033548812E1,3.171309448E1
8.728575458E0,-4.918187810E0,6.446421940E0,2.941170523E1,3.050890578E1
8.738578458E0,-4.565814422E0,6.393800508E0,2.635698880E1,2.750305810E1
8.748580458E0,-3.117747665E0,7.975649512E0,2.354654097E1,2.505535725E1
8.758583458E0,-1.830363125E0,9.358121912E0,2.172602441E1,2.372645805E1
8.768585458E0,-9.214970671E-1,9.060300415E0,2.105770169E1,2.294264590E1
8.778588458E0,-1.074674383E-1,8.297277364E0,2.132191632E1,2.287969572E1
8.788590458E0,4.305743426E-2,7.697045474E0,1.997346185E1,2.140526900E1
8.798593458E0,-5.820436867E-1,6.650633608E0,1.728004019E1,1.852483445E1
8.808595458E0,-1.562320620E0,5.347831861E0,1.478524611E1,1.580011563E1
8.818598458E0,-2.661823888E0,4.256637047E0,1.130063536E1,1.236562271E1
8.828600458E0,-3.676792937E0,3.388706761E0,7.286842246E0,8.837432304E0
8.838603458E0,-3.906568924E0,2.800573346E0,3.403324508E0,5.889576345E0
8.848605458E0,-3.447577113E0,1.893169676E0,5.833673501E-1,3.976203823E0
8.858608458E0,-2.756223092E0,3.154429588E-1,-7.757278812E-1,2.880629053E0
8.868611458E0,-1.336665312E0,-1.658770296E0,-1.083884917E0,2.390188186E0
8.878613458E0,4.800099197E-1,-4.073445243E0,-1.739763004E-1,4.105317700E0
8.888616458E0,1.827533365E0,-5.701415915E0,2.732520819E-2,5.987217075E0
8.898618458E0,2.864882485E0,-6.269589275E0,-1.256038640E0,7.006635027E0
8.908621458E0,3.267393116E0,-6.768110602E0,-2.858980891E0,8.040954585E0
8.918623458E0,2.938616167E0,-7.521924874E0,-4.294806794E0,9.146594130E0
8.928626458E0,2.168761814E0,-8.408967369E0,-5.715196048E0,1.039604376E1
8.938628458E0,1.519304701E0,-9.448066122E0,-6.767678493E0,1.172073856E1
8.948631458E0,9.168037994E-1,-1.040892094E1,-7.386077682E0,1.279610519E1
8.958633458E0,5.551898371E-1,-1.087485165E1,-8.159476032E0,1.360689837E1
8.968636458E0,8.348538295E-1,-1.084253759E1,-8.460351530E0,1.377806773E1
8.978638458E0,1.103390278E0,-1.047550202E1,-9.163175157E0,1.396128188E1
8.988641458E0,1.409310973E0,-1.013487364E1,-1.050243429E1,1.466297880E1
8.998643458E0,1.135395305E0,-9.676104024E0,-1.234927502E1,1.572961236E1
9.008646458E0,4.615042131E-1,-9.083987485E0,-1.365589383E1,1.640778020E1
9.018648458E0,-4.837720183E-1,-8.862668034E0,-1.436622645E1,1.688695895E1
9.028651583E0,-8.142636636E-1,-8.926064715E0,-1.476388038E1,1.727164788E1
9.038653583E0,-6.885520354E-1,-8.491535316E0,-1.471676469E1,1.700480635E1
9.048656583E0,-5.151806295E-1,-8.525563188E0,-1.434463268E1,1.669488321E1
9.058658583E0,-2.077597582E-1,-8.822110577E0,-1.376249442E1,1.634867125E1
9.068661583E0,-4.601977989E-1,-8.938498235E0,-1.256756327E1,1.542893967E1
9.078664583E0,-7.143727550E-1,-8.864183047E0,-1.086874715E1,1.404328075E1
9.088666583E0,-8.236649631E-1,-8.872776700E0,-9.771105491E0,1.322418591E1
9.098669583E0,-2.967612509E-1,-8.904187358E0,-9.033459356E0,1.268763208E1
9.108671583E0,5.169850802E-1,-8.782346587E0,-8.391210544E0,1.215768479E1
9.118674583E0,1.180633824E0,-8.600954847E0,-7.569952734E0,1.151844195E1
9.128676583E0,1.418117611E0,-8.630983223E0,-6.248234074E0,1.074920267E1
9.138679583E0,1.267160190E0,-8.637343240E0,-5.800467163E0,1.048116465E1
9.148681583E0,9.407494631E-1,-8.109314523E0,-6.693401898E0,1.055687551E1
9.158684583E0,7.713506556E-1,-7.098867711E0,-8.165784009E0,1.084753120E1
9.168686583E0,9.843623829E-1,-6.061828347E0,-9.266838105E0,1.111705989E1
9.178689583E0,1.745723071E0,-5.188092361E0,-9.944139805E0,1.135120116E1
9.188691583E0,2.862697088E0,-4.632388188E0,-9.686352439E0,1.111213204E1
9.198694583E0,3.718759281E0,-4.453228331E0,-8.854092507E0,1.058562078E1
9.208696583E0,4.052920931E0,-4.492603481E0,-7.866883700E0,9.924591340E0
9.218699583E0,3.614251703E0,-4.660441960E0,-7.404713928E0,9.466378557E0
9.228701583E0,2.649813707E0,-5.495420262E0,-7.273271443E0,9.493241492E0
9.238704583E0,1.621796013E0,-6.358071681E0,-7.438978027E0,9.919359450E0
9.248706583E0,1.247200574E0,-6.514459557E0,-7.724072474E0,1.018110938E1
9.258709583E0,2.021855491E0,-5.704772217E0,-8.165688699E0,1.016419193E1
9.268711583E0,2.771599807E0,-4.733333935E0,-7.981266932E0,9.684360458E0
9.278714583E0,2.843472613E0,-4.502319800E0,-7.071786917E0,8.852479329E0
9.288716583E0,2.880116236E0,-4.635651812E0,-5.420437322E0,7.691909907E0
9.298719583E0,2.525771752E0,-5.334448754E0,-3.724628423E0,6.979163513E0
9.308721583E0,1.670796995E0,-5.989504722E0,-2.796373583E0,6.818022780E0
9.318724583E0,7.682422757E-2,-5.576745676E0,-2.421784576E0,6.080381142E0
9.328726583E0,-2.324862007E0,-4.678108445E0,-2.930670678E0,5.989867494E0
9.338729583E0,-4.943822588E0,-3.142197797E0,-3.865448672E0,7.018296248E0
9.348732583E0,-5.538378586E0,-5.068237889E-1,-2.204604369E0,5.982540274E0
9.358734583E0,-5.616462303E0,2.222373472E0,3.344415565E0,6.904252901E0
9.368737583E0,-5.589313681E0,3.794200057E0,9.859804244E0,1.195207602E1
9.378739583E0,-3.860410126E0,6.463519199E0,1.648400961E1,1.812187682E1
9.388742583E0,-2.002201537E0,9.534471012E0,2.227517151E1,2.431251148E1
9.398744583E0,-1.320603449E0,1.038509120E1,2.534000597E1,2.741733056E1
9.408747583E0,-2.770485036E0,1.068424411E1,2.415487125E1,2.655722999E1
9.418749583E0,-5.573618000E0,1.129846488E1,2.137640067E1,2.481271915E1
9.428752583E0,-7.802176657E0,1.073197493E1,2.135703001E1,2.514303040E1
9.438754583E0,-8.153234714E0,9.057394348E0,2.410776140E1,2.701288190E1
9.448757583E0,-7.070561925E0,6.861568404E0,2.772564423E1,2.942423006E1
9.458759583E0,-5.846770679E0,4.870869218E0,3.125852257E1,3.217149868E1
9.468762583E0,-4.734036770E0,4.551084409E0,3.224180439E1,3.290376002E1
9.478764583E0,-2.720094608E0,6.793298069E0,2.904466147E1,2.995229830E1
9.488767583E0,-8.638705641E-1,9.908025062E0,2.452392645E1,2.646390375E1
9.498769583E0,1.356442934E-1,1.167361989E1,2.000306045E1,2.316061805E1
9.508772583E0,-1.324202849E0,1.128701369E1,1.555391289E1,1.926329145E1
9.518774583E0,-4.088671392E0,9.005281624E0,1.130786720E1,1.502265594E1
9.528777583E0,-5.919793632E0,6.280813590E0,1.021701883E1,1.337460466E1
9.538779583E0,-5.778912572E0,4.802243956E0,1.043920952E1,1.286213330E1
9.548782583E0,-3.035524996E0,4.917626477E0,1.091449226E1,1.235004467E1
9.558784583E0,-5.063175662E-1,5.576179665E0,1.225524244E1,1.347371902E1
9.568787583E0,1.752895850E-1,5.550137921E0,1.194370629E1,1.317144174E1
9.578789583E0,4.381605202E-1,4.447109220E0,9.824542025E0,1.079307144E1
9.588792583E0,-1.402848777E0,2.678700415E0,8.209677887E0,8.748841730E0
9.598794583E0,-2.646005708E0,3.802763012E-1,4.949368088E0,5.625140064E0
9.608797583E0,-3.324454047E0,-1.398336188E0,-2.902440906E-2,3.606685629E0
9.618799583E0,-3.380261335E0,-2.819592876E0,-3.501410966E0,5.624602158E0
9.628802583E0,-3.233104167E0,-4.462299117E0,-4.477632270E0,7.100300466E0
9.638805583E0,-2.881188616E0,-5.673125331E0,-4.796485033E0,7.968178433E0
9.648807583E0,-9.136446950E-1,-5.354564345E0,-4.478196527E0,7.039911227E0
9.658810583E0,1.287035461E0,-4.531666390E0,-2.794380852E0,5.477319134E0
9.668812583E0,2.501840852E0,-4.826987618E0,-1.880586176E0,5.752879408E0
9.678815583E0,3.736378988E0,-5.694553038E0,-2.211415206E0,7.160923087E0
9.688817583E0,4.970484138E0,-6.666598261E0,-2.490391712E0,8.680512416E0
9.698820583E0,5.156026230E0,-7.982496017E0,-3.071955196E0,9.987079547E0
9.708822583E0,4.240772382E0,-9.018554803E0,-4.650936141E0,1.099771286E1
9.718825583E0,2.853492109E0,-9.663201558E0,-6.887051155E0,1.220456288E1
9.728827583E0,1.879298180E0,-1.009676383E1,-9.132741569E0,1.374348464E1
9.738830583E0,1.311490417E0,-1.021275621E1,-1.100147310E1,1.506827153E1
9.748832583E0,1.045429972E0,-9.847242086E0,-1.217593899E1,1.569441273E1
9.758835583E0,8.514056160E-1,-9.359883678E0,-1.296664744E1,1.601456399E1
9.768837583E0,8.268880945E-1,-8.996324859E0,-1.281611204E1,1.568025295E1
9.778840583E0,9.046570860E-1,-8.798134069E0,-1.203204720E1,1.493304146E1
9.788842583E0,1.387749658E0,-8.568345510E0,-1.129344212E1,1.424374350E1
9.798845583E0,2.026020024E0,-7.896118609E0,-1.069849027E1,1.345032119E1
9.808847583E0,2.228624000E0,-7.193637044E0,-1.009546575E1,1.259498343E1
9.818850583E0,1.789067895E0,-7.203770269E0,-1.036180759E1,1.274606318E1
9.828852583E0,9.241460019E-1,-7.424312625E0,-1.051061572E1,1.290145366E1
9.838855583E0,-2.972217192E-1,-7.496535094E0,-9.718893948E0,1.227775544E1
9.848857583E0,-1.195843017E0,-7.821449665E0,-8.405375424E0,1.154363250E1
9.858860583E0,-9.718635209E-1,-8.209535215E0,-6.168499103E0,1.031461916E1
9.868862583E0,9.256355801E-1,-7.970075362E0,-3.800573230E0,8.878246413E0
9.878865583E0,2.108964971E0,-7.116617519E0,-2.791564833E0,7.930120578E0
9.888867583E0,1.638508670E0,-6.625419829E0,-4.320584244E0,8.077644879E0
9.898870583E0,2.732960822E-1,-6.663159513E0,-6.524971681E0,9.329932523E0
9.908872583E0,-9.393094401E-1,-6.937336040E0,-8.679577094E0,1.115096373E1
9.918875583E0,-1.344452926E0,-7.053201542E0,-9.368964989E0,1.180392776E1
9.928877583E0,-3.117828941E-1,-7.083498305E0,-8.321015890E0,1.093217555E1
9.938880583E0,1.122568415E0,-7.401880367E0,-6.724848223E0,1.006337798E1
9.948882583E0,2.241997021E0,-7.683772879E0,-6.538416769E0,1.033527020E1
9.958885583E0,2.725786580E0,-7.196123865E0,-7.760109449E0,1.092855937E1
9.968887583E0,2.042275430E0,-5.880685115E0,-9.461189028E0,1.132552181E1
9.978890583E0,7.649062930E-1,-5.052744521E0,-1.073994118E1,1.189376498E1
9.988893583E0,-6.616175674E-1,-5.039514611E0,-1.076364813E1,1.190338466E1
9.998895583E0,-2.044424866E0,-5.461070793E0,-1.015321402E1,1.170857473E1
1.000889858E1,-2.059382336E0,-5.966653218E0,-1.006760026E1,1.188270092E1
1.001890058E1,-3.604336287E-1,-6.334992136E0,-1.034944774E1,1.213973255E1
1.002890658E1,1.577799808E0,-6.188236964E0,-1.027678790E1,1.209942555E1
1.003890858E1,3.187616337E0,-4.601790293E0,-7.762146034E0,9.570176742E0
1.004891158E1,3.465026082E0,-3.626731415E0,-4.261903342E0,6.582051854E0
1.005891358E1,3.628397872E0,-3.543141375E0,-1.540561815E0,5.300231374E0
1.006891658E1,3.194911323E0,-3.631182316E0,-1.371253932E-1,4.838568667E0
1.007891858E1,9.716049278E-1,-3.264084762E0,-6.089196825E-1,3.459631288E0
1.008892158E1,-2.554727748E0,-2.002083131E0,-2.121868606E0,3.877795394E0
1.009892358E1,-5.923245243E0,3.680062115E-2,-4.408986543E0,7.384128306E0
1.010892658E1,-8.501157494E0,2.289018867E0,-4.961099356E0,1.010553279E1
1.011892858E1,-9.594939993E0,4.668419901E0,-1.243695168E0,1.074261586E1
1.012893158E1,-6.828147474E0,7.233596331E0,7.063789095E0,1.220023074E1
1.013893358E1,-1.832788404E0,9.169564410E0,1.510364337E1,1.776401047E1
1.014893658E1,1.861094190E-1,9.355541536E0,2.021290065E1,2.227379956E1
1.015893858E1,-1.954872420E0,9.422015022E0,2.498861871E1,2.677735906E1
1.016894158E1,-3.377540041E0,1.014837369E1,2.872912233E1,3.065550089E1
1.017894358E1,-9.062131763E-1,1.085228022E1,3.393140413E1,3.563612485E1
1.018894658E1,2.671862096E0,1.085743396E1,3.989612309E1,4.143336043E1
1.019894858E1,4.497764234E0,9.364098351E0,4.177259282E1,4.304492690E1
1.020895158E1,4.551699828E0,8.248728517E0,3.796279970E1,3.911436635E1
1.021895358E1,3.916570879E0,8.675510355E0,3.053945070E1,3.198846755E1
1.022895658E1,3.207177612E0,9.224618869E0,2.285711916E1,2.485613561E1
1.023895858E1,2.177572106E0,9.009859993E0,1.687815989E1,1.925595177E1
1.024896158E1,6.448326963E-1,8.467747089E0,1.241216299E1,1.503929321E1
1.025896358E1,-8.054299825E-1,7.722349885E0,9.044089594E0,1.191968799E1
1.026896658E1,-1.748975146E0,6.690194700E0,7.530316213E0,1.022366282E1
1.027896858E1,-2.126700599E0,5.654019554E0,6.812634811E0,9.105096684E0
1.028897158E1,-2.366274765E0,5.421840654E0,5.305824294E0,7.946532815E0
1.029897358E1,-3.466377666E0,5.914296080E0,3.991485990E0,7.932630878E0
1.030897658E1,-4.551369168E0,5.636945100E0,2.920853788E0,7.811625837E0
1.031897858E1,-5.416783397E0,4.225708200E0,2.171165897E0,7.205006143E0
1.032898158E1,-5.676137232E0,3.061208306E0,2.234358510E0,6.825092536E0
1.033898358E1,-5.186041158E0,2.010860386E0,2.956421816E0,6.299127903E0
1.034898658E1,-5.003456002E0,9.045788795E-1,3.931848484E0,6.427461973E0
1.035898858E1,-5.305409142E0,-8.734769547E-1,5.801365296E0,7.909877840E0
1.036899158E1,-5.718707301E0,-3.492237562E0,6.592430423E0,9.399972089E0
1.037899358E1,-6.087486514E0,-5.749776481E0,5.073897409E0,9.790906831E0
1.038899658E1,-5.746703185E0,-6.892191442E0,2.479893621E0,9.310036130E0
1.039899858E1,-3.917589464E0,-6.925581383E0,-6.682654130E-1,7.984845857E0
1.040900158E1,-5.635954289E-1,-5.692623457E0,-3.898672552E0,6.922662009E0
1.041900358E1,3.493901387E0,-3.787018799E0,-7.659174228E0,9.231024219E0
1.042900658E1,6.308520622E0,-1.925298665E0,-8.102511288E0,1.044772207E1
1.043900958E1,6.400461071E0,-1.470964161E0,-6.498872634E0,9.239317237E0
1.044901158E1,4.825375541E0,-3.242486901E0,-5.960999545E0,8.326553068E0
1.045901358E1,2.588500096E0,-5.896581940E0,-4.629674495E0,7.931197719E0
1.046901658E1,6.722934868E-1,-8.158335240E0,-3.164489138E0,8.776354820E0
1.047901958E1,-3.050807790E-1,-9.416834974E0,-3.031643322E0,9.897510618E0
1.048902158E1,-4.035631664E-1,-9.577912316E0,-4.007234881E0,1.039024538E1
1.049902458E1,-3.811234166E-1,-8.776751386E0,-6.059662539E0,1.067221299E1
1.050902658E1,3.434080716E-1,-7.402939882E0,-8.874341415E0,1.156180711E1
1.051902958E1,1.130824245E0,-5.851810979E0,-1.107884112E1,1.258026930E1
1.052903158E1,1.203958733E0,-4.935855757E0,-1.196254251E1,1.299671544E1
1.053903458E1,8.948089130E-1,-5.254249513E0,-1.192563489E1,1.306248784E1
1.054903658E1,5.342235491E-1,-6.223105080E0,-1.155530032E1,1.313534914E1
1.055903958E1,3.729330754E-1,-6.951330766E0,-1.100973171E1,1.302590768E1
1.056904158E1,3.994025436E-1,-7.370372645E0,-1.054226787E1,1.286939498E1
1.057904458E1,4.538817097E-1,-7.549657048E0,-1.036860088E1,1.283398669E1
1.058904658E1,5.658776703E-1,-7.562240841E0,-1.027008466E1,1.276645381E1
1.059904958E1,6.778076304E-1,-7.533282505E0,-1.021255273E1,1.270850116E1
1.060905158E1,8.830060159E-1,-7.362136257E0,-1.031667761E1,1.270490404E1
1.061905458E1,1.178920298E0,-6.980149938E0,-1.068891487E1,1.282050105E1
1.062905658E1,1.662781632E0,-6.535158116E0,-1.093503002E1,1.284710146E1
1.063905958E1,2.009768565E0,-6.192080923E0,-1.096587993E1,1.275270789E1
1.064906158E1,1.727799162E0,-6.062716540E0,-1.061136091E1,1.234272263E1
1.065906458E1,1.090653800E0,-6.310091184E0,-1.001156522E1,1.188436850E1
1.066906658E1,4.134661205E-1,-6.958815202E0,-9.361334372E0,1.167178840E1
1.067906958E1,-3.192412370E-1,-7.576534359E0,-9.231071271E0,1.194648336E1
1.068907158E1,-7.405266197E-1,-7.723076109E0,-9.511421873E0,1.227442179E1
1.069907458E1,-5.773568510E-1,-7.316124517E0,-9.743704854E0,1.219831149E1
1.070907658E1,3.722179610E-1,-6.318930420E0,-9.605063862E0,1.150324648E1
1.071907958E1,1.988792995E0,-5.204206118E0,-9.005131350E0,1.058921383E1
1.072908158E1,2.533805826E0,-3.994248215E0,-9.119531540E0,1.027326853E1
1.073908458E1,1.725771932E0,-3.621098208E0,-8.949032578E0,9.806927403E0
1.074908658E1,8.945668383E-1,-4.469185967E0,-8.629582230E0,9.759280840E0
1.075908958E1,1.212988223E0,-5.066029980E0,-8.767250245E0,1.019807222E1
1.076909158E1,2.164033755E0,-4.036746363E0,-8.261394171E0,9.446110148E0
1.077909458E1,2.565746826E0,-2.171215013E0,-6.708927425E0,7.503794946E0
1.078909658E1,1.480819205E0,-1.335387111E0,-4.533692451E0,4.952822578E0
1.079909958E1,-7.561107194E-2,-2.607900866E0,-3.316309168E0,4.219569938E0
1.080910158E1,-1.369385746E0,-4.037187535E0,-4.045344694E0,5.876981726E0
1.081910458E1,-2.411497277E0,-3.425059193E0,-4.387729576E0,6.066178404E0
1.082910658E1,-4.104056586E0,-1.650612261E0,-4.736037102E0,6.480574722E0
1.083910958E1,-6.393336239E0,-5.579091579E-2,-7.266812609E0,9.679071566E0
1.084911158E1,-8.901813388E0,1.609858045E0,-7.502461832E0,1.175248306E1
1.085911458E1,-9.330330681E0,3.239915296E0,6.895387530E-1,9.900888113E0
1.086911658E1,-5.412751157E0,6.157132115E0,1.503254825E1,1.712266503E1
1.087911958E1,2.797433976E0,9.157976983E0,2.803376209E1,2.962407798E1
1.088912158E1,1.064923215E1,1.124646793E1,3.545019032E1,3.868598170E1
1.089912458E1,1.315716376E1,1.355851079E1,3.719881186E1,4.172164638E1
1.090912658E1,1.215080649E1,1.498176167E1,3.746805041E1,4.214202277E1
1.091912958E1,1.149176096E1,1.354251632E1,4.098047753E1,4.466385403E1
1.092913158E1,1.208058493E1,1.083528821E1,4.416606401E1,4.705300429E1
1.093913458E1,1.138350444E1,8.621523013E0,4.299148468E1,4.530102193E1
1.094913658E1,8.182633930E0,7.895403494E0,3.498696221E1,3.678831905E1
1.095913958E1,5.117031734E0,8.274484917E0,2.455070436E1,2.640810858E1
1.096914158E1,3.006074617E0,9.146736295E0,1.628285019E1,1.891640768E1
1.097914458E1,1.806637463E0,9.892642207E0,1.100847690E1,1.491022710E1
1.098914658E1,7.297744672E-1,1.010574749E1,8.001856733E0,1.291078674E1
1.099914958E1,-4.477661799E-1,9.475020032E0,7.480976238E0,1.208062518E1
1.100915158E1,-1.915149360E0,7.776849443E0,8.629189882E0,1.177327917E1
1.101915458E1,-3.047736613E0,6.478217930E0,9.536221084E0,1.192457624E1
1.102915383E1,-4.173993963E0,6.191307921E0,8.975653782E0,1.167548201E1
1.103915683E1,-5.183913356E0,6.087038618E0,6.967663209E0,1.060534429E1
1.104915883E1,-4.916420197E0,4.916314362E0,5.261143380E0,8.719000180E0
1.105916183E1,-3.856124702E0,3.440304931E0,4.476649938E0,6.837089323E0
1.106916383E1,-3.016897521E0,1.861824800E0,3.642899551E0,5.083185948E0
1.107916683E1,-2.419365437E0,-7.397341758E-2,1.280577650E0,2.738371834E0
1.108916883E1,-1.700975352E0,-1.709383502E0,-1.218849179E0,2.702018214E0
1.109917183E1,-9.533885121E-1,-2.745411298E0,-3.686578252E0,4.694368122E0
1.110917383E1,-3.991163224E-1,-3.707395509E0,-6.195174685E0,7.230785897E0
1.111917683E1,2.549075391E-2,-4.778203713E0,-8.276337315E0,9.556654219E0
1.112917883E1,5.882084792E-1,-5.496166366E0,-9.587851998E0,1.106710169E1
1.113918183E1,1.326433416E0,-5.874033322E0,-9.867059469E0,1.155952229E1
1.114918383E1,2.016319493E0,-6.478090460E0,-9.101752496E0,1.135222880E1
1.115918683E1,2.278664764E0,-7.332701958E0,-7.766925548E0,1.092181137E1
1.116918883E1,2.176395500E0,-8.071452633E0,-6.384751942E0,1.051903524E1
1.117919183E1,2.058208800E0,-8.236311954E0,-5.441061037E0,1.008356104E1
1.118919383E1,1.919721736E0,-8.082881016E0,-5.352171664E0,9.882511755E0
1.119919683E1,1.264036608E0,-7.720703309E0,-6.561453629E0,1.021076500E1
1.120919883E1,5.532019300E-1,-7.200572426E0,-8.780425192E0,1.136882325E1
1.121920183E1,-1.433848375E-1,-6.773961911E0,-1.135358073E1,1.322160787E1
1.122920383E1,-8.295305244E-1,-6.407585903E0,-1.292783713E1,1.445248251E1
1.123920683E1,-1.047302470E0,-6.260147776E0,-1.326663065E1,1.470679372E1
1.124920883E1,-1.012184239E0,-6.801514576E0,-1.255559168E1,1.431530649E1
1.125921183E1,-1.286713280E0,-7.581625530E0,-1.123558626E1,1.361525157E1
1.126921383E1,-1.403413910E0,-7.930959828E0,-9.940437348E0,1.279382621E1
1.127921683E1,-1.195668185E0,-8.102475620E0,-8.721592262E0,1.196435979E1
1.128921883E1,-8.732581957E-1,-8.206615115E0,-8.060365727E0,1.153605683E1
1.129922183E1,-3.459193411E-1,-7.884917682E0,-8.003461209E0,1.124041718E1
1.130922383E1,4.283913212E-1,-7.138561535E0,-7.915236080E0,1.066740559E1
1.131922683E1,7.094384359E-1,-6.311769919E0,-7.775472423E0,1.003990607E1
1.132922883E1,3.930651851E-1,-5.857217900E0,-8.151722624E0,1.004550066E1
1.133923183E1,-1.103062980E-1,-5.993585494E0,-8.674817460E0,1.054455748E1
1.134923383E1,-6.250705692E-1,-6.513909334E0,-8.673905879E0,1.086546691E1
1.135923683E1,-1.372960149E0,-6.840124910E0,-8.550389881E0,1.103546535E1
1.136923883E1,-2.347215766E0,-6.893800596E0,-8.778842935E0,1.140622601E1
1.137924183E1,-2.952480792E0,-6.669887905E0,-9.321486767E0,1.183615913E1
1.138924383E1,-2.830833564E0,-6.120272437E0,-9.862123250E0,1.194708451E1
1.139924683E1,-2.337681588E0,-5.415683536E0,-1.065483378E1,1.217866439E1
1.140924883E1,-1.525477899E0,-4.924693422E0,-1.107878031E1,1.221961788E1
1.141925183E1,-6.147315956E-1,-4.686315889E0,-1.059087811E1,1.159767868E1
1.142925383E1,-5.465640977E-2,-4.511624766E0,-9.954826176E0,1.092960702E1
1.143925683E1,-9.066984951E-3,-4.474711002E0,-9.465478545E0,1.046988084E1
1.144925883E1,-3.515533161E-1,-4.754427765E0,-8.831193641E0,1.003584347E1
1.145926183E1,-7.789245540E-1,-5.036005113E0,-8.047715861E0,9.525429204E0
1.146926383E1,-9.944081917E-1,-4.989341993E0,-7.262166411E0,8.866873302E0
1.147926683E1,-1.062497995E0,-4.645835615E0,-7.009465538E0,8.476160551E0
1.148926883E1,-1.275197919E0,-4.614854727E0,-7.909787645E0,9.245958818E0
1.149927183E1,-1.771658688E0,-5.196132283E0,-9.334232528E0,1.082896404E1
1.150927383E1,-2.303343230E0,-5.853209633E0,-1.022225443E1,1.200249719E1
1.151927683E1,-2.287415268E0,-6.307365797E0,-8.655480718E0,1.095136879E1
1.152927883E1,-1.196996965E0,-5.649709572E0,-4.692206374E0,7.441022822E0
1.153928183E1,7.586060643E-1,-3.149797423E0,-1.524708259E-1,3.243447907E0
1.154928383E1,2.498868420E0,2.243032855E-1,2.638294108E0,3.640776173E0
1.155928683E1,3.479703763E0,3.687331374E0,2.247895984E0,5.545970365E0
1.156928883E1,1.575367220E0,7.319580806E0,-4.685637027E-1,7.501839575E0
1.157929183E1,-2.196382453E0,9.435650144E0,-3.440854862E0,1.028081085E1
1.158929383E1,-4.041049914E0,1.054076981E1,-9.078351939E-1,1.132528487E1
1.159929683E1,-2.706602451E0,1.204786509E1,7.542148054E0,1.446930362E1
1.160929883E1,2.736524407E0,1.254284709E1,1.848734053E1,2.250762846E1
1.161930183E1,9.925100101E0,1.188724324E1,2.928554337E1,3.312789179E1
1.162930383E1,1.449579841E1,1.018776989E1,3.813604335E1,4.205088143E1
1.163930683E1,1.596407051E1,7.436853733E0,4.398357007E1,4.737839990E1
1.164930883E1,1.510718679E1,5.875950040E0,4.437122176E1,4.723938189E1
1.165931183E1,1.290988033E1,6.210849901E0,3.991630300E1,4.240932576E1
1.166931383E1,1.024564914E1,7.210207468E0,3.246020257E1,3.479403927E1
1.167931683E1,7.617601694E0,8.028424727E0,2.398345895E1,2.641381764E1
1.168931883E1,4.731223090E0,8.676796158E0,1.612376031E1,1.891155494E1
1.169932183E1,2.124518857E0,8.992363955E0,1.080437515E1,1.421656472E1
1.170932383E1,9.455203526E-2,9.032912056E0,8.056830500E0,1.210433633E1
1.171932683E1,-9.058961841E-1,8.474257963E0,7.080426763E0,1.107998823E1
1.172932883E1,-1.746604246E0,7.018312376E0,6.793779879E0,9.922841329E0
1.173933183E1,-2.161886950E0,5.205849770E0,6.687983868E0,8.746642512E0
1.174933383E1,-2.275934553E0,3.381648587E0,8.132017508E0,9.096435236E0
1.175933683E1,-3.317378624E0,1.843792279E0,8.582570032E0,9.384299615E0
1.176933883E1,-3.013745871E0,5.923182678E-1,8.120096204E0,8.681559046E0
1.177934183E1,-1.091846632E0,5.689922628E-1,7.146321375E0,7.251606060E0
1.178934383E1,1.192601320E0,1.538691291E0,6.014926661E0,6.322120810E0
1.179934683E1,2.014145937E0,1.140248860E0,5.082439606E0,5.584634605E0
1.180934883E1,1.794326443E0,-6.493218961E-1,3.315485880E0,3.825398402E0
1.181935183E1,1.270640599E0,-2.503199453E0,1.277940556E0,3.084423301E0
1.182935383E1,2.489036912E-1,-3.106932947E0,-1.623247876E0,3.514245161E0
1.183935683E1,4.626691246E-1,-2.080372379E0,-2.789256937E0,3.510265832E0
1.184935883E1,2.802219337E0,-5.059741884E-1,-1.318526080E0,3.137985678E0
1.185936183E1,3.015572249E0,1.225542779E-1,-1.108719796E-1,3.020097372E0
1.186936383E1,1.131466342E0,-7.434268387E-1,-2.687380314E-2,1.354112901E0
1.187936683E1,-7.947658306E-1,-1.876413457E0,-1.723821740E0,2.669108761E0
1.188936883E1,-1.895395858E0,-2.620824966E0,-4.015191187E0,5.155871336E0
1.189937183E1,-2.678286724E0,-3.570263100E0,-5.160946078E0,6.823149038E0
1.190937383E1,-3.644288265E0,-4.759684997E0,-5.134967483E0,7.893245801E0
1.191937683E1,-4.298149939E0,-5.330036445E0,-5.053647332E0,8.510154685E0
1.192937883E1,-4.106603341E0,-5.216075381E0,-5.707613963E0,8.754912366E0
1.193938183E1,-3.352157278E0,-4.922360383E0,-6.790447551E0,9.031985834E0
1.194938383E1,-2.430893953E0,-4.600468530E0,-8.063196364E0,9.596285308E0
1.195938683E1,-1.614263337E0,-4.224940753E0,-9.337635022E0,1.037532642E1
1.196938883E1,-1.295625752E0,-3.925233821E0,-1.030678997E1,1.110477492E1
1.197939183E1,-1.357123550E0,-3.859571928E0,-1.151440255E1,1.221963772E1
1.198939383E1,-1.388829346E0,-4.017691457E0,-1.256218033E1,1.326194051E1
1.199939683E1,-1.755328584E0,-4.487751170E0,-1.274030874E1,1.362118041E1
1.200939883E1,-2.412539836E0,-5.123991090E0,-1.227892834E1,1.352211944E1
1.201940183E1,-2.538846418E0,-5.427901293E0,-1.117855486E1,1.268337267E1
1.202940358E1,-1.918019612E0,-5.366938223E0,-9.751577545E0,1.129495860E1
1.203940658E1,-1.227894237E0,-5.213917758E0,-8.822445037E0,1.032124988E1
1.204940858E1,-6.618374227E-1,-4.934635443E0,-8.631215358E0,9.964262857E0
1.205941158E1,-1.589962089E-1,-4.520954876E0,-8.813846707E0,9.906977670E0
1.206941358E1,2.219520104E-1,-4.215532291E0,-9.184815118E0,1.010845210E1
1.207941658E1,5.094139592E-1,-4.149411976E0,-9.548111982E0,1.042322238E1
1.208941858E1,6.208901024E-1,-4.186911339E0,-9.572228823E0,1.046629331E1
1.209942158E1,3.671311026E-1,-4.329712332E0,-9.309126922E0,1.027331681E1
1.210942358E1,-2.046291590E-1,-4.619557643E0,-9.062742797E0,1.017425638E1
1.211942658E1,-8.356942937E-1,-4.635740105E0,-8.742653348E0,9.930884091E0
1.212942858E1,-1.153226755E0,-4.334559382E0,-8.622935116E0,9.719740068E0
1.213943158E1,-1.050386657E0,-3.806589138E0,-8.803826333E0,9.648875121E0
1.214943358E1,-4.492542232E-1,-3.105892435E0,-8.670678216E0,9.221120209E0
1.215943658E1,2.468453251E-1,-2.610690572E0,-8.263313811E0,8.669428645E0
1.216943858E1,6.429853416E-1,-2.772479229E0,-8.083652263E0,8.570035305E0
1.217944158E1,4.633854816E-1,-3.358513201E0,-8.271508684E0,8.939361999E0
1.218944358E1,-5.199300304E-1,-3.970806435E0,-8.266135093E0,9.185130394E0
1.219944658E1,-1.640203340E0,-4.269395379E0,-8.047657388E0,9.256500059E0
1.220944858E1,-2.092774908E0,-4.186221660E0,-7.273381956E0,8.649060277E0
1.221945158E1,-1.549764309E0,-3.462269704E0,-6.020998410E0,7.116284338E0
1.222945358E1,-8.497002755E-1,-2.328398110E0,-5.173430468E0,5.736533023E0
1.223945658E1,-1.712398765E-1,-1.106746945E0,-4.903366873E0,5.029634041E0
1.224945858E1,-4.311574562E-1,3.124225795E-2,-5.225396428E0,5.243247148E0
1.225946158E1,-1.995618742E0,2.591977143E-1,-4.836691657E0,5.238631864E0
1.226946358E1,-4.218007125E0,1.011742555E0,-2.662571747E0,5.089645902E0
1.227946658E1,-5.198351301E0,3.377714873E0,6.286850256E-1,6.231136242E0
1.228946858E1,-3.741703170E0,5.911621563E0,2.609268529E0,7.466986968E0
1.229947158E1,-1.762646813E-1,8.240734788E0,4.289354850E0,9.291896691E0
1.230947358E1,3.713579817E0,1.167140497E1,7.282853276E0,1.424964283E1
1.231947658E1,5.845751510E0,1.450372139E1,9.758368501E0,1.843248493E1
1.232947858E1,5.597424939E0,1.465073676E1,1.132944577E1,1.934765089E1
1.233948158E1,4.351487656E0,1.334578324E1,1.415745162E1,1.993687065E1
1.234948358E1,3.273941998E0,1.190087076E1,1.760123008E1,2.149773759E1
1.235948658E1,3.479902568E0,1.092809054E1,2.031732724E1,2.333080948E1
1.236948858E1,4.512826077E0,1.027325151E1,2.168836132E1,2.441905634E1
1.237949158E1,5.309477634E0,9.594342408E0,2.233023591E1,2.487732692E1
1.238949358E1,5.338883867E0,8.826851499E0,2.194538153E1,2.424905687E1
1.239949558E1,4.548276868E0,8.314833044E0,1.994220497E1,2.207973755E1
1.240949858E1,3.859286292E0,8.401301669E0,1.685623634E1,1.922520907E1
1.241950058E1,3.597165554E0,9.403386378E0,1.434940401E1,1.752908072E1
1.242950358E1,3.285770330E0,9.983788605E0,1.166008242E1,1.569808408E1
1.243950558E1,2.381085032E0,9.863955767E0,8.895120081E0,1.349408576E1
1.244950858E1,1.249382170E0,9.177352316E0,7.035773916E0,1.163128823E1
1.245951058E1,9.544658616E-2,7.715951861E0,6.476186607E0,1.007402681E1
1.246951358E1,-1.111148364E0,6.207159723E0,6.888381397E0,9.338805104E0
1.247951558E1,-1.697658519E0,5.197542631E0,6.613575709E0,8.581134978E0
1.248951858E1,-1.703762282E0,4.148725805E0,5.537588627E0,7.125982004E0
1.249952058E1,-1.208455022E0,3.495642103E0,4.287420591E0,5.662318657E0
1.250952358E1,1.872461177E-1,3.551074292E0,2.289258018E0,4.229171551E0
1.251952558E1,1.984069029E0,4.155841282E0,4.696232182E-1,4.629048784E0
1.252952858E1,2.488001955E0,3.813428333E0,-7.521507382E-1,4.614988636E0
1.253953058E1,1.520020839E0,1.687178993E0,-1.055096151E0,2.504049559E0
1.254953358E1,4.013675004E-3,-8.992637604E-1,-1.252389393E0,1.541807579E0
1.255953558E1,-1.489269162E0,-3.195352496E0,-1.805535994E0,3.960828251E0
1.256953858E1,-2.475044232E0,-4.739847148E0,-2.049130998E0,5.726336768E0
1.257954058E1,-2.799083768E0,-5.405390682E0,-2.256917068E0,6.492056147E0
1.258954358E1,-2.154141290E0,-5.456581301E0,-2.505323161E0,6.378969222E0
1.259954558E1,-6.811851284E-1,-4.973606551E0,-2.991626732E0,5.843851966E0
1.260954858E1,6.356205542E-1,-4.293661324E0,-3.450686955E0,5.544978045E0
1.261955058E1,1.226778442E0,-4.114530119E0,-3.943333000E0,5.829598493E0
1.262955358E1,1.046367719E0,-4.348721046E0,-4.884746414E0,6.623217320E0
1.263955558E1,3.160642254E-1,-4.865058839E0,-6.104372104E0,7.812301382E0
1.264955858E1,-7.148286916E-1,-5.628181878E0,-6.984894369E0,8.998675494E0
1.265956058E1,-1.903012587E0,-6.579073629E0,-7.212366260E0,9.946049155E0
1.266956358E1,-2.775960369E0,-7.134891238E0,-7.185834519E0,1.049994508E1
1.267956558E1,-3.080666378E0,-7.093416937E0,-7.309882030E0,1.064149635E1
1.268956858E1,-2.842819771E0,-6.864352264E0,-7.793374259E0,1.076743417E1
1.269957058E1,-2.051665181E0,-6.507868575E0,-8.313287625E0,1.075511202E1
1.270957358E1,-1.022267982E0,-6.002874965E0,-8.439407389E0,1.040687930E1
1.271957558E1,-2.389640093E-1,-5.366913080E0,-8.802253432E0,1.031215425E1
1.272957858E1,-1.441593012E-1,-5.103429941E0,-9.157968796E0,1.048494976E1
1.273958058E1,-7.662574384E-1,-5.460250429E0,-9.669036494E0,1.113066718E1
1.274958358E1,-1.555925374E0,-5.966435702E0,-1.017736419E1,1.189949581E1
1.275958558E1,-2.127273919E0,-6.454645464E0,-1.032521454E1,1.236114063E1
1.276958858E1,-2.530360939E0,-6.842715812E0,-1.017295889E1,1.251856936E1
1.277959058E1,-2.717213978E0,-7.074086627E0,-1.003248188E1,1.257285354E1
1.278959358E1,-2.518612421E0,-7.309058742E0,-9.868314282E0,1.253592338E1
1.279959558E1,-1.734598743E0,-7.307423860E0,-9.417174112E0,1.204534950E1
1.280959858E1,-9.892144024E-1,-6.696460576E0,-8.579703727E0,1.092851524E1
1.281960058E1,-5.694846714E-1,-6.206234109E0,-7.852623510E0,1.002523569E1
1.282960358E1,-4.266554656E-1,-6.192748675E0,-7.494098559E0,9.731067991E0
1.283960558E1,-6.791010346E-1,-6.385199838E0,-7.271734210E0,9.701034667E0
1.284960758E1,-1.056335980E0,-6.689273179E0,-7.057284653E0,9.780975822E0
1.285961058E1,-9.693894909E-1,-6.848856558E0,-6.815406391E0,9.710629043E0
1.286961258E1,-7.674594797E-1,-6.668705598E0,-6.671908702E0,9.464406697E0
1.287961558E1,-6.571796038E-1,-6.463159595E0,-6.696627806E0,9.330012913E0
1.288961758E1,-3.784179830E-1,-6.317806585E0,-7.137624226E0,9.539578597E0
1.289962058E1,-3.152527415E-1,-6.103827728E0,-7.865441192E0,9.960987018E0
1.290962258E1,-1.831828510E-1,-5.871305012E0,-9.350859670E0,1.104284180E1
1.291962558E1,5.502044645E-1,-5.321325263E0,-1.075134793E1,1.200877636E1
1.292962758E1,1.832728909E0,-4.518512494E0,-1.032739439E1,1.142063594E1
1.293963058E1,2.173540743E0,-3.653208193E0,-7.247510365E0,8.402179238E0
1.294963258E1,1.586986953E0,-2.800611645E0,-3.101435688E0,4.469995134E0
1.295963558E1,1.019026431E0,-1.732207232E0,-1.053223872E-1,2.012473495E0
1.296963758E1,2.632154732E-2,-6.800428748E-1,1.127344347E0,1.316835758E0
1.297964058E1,-8.620723260E-1,3.093177080E-4,1.196316934E0,1.474565359E0
1.298964258E1,-1.689790214E0,1.686409500E0,1.684849463E0,2.922000287E0
1.299964558E1,-2.141676634E0,5.168933959E0,2.211029874E0,6.016087614E0
1.300964758E1,-1.508858650E0,8.609604049E0,2.906254460E0,9.211311051E0
1.301965058E1,-7.552473871E-2,1.134849716E1,5.021212242E0,1.240994215E1
1.302965308E1,8.313327824E-1,1.348468735E1,8.592199811E0,1.601105258E1
1.303965608E1,1.156723682E0,1.426953572E1,1.199288021E1,1.867583559E1
1.304965808E1,1.138001044E0,1.422523254E1,1.597445283E1,2.142044421E1
1.305966108E1,7.095772342E-1,1.385476816E1,1.890232211E1,2.344687360E1
1.306966308E1,-3.122237376E-1,1.292198757E1,1.973482060E1,2.359106591E1
1.307966608E1,-1.051264982E0,1.207970902E1,1.974112156E1,2.316757235E1
1.308966808E1,-7.951233148E-1,1.188386589E1,2.072310998E1,2.390200361E1
1.309967108E1,6.594245692E-1,1.167953494E1,2.243320772E1,2.530010248E1
1.310967308E1,2.891512167E0,1.092382675E1,2.480563595E1,2.725821726E1
1.311967608E1,5.081308755E0,1.012575198E1,2.760551903E1,2.983982628E1
1.312967808E1,5.807207834E0,9.005692098E0,2.794253617E1,2.992676863E1
1.313968108E1,4.919807489E0,7.841339554E0,2.446408371E1,2.615688252E1
1.314968308E1,3.128011575E0,7.719915689E0,1.915824187E1,2.089066266E1
1.315968608E1,1.729638257E0,7.655403943E0,1.369069880E1,1.578075066E1
1.316968808E1,2.855082113E-1,7.517117293E0,9.342360157E0,1.199450960E1
1.317969108E1,-9.291282682E-1,6.758770260E0,6.270641774E0,9.266347880E0
1.318969308E1,-1.757082749E0,5.427376798E0,4.057664777E0,7.000600127E0
1.319969608E1,-2.239815717E0,4.183195142E0,1.876930497E0,5.102819233E0
1.320969808E1,-1.514904233E0,3.313398424E0,1.316120535E-1,3.645663957E0
1.321970008E1,1.726972219E-1,2.830980914E0,-4.870642930E-1,2.877761090E0
1.322970308E1,1.210922255E0,2.225162010E0,-3.882258832E-1,2.562888607E0
1.323970508E1,1.197348382E0,1.518114939E0,6.086308300E-2,1.934430260E0
1.324970808E1,9.788619071E-2,6.543081093E-1,-1.168390632E-2,6.616927700E-1
1.325971008E1,-1.294492708E0,-3.969709790E-1,-9.207826835E-1,1.637418114E0
1.326971308E1,-2.368500216E0,-1.592388903E0,-2.371643533E0,3.710820494E0
1.327971508E1,-3.131273444E0,-2.580499644E0,-3.895056633E0,5.624528244E0
1.328971808E1,-3.189037503E0,-3.087899676E0,-4.796464568E0,6.535377338E0
1.329972008E1,-2.614600313E0,-3.509473692E0,-5.088455222E0,6.711551008E0
1.330972308E1,-2.122683123E0,-4.280529940E0,-5.293183783E0,7.130674216E0
1.331972508E1,-2.017546970E0,-5.316750986E0,-5.638831412E0,8.008417853E0
1.332972808E1,-2.288316470E0,-6.150803089E0,-5.772002918E0,8.739839163E0
1.333973008E1,-2.910718224E0,-6.378923437E0,-5.402211551E0,8.851374720E0
1.334973308E1,-3.624230561E0,-6.287650155E0,-5.139425400E0,8.892878335E0
1.335973508E1,-4.095552103E0,-5.693505802E0,-5.928729347E0,9.183647805E0
1.336973808E1,-3.986528721E0,-4.824725623E0,-8.161558226E0,1.028500954E1
1.337974008E1,-3.512149962E0,-4.025094324E0,-1.061069198E1,1.187953560E1
1.338974308E1,-2.957281064E0,-3.412050308E0,-1.207083646E1,1.288769535E1
1.339974508E1,-2.346913172E0,-2.932725974E0,-1.239064992E1,1.294747421E1
1.340974808E1,-1.472095013E0,-2.605757276E0,-1.143594812E1,1.182108050E1
1.341975008E1,-7.939866892E-1,-2.226243160E0,-9.969507365E0,1.024586017E1
1.342975308E1,-7.679718420E-1,-2.211501160E0,-8.548359143E0,8.863123725E0
1.343975508E1,-1.118048151E0,-2.686921307E0,-7.123530098E0,7.695080171E0
1.344975808E1,-1.690501966E0,-3.315945472E0,-6.475545752E0,7.469001543E0
1.345976008E1,-2.399649357E0,-4.165219631E0,-6.875605230E0,8.389357478E0
1.346976308E1,-2.966020605E0,-5.014960983E0,-7.736746314E0,9.685264861E0
1.347976508E1,-3.318336983E0,-5.630170516E0,-8.595069625E0,1.079747203E1
1.348976808E1,-3.486359648E0,-6.069214550E0,-9.177537088E0,1.154197799E1
1.349977008E1,-3.309077917E0,-6.294341124E0,-9.258867765E0,1.167456034E1
1.350977208E1,-2.818029331E0,-6.213533773E0,-9.273141403E0,1.151262102E1
1.351977508E1,-2.174460803E0,-5.926385198E0,-9.099682581E0,1.107495121E1
1.352977708E1,-1.843041497E0,-5.860329203E0,-8.703427886E0,1.065316466E1
1.353978008E1,-1.840585081E0,-6.031626894E0,-8.248515093E0,1.038298019E1
1.354978208E1,-1.680184992E0,-6.026501809E0,-7.742424545E0,9.954239474E0
1.355978508E1,-1.350789992E0,-6.110870115E0,-7.302061379E0,9.617040477E0
1.356978708E1,-1.046387746E0,-6.393114045E0,-6.868297965E0,9.441416813E0
1.357979008E1,-9.107248878E-1,-6.619446314E0,-6.476597666E0,9.305525598E0
1.358979208E1,-6.732804237E-1,-6.780592654E0,-6.145157018E0,9.175657908E0
1.359979508E1,-8.820524812E-4,-6.642605966E0,-5.930309265E0,8.904649503E0
1.360979708E1,1.042581501E0,-6.346014138E0,-5.977212705E0,8.779860098E0
1.361980008E1,1.856470066E0,-6.049280807E0,-6.085700775E0,8.779295718E0
1.362980208E1,2.119343632E0,-5.724520018E0,-6.017619889E0,8.571668215E0
1.363980508E1,2.124986488E0,-5.702118165E0,-6.041647852E0,8.575035155E0
1.364980708E1,2.151296766E0,-5.714193251E0,-5.811996703E0,8.429673063E0
1.365981008E1,1.813916662E0,-5.299056727E0,-5.517291772E0,7.861984758E0
1.366981208E1,6.037940864E-1,-4.887804508E0,-5.704247721E0,7.536155670E0
1.367981508E1,-6.041946206E-1,-4.142534773E0,-5.609398867E0,6.999357194E0
1.368981708E1,-6.058551568E-1,-2.285706419E0,-4.541689103E0,5.120395904E0
1.369982008E1,5.732166934E-1,6.556541383E-1,-1.718413065E0,1.926500244E0
1.370982208E1,1.901667435E0,4.768573934E0,3.804157573E0,6.389620586E0
1.371982508E1,2.368203762E0,8.724850330E0,6.881087580E0,1.136137178E1
1.372982708E1,1.976297349E0,1.138978201E1,6.947252918E0,1.348692732E1
1.373983008E1,5.368163141E-1,1.371363859E1,6.896095043E0,1.535930278E1
1.374983208E1,-6.226058947E-1,1.450522295E1,7.158552580E0,1.618746447E1
1.375983408E1,-5.359296204E-1,1.353752046E1,9.182979677E0,1.636700328E1
1.376983708E1,-8.734132200E-3,1.245665446E1,1.331772947E1,1.823541156E1
1.377983908E1,1.293679652E0,1.151965335E1,1.758824576E1,2.106471954E1
1.378984208E1,3.460510277E0,1.070550575E1,2.078673470E1,2.363622906E1
1.379984408E1,5.331584203E0,1.047571954E1,2.317312374E1,2.598384409E1
1.380984708E1,6.399805598E0,1.008837658E1,2.421197750E1,2.699912421E1
1.381984908E1,6.695907429E0,9.642138718E0,2.431533990E1,2.700077350E1
1.382985208E1,5.817084365E0,9.847130989E0,2.406090415E1,2.664078768E1
1.383985408E1,4.136799532E0,1.015438697E1,2.187883086E1,2.447259539E1
1.384985708E1,2.764215066E0,9.953867233E0,1.777997947E1,2.056326890E1
1.385985908E1,1.870143341E0,9.611579999E0,1.406208002E1,1.713540197E1
1.386986208E1,9.541544974E-1,9.308868476E0,1.224329307E1,1.540985620E1
1.387986408E1,1.366802739E-1,8.626051682E0,1.109888420E1,1.405747771E1
1.388986708E1,-3.603465052E-1,7.525785205E0,1.045284289E1,1.288523252E1
1.389986908E1,-6.587084314E-1,6.578192453E0,9.764074214E0,1.179167749E1
1.390987208E1,9.682784468E-2,5.938512323E0,8.485460059E0,1.035752561E1
1.391987408E1,1.725142918E0,6.099282103E0,7.232767780E0,9.617187220E0
1.392987708E1,2.657063085E0,6.192859772E0,6.056864061E0,9.060744928E0
1.393987908E1,2.704364136E0,5.191618232E0,4.559499722E0,7.419940900E0
1.394988208E1,2.037818390E0,3.599071162E0,2.874135119E0,5.036533500E0
1.395988408E1,9.008471864E-1,2.369846098E0,9.411000037E-1,2.704323464E0
1.396988708E1,-9.842822760E-2,1.558690522E0,-1.086997390E0,1.902831465E0
1.397988908E1,-5.785116760E-1,6.127449310E-1,-2.858083343E0,2.979726918E0
1.398989108E1,-7.374009906E-1,-6.660387933E-1,-4.049927157E0,4.170045308E0
1.399989408E1,-5.925123954E-1,-1.902270575E0,-4.817562491E0,5.213311101E0
1.400989608E1,-2.410245681E-1,-2.878546844E0,-5.339838717E0,6.071079171E0
1.401989908E1,2.522532687E-2,-3.757760502E0,-5.789498956E0,6.902151727E0
1.402990075E1,1.248653899E-1,-4.650473626E0,-6.153179982E0,7.713891379E0
1.403990375E1,-2.229973830E-1,-5.655663207E0,-6.265857582E0,8.443768435E0
1.404990575E1,-8.700300211E-1,-6.385083479E0,-6.346873094E0,9.044835064E0
1.405990875E1,-1.517884851E0,-6.731560242E0,-6.432709050E0,9.433855174E0
1.406991075E1,-2.054574463E0,-6.788121529E0,-6.653726200E0,9.724810665E0
1.407991375E1,-2.322781860E0,-6.677958232E0,-7.008459232E0,9.955347434E0
1.408991575E1,-2.347493655E0,-6.383079638E0,-7.400956507E0,1.005129789E1
1.409991875E1,-2.031612447E0,-5.849822926E0,-8.219048050E0,1.029080309E1
1.410992075E1,-1.502739539E0,-5.120176367E0,-9.252403083E0,1.068088924E1
1.411992375E1,-9.700112692E-1,-4.710692346E0,-9.920072665E0,1.102449028E1
1.412992575E1,-6.798780564E-1,-4.764056375E0,-9.923441831E0,1.102874268E1
1.413992875E1,-7.276342401E-1,-5.062516973E0,-9.525913028E0,1.081210196E1
1.414993075E1,-1.025652642E0,-5.361151818E0,-9.023603874E0,1.054605799E1
1.415993375E1,-1.317575030E0,-5.695711371E0,-8.395184312E0,1.023016381E1
1.416993575E1,-1.561300135E0,-6.062319514E0,-8.097872107E0,1.023547305E1
1.417993775E1,-1.792205804E0,-6.374273146E0,-8.132436168E0,1.048712915E1
1.418994075E1,-1.761331920E0,-6.572689639E0,-8.363756112E0,1.078215913E1
1.419994275E1,-1.256828307E0,-6.483427214E0,-8.940028451E0,1.111478990E1
1.420994575E1,-6.994299030E-1,-6.242303243E0,-9.686943008E0,1.154523351E1
1.421994775E1,-3.424298324E-1,-6.036918624E0,-1.027326086E1,1.192063477E1
1.422995075E1,-5.441383255E-2,-6.019996197E0,-1.055275543E1,1.214923711E1
1.423995275E1,1.606007032E-1,-6.248379085E0,-1.053651421E1,1.225096590E1
1.424995575E1,2.547629302E-1,-6.600245227E0,-1.037177241E1,1.229641428E1
1.425995775E1,3.062451058E-1,-7.010611593E0,-1.003717368E1,1.224693090E1
1.426996075E1,1.915682699E-1,-7.583201939E0,-9.634370107E0,1.226224846E1
1.427996275E1,-1.251186474E-1,-8.100993935E0,-9.473413217E0,1.246544485E1
1.428996575E1,-1.019545737E-1,-8.136219901E0,-9.619074376E0,1.259901031E1
1.429996775E1,4.341881412E-1,-8.059227274E0,-9.879001822E0,1.275673707E1
1.430997075E1,1.021614921E0,-7.948966913E0,-1.031236002E1,1.306041888E1
1.431997275E1,1.384828681E0,-8.042572065E0,-1.058226750E1,1.336357367E1
1.432997575E1,1.028076825E0,-8.266107026E0,-1.007603662E1,1.307333092E1
1.433997775E1,5.588427389E-1,-8.351585718E0,-9.083595137E0,1.235204395E1
1.434998075E1,9.621397474E-1,-8.035891036E0,-8.408559818E0,1.167069560E1
1.435998275E1,1.442254917E0,-7.594742589E0,-7.580027486E0,1.082668144E1
1.436998575E1,1.053728048E0,-7.313559344E0,-6.975238861E0,1.016132128E1
1.437998775E1,4.915192135E-1,-6.455026703E0,-7.278311743E0,9.740779368E0
1.438998975E1,4.148537379E-1,-5.032400304E0,-7.779368423E0,9.274466535E0
1.439999275E1,-4.140018716E-2,-3.839501653E0,-6.522350374E0,7.568655186E0
1.440999475E1,-1.476631429E0,-2.206159728E0,-3.665710124E0,4.526037101E0
1.441999775E1,-3.057124318E0,3.023028034E-1,-6.057423055E-2,3.072631660E0
1.442999975E1,-2.744157363E0,2.575102664E0,4.627201708E0,5.964272714E0
1.444000275E1,-1.191416528E0,5.129368190E0,7.598957262E0,9.245217295E0
1.445000475E1,-3.713864503E-2,8.246325311E0,8.838824843E0,1.208834501E1
1.446000775E1,1.066054856E-1,1.089625245E1,1.156483362E1,1.588977844E1
1.447000975E1,-8.091769880E-2,1.216783592E1,1.422770357E1,1.872138690E1
1.448001275E1,-8.857856360E-1,1.240861958E1,1.553601691E1,1.990292133E1
1.449001475E1,-1.792005829E0,1.183332256E1,1.586081336E1,1.986968063E1
1.450001775E1,-1.575294568E0,1.148691479E1,1.721612778E1,2.075634410E1
1.451001975E1,-1.958901663E-1,1.203063919E1,1.971950792E1,2.310051178E1
1.452002275E1,1.388954915E0,1.270647207E1,2.081857864E1,2.442942579E1
1.453002475E1,3.112697133E0,1.235442642E1,2.162893490E1,2.510242140E1
1.454002775E1,4.256158160E0,1.095075318E1,2.434270253E1,2.702963270E1
1.455002975E1,4.441168157E0,9.644541923E0,2.671363621E1,2.874646975E1
1.456003175E1,3.676464323E0,8.530609335E0,2.669587471E1,2.826583471E1
1.457003475E1,2.237680898E0,7.584750282E0,2.383951921E1,2.511689330E1
1.458003675E1,1.389339662E0,7.783767868E0,1.976614063E1,2.128890843E1
1.459003975E1,1.280223163E0,8.556350532E0,1.507426462E1,1.738055119E1
1.460004175E1,1.104394172E0,8.969566246E0,1.094150289E1,1.419116946E1
1.461004475E1,8.943955149E-1,9.120348396E0,8.488712280E0,1.249155452E1
1.462004675E1,5.166693306E-1,8.797890825E0,6.765925498E0,1.111069656E1
1.463004975E1,2.327229837E-1,8.125914769E0,5.264790874E0,9.685178045E0
1.464005175E1,6.399918596E-1,7.465624373E0,4.975188807E0,8.994311565E0
1.465005475E1,1.586378989E0,6.716980210E0,5.836207100E0,9.038569286E0
1.466005675E1,2.039900144E0,5.823930286E0,6.569966590E0,9.013535243E0
1.467005975E1,1.295859933E0,4.264649779E0,6.649853005E0,8.005437882E0
1.468006175E1,3.740039930E-2,2.744391836E0,5.622392550E0,6.256547236E0
1.469006475E1,-7.773540650E-1,1.440554547E0,4.070090695E0,4.386925462E0
1.470006675E1,-1.133426036E0,4.144331038E-2,2.223839954E0,2.496364611E0
1.471006975E1,-1.251080640E0,-1.259921776E0,4.497181267E-1,1.831625519E0
1.472007175E1,-4.641771946E-1,-2.105291750E0,-6.744149297E-1,2.258882316E0
1.473007475E1,8.929353189E-1,-2.027697444E0,-1.310657482E0,2.574240362E0
1.474007675E1,1.697917405E0,-2.055141935E0,-2.638536183E0,3.750787261E0
1.475007875E1,1.791397718E0,-2.860885913E0,-3.922395290E0,5.174839013E0
1.476008175E1,1.408754026E0,-3.921404772E0,-4.552812846E0,6.171718407E0
1.477008375E1,4.654720605E-1,-4.887402804E0,-5.228605964E0,7.172286298E0
1.478008675E1,-4.895976723E-1,-5.678676093E0,-5.564063065E0,7.965291322E0
1.479008875E1,-1.183534774E0,-6.405769174E0,-5.540836170E0,8.551929533E0
1.480009175E1,-1.491641670E0,-6.794444123E0,-5.574230204E0,8.914118474E0
1.481009375E1,-1.359526902E0,-6.625946664E0,-5.823391757E0,8.925434115E0
1.482009675E1,-1.153618738E0,-6.295504135E0,-6.450800335E0,9.087190626E0
1.483009875E1,-7.947972594E-1,-5.786567162E0,-7.193407248E0,9.266130263E0
1.484010175E1,-4.918933623E-1,-5.256732241E0,-7.652876776E0,9.297403718E0
1.485010375E1,-3.749074609E-1,-4.970698146E0,-8.145188946E0,9.549476353E0
1.486010675E1,-6.760894261E-1,-4.915664152E0,-8.520372030E0,9.859898097E0
1.487010875E1,-1.210367500E0,-5.131816419E0,-8.905745641E0,1.034953307E1
1.488011175E1,-1.690946647E0,-5.480267202E0,-9.211896497E0,1.085134398E1
1.489011375E1,-1.761946170E0,-5.804070802E0,-9.176883370E0,1.100031275E1
1.490011575E1,-1.612629917E0,-6.099731169E0,-8.723707200E0,1.076616751E1
1.491011875E1,-1.553801373E0,-6.293030763E0,-8.003889225E0,1.029945521E1
1.492012075E1,-1.581380935E0,-6.423265212E0,-7.785223825E0,1.021610550E1
1.493012375E1,-1.497473975E0,-6.485759668E0,-8.047469693E0,1.044362366E1
1.494012575E1,-1.344333643E0,-6.623137661E0,-8.050630113E0,1.051122403E1
1.495012875E1,-1.361542730E0,-6.803235996E0,-8.051510119E0,1.062848220E1
1.496013075E1,-1.451270300E0,-6.965957576E0,-8.131501198E0,1.080518682E1
1.497013375E1,-1.400932644E0,-7.182800399E0,-7.949455156E0,1.080504841E1
1.498013575E1,-1.132019415E0,-7.192529581E0,-7.691321050E0,1.059105137E1
1.499013875E1,-6.870145831E-1,-7.023498856E0,-7.534326818E0,1.032315871E1
1.500014075E1,-4.699846492E-1,-6.939407124E0,-7.350452936E0,1.011955608E1
1.501014375E1,-4.862971383E-1,-6.988873399E0,-7.080249592E0,9.960460360E0
1.502014575E1,-6.030367988E-1,-6.879941525E0,-6.986513463E0,9.823880045E0
1.503014875E1,-7.852627165E-1,-6.669279794E0,-7.074500610E0,9.754203677E0
1.504015075E1,-8.313107823E-1,-6.344121979E0,-7.157175561E0,9.600214754E0
1.505015275E1,-5.516907537E-1,-5.936055323E0,-7.491365570E0,9.574010320E0
1.506015575E1,-1.730227291E-1,-5.590349808E0,-7.680757470E0,9.501367436E0
1.507015775E1,-1.277447416E-1,-5.449848817E0,-7.076230216E0,8.932536309E0
1.508016075E1,-2.227475424E-1,-5.529189686E0,-6.048706026E0,8.198072923E0
1.509016275E1,7.910517158E-2,-5.168512959E0,-4.450180762E0,6.820842518E0
1.510016575E1,6.497106629E-1,-4.068225433E0,-2.850318825E0,5.009680581E0
1.511016775E1,1.184158964E0,-3.007915320E0,-2.297196198E0,3.965715244E0
1.512017075E1,7.559619534E-1,-2.119293492E0,-2.097398009E0,3.076030200E0
1.513017275E1,-9.181875430E-1,-1.093098375E0,-1.999488721E0,2.456804341E0
1.514017575E1,-3.092851975E0,-1.612059814E-1,-1.958165864E0,3.664168972E0
1.515017775E1,-4.246736249E0,1.242737394E0,-6.021930456E-1,4.465624421E0
1.516018075E1,-3.697069619E0,4.002990387E0,1.860866441E0,5.758044783E0
1.517018275E1,-2.013927836E0,7.041315907E0,4.737729871E0,8.722506484E0
1.518018475E1,-1.831405318E-1,9.692851619E0,7.054332978E0,1.198951737E1
1.519018775E1,7.509143445E-1,1.139940419E1,8.590346829E0,1.429350716E1
1.520018975E1,9.141251899E-1,1.152402356E1,1.027587808E1,1.546713982E1
1.521019275E1,9.204404752E-1,1.061304373E1,1.271997680E1,1.659161589E1
1.522019475E1,1.181747280E0,9.342503414E0,1.468967922E1,1.744894186E1
1.523019775E1,1.752126210E0,8.212533082E0,1.583912487E1,1.792745165E1
1.524019975E1,2.356437994E0,7.487168439E0,1.635825471E1,1.814395184E1
1.525020275E1,2.984237898E0,7.022723515E0,1.629004577E1,1.798860508E1
1.526020475E1,3.582833444E0,6.509107016E0,1.576679949E1,1.742977727E1
1.527020775E1,3.505738783E0,6.333681191E0,1.482861140E1,1.650131625E1
1.528020975E1,2.012758831E0,5.933802391E0,1.358442448E1,1.495987291E1
1.529021275E1,-6.136254029E-2,5.137287074E0,1.234299979E1,1.336955974E1
1.530021475E1,-1.666647226E0,4.675941174E0,1.034338652E1,1.147291522E1
1.531021675E1,-2.046746211E0,4.628669359E0,1.008542257E1,1.128403733E1
1.532021975E1,-1.779768776E0,5.594592547E0,1.085057751E1,1.233702051E1
1.533022175E1,-1.015118883E0,6.739648111E0,9.448515773E0,1.165022632E1
1.534022475E1,2.754198274E-1,7.443941143E0,8.045300376E0,1.096425893E1
1.535022675E1,1.406046180E0,8.116783172E0,8.090284175E0,1.154607435E1
1.536022975E1,2.011023378E0,8.188420334E0,8.043211166E0,1.165279745E1
1.537023175E1,2.044517545E0,7.819590835E0,7.136859995E0,1.078243124E1
1.538023475E1,1.430510492E0,7.076578710E0,5.130410163E0,8.856942754E0
1.539023675E1,6.957637719E-1,6.070852940E0,3.442172824E0,7.013408330E0
1.540023975E1,1.591124772E-1,4.642830146E0,2.987942986E0,5.523494531E0
1.541024175E1,-4.363718204E-1,3.090090920E0,2.431899090E0,3.956414468E0
1.542024475E1,-7.820532529E-1,1.752219912E0,1.780442668E0,2.617605395E0
1.543024675E1,-1.081408767E0,4.389387846E-1,1.215791670E0,1.685307558E0
1.544024975E1,-1.278968350E0,-1.071194705E0,3.410745209E-1,1.702806497E0
1.545025175E1,-1.465850479E0,-2.356035560E0,-7.182649541E-1,2.866273841E0
1.546025375E1,-1.674000246E0,-3.191575779E0,-1.725626775E0,3.995775337E0
1.547025675E1,-1.701141559E0,-3.742996282E0,-2.930014036E0,5.048651901E0
1.548025875E1,-1.579247871E0,-4.157786066E0,-4.316889973E0,6.198124543E0
1.549026175E1,-1.483591223E0,-4.563018576E0,-5.607699081E0,7.380275769E0
1.550026375E1,-1.304203617E0,-4.747986472E0,-6.827807751E0,8.418033101E0
1.551026675E1,-1.243663447E0,-4.836266565E0,-7.870039442E0,9.320605875E0
1.552026875E1,-1.299421472E0,-5.006578415E0,-8.324210808E0,9.800347400E0
1.553027175E1,-1.527881982E0,-5.432791904E0,-7.753067647E0,9.589562512E0
1.554027375E1,-1.640546279E0,-5.889819050E0,-6.975524206E0,9.275737086E0
1.555027675E1,-1.217074768E0,-5.912322060E0,-6.613958702E0,8.954399636E0
1.556027875E1,-3.770578475E-1,-5.543340533E0,-6.545701815E0,8.585861001E0
1.557028175E1,2.117011653E-1,-5.070645772E0,-6.963005902E0,8.616247276E0
1.558028375E1,5.324120817E-1,-4.585548483E0,-7.576914428E0,8.872448916E0
1.559028575E1,7.455202881E-1,-4.355459962E0,-8.213190309E0,9.326431635E0
1.560028875E1,7.951275540E-1,-4.180839883E0,-8.727456434E0,9.709796381E0
1.561029075E1,7.576917060E-1,-3.886057768E0,-8.956021755E0,9.792132933E0
1.562029375E1,6.041138560E-1,-3.733492802E0,-9.247726480E0,9.991214496E0
1.563029575E1,3.098023326E-1,-3.950649036E0,-9.350836281E0,1.015587241E1
1.564029875E1,6.825100344E-2,-4.464071408E0,-9.020332941E0,1.006474034E1
1.565030075E1,2.301756442E-1,-4.894214226E0,-8.342013826E0,9.674477163E0
1.566030375E1,5.343145464E-1,-5.063104618E0,-7.472486665E0,9.042044977E0
1.567030575E1,8.032419544E-1,-5.200718254E0,-6.653445534E0,8.482983288E0
1.568030875E1,8.882487756E-1,-5.447916312E0,-6.541174901E0,8.558957128E0
1.569031075E1,9.070772485E-1,-5.640042370E0,-7.032691264E0,9.060442234E0
1.570031275E1,7.576981379E-1,-5.653282220E0,-7.809427205E0,9.670618367E0
1.571031575E1,4.099862598E-1,-5.426454107E0,-8.926518459E0,1.045453130E1
1.572031775E1,1.122542979E-1,-5.239740232E0,-9.575757033E0,1.091616240E1
1.573032075E1,-1.622600882E-1,-5.299626830E0,-9.317140532E0,1.072014368E1
1.574032275E1,-3.381458334E-1,-5.651305277E0,-8.404415311E0,1.013339976E1
1.575032575E1,-1.631146953E-1,-5.772273644E0,-7.444698942E0,9.421745685E0
1.576032775E1,2.138466366E-1,-5.655103043E0,-6.551277135E0,8.657086861E0
1.577033075E1,5.745145560E-1,-5.490292253E0,-5.620681654E0,7.878162112E0
1.578033275E1,1.048167346E0,-4.764159286E0,-4.555399654E0,6.674393942E0
1.579033575E1,8.225940455E-1,-3.575257791E0,-3.783111690E0,5.269825737E0
1.580033775E1,-3.329959347E-1,-2.600844446E0,-3.792291818E0,4.610504892E0
1.581034075E1,-1.920923924E0,-2.068508670E0,-3.814018317E0,4.745040839E0
1.582034275E1,-3.471427613E0,-1.391301695E0,-2.977444310E0,4.780345668E0
1.583034475E1,-3.684388762E0,-5.034891218E-1,-1.199981968E0,3.907451672E0
1.584034775E1,-1.957840320E0,5.022875190E-2,1.074317118E0,2.233790258E0
1.585034975E1,-8.405868714E-3,4.679842436E-1,3.273244425E0,3.306540334E0
1.586035275E1,1.471650770E0,2.199552959E0,5.214800688E0,5.847900087E0
1.587035475E1,1.783741667E0,5.373781219E0,6.388253839E0,8.536336804E0
1.588035775E1,1.421475521E0,7.340752990E0,6.441840647E0,9.869374754E0
1.589035975E1,1.328472340E0,6.965148906E0,6.370171325E0,9.531905410E0
1.590036275E1,1.562713991E0,7.041659723E0,7.704234041E0,1.055377984E1
1.591036475E1,2.079781371E0,8.663496666E0,1.045241838E1,1.373443537E1
1.592036775E1,2.791037999E0,9.797091687E0,1.350775696E1,1.691840408E1
1.593036975E1,2.996536054E0,9.478547657E0,1.595869458E1,1.880164958E1
1.594037275E1,2.811062081E0,8.968913112E0,1.756817694E1,1.992446520E1
1.595037475E1,2.738156658E0,9.018445460E0,1.971512484E1,2.185213967E1
1.596037675E1,2.597082347E0,9.023561774E0,2.182521423E1,2.375940824E1
1.597037975E1,2.092954417E0,8.924502339E0,2.182563056E1,2.367245972E1
1.598038175E1,1.507619040E0,8.960635793E0,2.019978652E1,2.214943079E1
1.599038475E1,9.377723533E-1,9.300471289E0,1.796008540E1,2.024704549E1
1.600038675E1,6.315370050E-1,9.721006547E0,1.521947321E1,1.807011821E1
1.601038975E1,1.088569194E0,9.997917817E0,1.281426315E1,1.628952681E1
1.602039175E1,1.836020745E0,9.949750793E0,1.087158071E1,1.485125517E1
1.603039475E1,2.179278908E0,9.538275796E0,9.123717561E0,1.337797383E1
1.604039683E1,2.213796777E0,8.866307341E0,7.586738335E0,1.187732717E1
1.605039983E1,1.891217437E0,7.818984479E0,5.828400482E0,9.933955599E0
1.606040183E1,9.140782660E-1,6.322111890E0,4.771041459E0,7.972921323E0
1.607040383E1,-2.261474608E-1,4.445058601E0,4.752591739E0,6.511283812E0
1.608040683E1,-1.032554696E0,2.763383592E0,4.170244144E0,5.108169368E0
1.609040883E1,-1.599480114E0,1.158407096E0,2.946880329E0,3.547442362E0
1.610041183E1,-2.090887865E0,-3.189784777E-1,1.304774598E0,2.485155143E0
1.611041383E1,-2.421451431E0,-1.427581329E0,-4.567429715E-1,2.847811375E0
1.612041683E1,-1.801053226E0,-2.129896249E0,-1.373202224E0,3.109008700E0
1.613041883E1,-7.626512412E-1,-2.534285590E0,-1.641142110E0,3.114095020E0
1.614042183E1,1.669498292E-1,-3.030869735E0,-2.233128256E0,3.768408869E0
1.615042383E1,8.669582594E-1,-3.726213604E0,-3.018208759E0,4.872973277E0
1.616042683E1,1.261021784E0,-4.633309709E0,-3.879857381E0,6.173413002E0
1.617042883E1,1.258792386E0,-5.463625442E0,-4.701036254E0,7.316795959E0
1.618043083E1,8.545726872E-1,-6.348510899E0,-5.166105661E0,8.229370134E0
1.619043383E1,4.644292461E-1,-7.183768698E0,-5.059740715E0,8.799045592E0
1.620043583E1,1.660118079E-1,-7.354815543E0,-5.238247438E0,9.031063493E0
1.621043883E1,1.593440086E-1,-7.021956945E0,-5.621455241E0,8.996334191E0
1.622044083E1,2.177857596E-1,-6.501768760E0,-6.420342774E0,9.140089112E0
1.623044383E1,1.697755875E-1,-5.970442214E0,-7.472962629E0,9.566617711E0
1.624044583E1,1.479906162E-1,-5.660262042E0,-8.363895276E0,1.010025801E1
1.625044883E1,2.217354076E-1,-5.514566385E0,-8.847817860E0,1.042801467E1
1.626045083E1,3.640835704E-1,-5.569741296E0,-8.659070324E0,1.030213928E1
1.627045383E1,4.142350659E-1,-5.826201929E0,-8.273354065E0,1.012741858E1
1.628045583E1,2.569030842E-1,-6.147960173E0,-7.997154402E0,1.009048522E1
1.629045783E1,9.271769062E-2,-6.305958956E0,-7.761515704E0,1.000074202E1
1.630046083E1,-2.115039131E-1,-6.452391363E0,-7.783254483E0,1.011222718E1
1.631046283E1,-4.642893150E-1,-6.563441098E0,-7.904088364E0,1.028440258E1
1.632046583E1,-4.024224478E-1,-6.513543883E0,-7.829344575E0,1.019248911E1
1.633046783E1,6.092298042E-2,-6.358713121E0,-7.709821056E0,9.993912391E0
1.634047083E1,6.643372536E-1,-6.134226233E0,-7.721496191E0,9.883905043E0
1.635047283E1,6.991266518E-1,-6.131144165E0,-7.804030809E0,9.949000137E0
1.636047583E1,3.759400061E-1,-6.635806239E0,-7.751305881E0,1.021068059E1
1.637047783E1,-8.353456534E-2,-7.274459013E0,-7.606894273E0,1.052566256E1
1.638048083E1,-6.524646284E-1,-7.760867833E0,-7.607552669E0,1.088722358E1
1.639048283E1,-8.984338944E-1,-7.896257772E0,-7.728992906E0,1.108581984E1
1.640048483E1,-6.925472186E-1,-7.619572206E0,-7.883682750E0,1.098589805E1
1.641048783E1,-2.744650137E-1,-7.194446298E0,-8.207561780E0,1.091785047E1
1.642048983E1,3.051388492E-1,-6.715362285E0,-8.748653176E0,1.103304730E1
1.643049283E1,1.262272649E0,-6.309200068E0,-9.008252009E0,1.107013740E1
1.644049483E1,1.947155264E0,-6.170850853E0,-8.819571131E0,1.093872245E1
1.645049783E1,1.713291197E0,-6.587572557E0,-8.381239872E0,1.079706723E1
1.646049983E1,9.663587328E-1,-7.544574063E0,-7.849786441E0,1.093039771E1
1.647050283E1,1.001156610E-1,-8.231030164E0,-6.705666432E0,1.061724272E1
1.648050483E1,-2.092537218E-1,-8.430508511E0,-5.761401331E0,1.021327598E1
1.649050783E1,-5.605228633E-2,-8.180186285E0,-5.734316443E0,9.990043773E0
1.650050983E1,1.682173046E-1,-6.952528861E0,-6.100702391E0,9.251190425E0
1.651051183E1,2.553915424E-1,-4.667467389E0,-6.619776682E0,8.103821320E0
1.652051483E1,1.321321633E-1,-1.724300627E0,-7.258479742E0,7.461648593E0
1.653051683E1,3.051815338E-2,6.609616560E-1,-7.105134172E0,7.135876490E0
1.654051983E1,-9.597152726E-1,1.226448221E0,-5.516615249E0,5.732213573E0
1.655052183E1,-1.841167902E0,1.401672902E0,-1.953899150E0,3.028581856E0
1.656052483E1,-1.531498338E0,2.847011055E0,2.353720062E0,3.998869495E0
1.657052683E1,-4.528984638E-1,5.638182955E0,6.620819825E0,8.708012357E0
1.658052983E1,1.533395321E0,8.606811419E0,9.806138499E0,1.313730780E1
