"Time (s)","Linear Acceleration x (m/s^2)","Linear Acceleration y (m/s^2)","Linear Acceleration z (m/s^2)","Absolute acceleration (m/s^2)"
-1.168374904E-3,-6.441292763E-3,5.707046199E-1,-1.939024419E0,2.021277059E0
8.833625005E-3,-2.438686538E-1,2.765399712E-1,-1.695679091E0,1.735302237E0
1.883562503E-2,-3.509931529E-1,-1.049464113E-1,-9.808330035E-1,1.047016391E0
2.883862506E-2,-4.553051412E-1,-3.855092669E-1,3.465352356E-2,5.975960451E-1
3.884062509E-2,-1.823126757E-1,-3.502458787E-1,2.170774133E0,2.206393080E0
4.884262499E-2,3.088955390E-1,-2.339003205E-2,3.477460186E0,3.491230856E0
5.884462502E-2,5.079131252E-1,4.519114172E-1,2.825207373E0,2.905855532E0
6.884662504E-2,5.718056506E-1,1.078831168E0,1.478055080E0,1.917155500E0
7.884862507E-2,3.344116187E-1,1.721643067E0,1.986878031E-1,1.765039043E0
8.885062509E-2,9.625043213E-2,2.087868217E0,-9.057009602E-1,2.277883242E0
9.885262500E-2,-1.517013323E-1,1.999349850E0,-1.516784697E0,2.514169631E0
1.088556250E-1,-1.037062168E-1,1.603281681E0,-1.332181667E0,2.087097296E0
1.188576251E-1,4.071661842E-1,9.207028690E-1,-1.081130294E0,1.477268014E0
1.288596251E-1,5.786036235E-1,2.217074141E-1,-9.667540777E-1,1.148281227E0
1.388616251E-1,4.181548566E-1,-3.003208897E-1,-6.830021507E-1,8.552999817E-1
1.488636250E-1,6.741781175E-2,-6.611803418E-1,-3.612479997E-1,7.564421478E-1
1.588656250E-1,-4.902393311E-1,-9.037026742E-1,1.299660623E-1,1.036293541E0
1.688676251E-1,-1.001333342E0,-8.957750192E-1,5.368445635E-1,1.446818382E0
1.788696251E-1,-1.436972542E0,-6.907488343E-1,8.855473620E-1,1.823792250E0
1.888726250E-1,-1.594181367E0,-2.950852928E-1,1.545326126E0,2.239759451E0
1.988746250E-1,-1.969371468E0,1.507119834E-2,1.862255740E0,2.710469989E0
2.088766251E-1,-2.060236614E0,1.262314457E-1,1.798329300E0,2.737607999E0
2.188786251E-1,-1.709208963E0,7.614565820E-2,1.559439551E0,2.314961156E0
2.288806251E-1,-1.055368631E0,-1.279367861E-1,1.208079777E0,1.609231965E0
2.388826250E-1,-5.024360383E-1,-1.107088715E0,1.193238959E0,1.703498345E0
2.488846250E-1,-2.020846846E0,-1.107753836E0,2.106996798E0,3.122559214E0
2.588866251E-1,-3.075880724E0,-1.426416856E0,6.218122083E-1,3.447079590E0
2.688886251E-1,-2.815926087E0,-2.237799012E0,-5.400599474E-1,3.637148457E0
2.788916250E-1,-1.674192035E0,-2.762093112E0,-5.659636974E-1,3.279084054E0
2.888936250E-1,7.654806358E-1,-3.013018478E0,2.466513437E-1,3.118505706E0
2.988956250E-1,3.338256985E0,-2.810054021E0,1.060553942E0,4.490560985E0
3.088976251E-1,4.461379057E0,-2.496125199E0,1.443024995E0,5.311954936E0
3.188996251E-1,3.888360110E0,-2.289300118E0,6.290448632E0,7.741445819E0
3.289016250E-1,2.910564150E0,-1.916295999E0,1.470965448E1,1.511679559E1
3.389036250E-1,4.836832868E0,-2.642399730E0,9.935081298E0,1.136147301E1
3.489056251E-1,6.098321990E0,-4.813244323E0,1.106280104E1,1.351822543E1
3.589086251E-1,5.936416097E0,-7.459982979E0,6.004803962E0,1.126721140E1
3.689106250E-1,1.356342655E0,-7.281249969E0,-3.482068377E0,8.184196154E0
3.789126250E-1,5.466240317E-1,-6.133971294E0,-3.896862254E0,7.287656488E0
3.889146250E-1,2.471402586E0,-5.990205803E0,-2.167440051E0,6.832875872E0
3.989166251E-1,3.296685328E0,-5.464164555E0,-5.305913172E0,8.299273644E0
4.089186251E-1,1.800615562E0,-4.419020073E0,-5.731046095E0,7.457536065E0
4.189206250E-1,4.966445173E-1,-4.211040752E0,-2.406722733E0,4.875636810E0
4.289226250E-1,-3.596330718E-1,-5.515580292E0,2.819802207E0,6.205017839E0
4.389246251E-1,-1.015802423E0,-6.674071587E0,2.853547073E0,7.329243959E0
4.489276251E-1,-1.525178521E0,-7.764483166E0,9.837139267E-1,7.973773351E0
4.589296251E-1,-1.360806127E0,-8.847033164E0,1.619855322E0,9.096467467E0
4.689316250E-1,-1.344744702E0,-9.423470979E0,1.580815217E0,9.649306729E0
4.789336250E-1,-4.500067598E-1,-9.022391746E0,1.952885828E0,9.242284456E0
4.889356251E-1,3.419434172E-1,-9.174497706E0,2.043809447E0,9.405609523E0
4.989376251E-1,-4.182718009E-1,-1.089240031E1,2.257592422E-1,1.090276584E1
5.089396250E-1,-5.122119981E-1,-1.130567099E1,2.309235030E-1,1.131962381E1
5.189416250E-1,-2.720773762E-1,-1.128748965E1,1.348642749E0,1.137102836E1
5.289446251E-1,1.025778504E0,-1.187993305E1,1.881029980E0,1.207159081E1
5.389466251E-1,2.912686689E0,-1.290081714E1,1.522916672E0,1.331292988E1
5.489486251E-1,5.194887410E0,-1.245506752E1,1.151653562E0,1.354407133E1
5.589506250E-1,1.150531832E1,-7.696206983E0,6.877873365E0,1.545668443E1
5.689526250E-1,1.500396238E1,-3.251851802E0,1.143052658E1,1.914028122E1
5.789546251E-1,1.399655846E1,-1.822732362E0,1.204581388E1,1.855606731E1
5.889566251E-1,1.493803269E1,-4.064189100E-1,1.023572174E1,1.811297867E1
5.989586251E-1,1.401736636E1,-4.832101008E-1,8.126679000E0,1.620996494E1
6.089616250E-1,8.742995410E0,-3.783656650E0,7.852383775E0,1.234568578E1
6.189636250E-1,7.412160941E0,-4.251181887E0,1.081495628E1,1.378317658E1
6.289656251E-1,8.946587858E0,-2.358134125E0,9.923940014E0,1.356785968E1
6.389676251E-1,1.042655615E1,-1.084445080E0,8.995924909E0,1.381360775E1
6.489696250E-1,1.167203413E1,1.672695440E-1,7.244017823E0,1.373827333E1
6.589716250E-1,1.266086262E1,1.149881271E0,4.061937338E0,1.334612318E1
6.689736251E-1,1.340975879E1,1.520012945E0,1.729448515E0,1.360599362E1
6.789756251E-1,1.361003996E1,2.150931607E0,2.021215221E0,1.392641395E1
6.889776251E-1,1.561353578E1,3.851042302E0,2.752282653E0,1.631527156E1
6.989800001E-1,1.797529986E1,6.758365048E0,2.966276128E0,1.943156446E1
7.089820000E-1,1.873421232E1,9.091375442E0,2.830220191E0,2.101508898E1
7.189840000E-1,1.853161916E1,1.058609859E1,1.298502290E0,2.138159256E1
7.289860001E-1,1.868788717E1,1.259227595E1,-1.077742417E0,2.256023202E1
7.389880001E-1,1.836184993E1,1.405634858E1,-3.307728964E0,2.335978466E1
7.489900001E-1,1.765361295E1,1.450604390E1,-5.420301082E0,2.348307952E1
7.589920000E-1,1.698487508E1,1.444034225E1,-6.712136961E0,2.328223031E1
7.689940000E-1,1.615157435E1,1.408547824E1,-6.503419429E0,2.239572538E1
7.789970001E-1,1.508435224E1,1.334423490E1,-5.853072808E0,2.097295279E1
7.889990001E-1,1.355301207E1,1.235404869E1,-4.841685179E0,1.896703905E1
7.990010000E-1,1.160123838E1,1.126452764E1,-5.084086182E0,1.695070049E1
8.090030000E-1,9.509576492E0,1.026055954E1,-6.222196423E0,1.531100439E1
8.190050001E-1,8.106485056E0,8.613343343E0,-9.052140625E0,1.489449675E1
8.290070001E-1,7.801021832E0,6.373208368E0,-1.501213679E1,1.807866083E1
8.390090001E-1,6.835475789E0,8.614266618E0,-7.070287106E0,1.307357175E1
8.490110000E-1,5.297978500E0,8.273065798E0,-2.544662059E0,1.014827566E1
8.590140000E-1,4.052545247E0,5.594554541E0,-2.240491655E0,7.262366442E0
8.690160001E-1,3.299236468E0,4.502085326E0,-3.320550739E0,6.494597044E0
8.790180001E-1,3.652094883E0,6.583185976E0,-1.593499582E0,7.695152730E0
8.890200000E-1,3.032594956E0,4.869803855E0,-1.166056423E0,5.854170251E0
8.990220000E-1,2.004183451E0,2.549069690E0,-5.606310368E-1,3.290716449E0
9.090240001E-1,-7.058700264E-2,2.512491263E0,1.648443528E0,3.005821175E0
9.190260001E-1,-5.664373219E-2,-3.087867808E-1,-1.752299434E0,1.780199734E0
9.290280001E-1,-1.046864440E0,-4.073228311E0,-3.971853379E0,5.784698203E0
9.390300000E-1,-2.878969012E0,-6.095203085E0,-9.760441339E-1,6.811213209E0
9.490330000E-1,-3.854042509E0,-8.249675766E0,2.519681584E0,9.447729314E0
9.590350001E-1,-2.258417464E0,-9.909968677E0,7.087480259E-1,1.018873164E1
9.690370001E-1,1.061253853E0,-5.939896359E0,-8.199433565E-2,6.034513367E0
9.790390000E-1,3.367753556E0,-4.845570070E-1,-2.509041991E0,4.227511232E0
9.890410000E-1,2.645659261E0,4.409611611E0,-4.175991372E0,6.624431404E0
9.990430000E-1,7.800466347E-1,6.635306886E0,-8.435057645E0,1.076038883E1
1.009045000E0,2.723633051E-2,3.151331148E0,-8.025533863E0,8.622112480E0
1.019047000E0,-1.420602093E0,-1.038156182E0,-7.285658185E0,7.495111323E0
1.029049000E0,-3.274700966E0,-1.119369915E0,-1.199927005E1,1.248836006E1
1.039052000E0,-4.749833023E0,-1.127423285E0,-1.312669275E1,1.400507263E1
1.049054000E0,-1.503727280E0,-8.049226196E0,-8.984911094E0,1.215647422E1
1.059056000E0,2.360912722E-1,-1.452764585E1,-3.828979003E-1,1.453460849E1
1.069058000E0,2.507730460E0,-1.563245620E1,6.391625344E0,1.707381836E1
1.079060000E0,2.463682215E0,-1.424815830E1,1.041055816E1,1.781739224E1
1.089062000E0,2.167096235E0,-1.406356989E1,5.904593795E0,1.540599013E1
1.099064000E0,2.859212440E0,-1.383398365E1,2.002934486E-1,1.412778527E1
1.109066000E0,3.376776395E0,-1.137319814E1,-2.500465002E0,1.212454453E1
1.119069000E0,2.744097721E0,-7.376257868E0,-3.299203139E0,8.533697545E0
1.129071000E0,3.024283431E0,-4.255601798E0,-4.687580057E0,7.016398201E0
1.139073000E0,4.814524863E0,-3.871614853E0,-4.622296479E0,7.715871692E0
1.149075000E0,5.140001936E0,-6.519526754E0,-2.617093273E0,8.704770313E0
1.159077000E0,4.710933836E0,-1.025483979E1,2.323271856E0,1.152181535E1
1.169079000E0,6.991285960E0,-1.237988402E1,5.697022902E0,1.531651650E1
1.179081000E0,9.660319465E0,-1.278219936E1,6.336123573E0,1.722941829E1
1.189083000E0,1.138166140E1,-1.173054722E1,4.373307418E0,1.691962683E1
1.199085000E0,1.246141058E1,-1.007014613E1,-8.184201568E-1,1.604258110E1
1.209088000E0,1.285895693E1,-9.514256603E0,-4.018210689E0,1.649302486E1
1.219090000E0,1.353400160E1,-8.698259532E0,-3.049373249E0,1.637460215E1
1.229092000E0,1.318025792E1,-8.144842206E0,-2.616424352E-1,1.549600304E1
1.239094000E0,1.108184425E1,-7.472028828E0,3.176729699E0,1.373790735E1
1.249096000E0,9.751811433E0,-6.942638295E0,5.659780816E0,1.324126775E1
1.259098000E0,8.419071357E0,-8.276253115E0,7.679281633E0,1.408362505E1
1.269100000E0,6.599522511E0,-6.240273675E0,7.262362878E0,1.162912841E1
1.279102000E0,6.435294689E0,-2.774579256E0,2.952189601E0,7.604388945E0
1.289104000E0,6.781709472E0,-1.038601594E0,1.564945143E0,7.036997224E0
1.299107000E0,5.406303433E0,-7.624547017E-1,2.117402064E0,5.856009348E0
1.309109000E0,2.908831328E0,-7.585487616E-1,3.147338669E0,4.352290962E0
1.319111000E0,2.476836696E0,5.637145659E-1,6.591583747E-1,2.624306364E0
1.329113000E0,3.769918617E0,1.938151429E0,-7.542516428E-1,4.305532822E0
1.339115000E0,1.458120752E0,1.924640268E-2,2.513930263E0,2.906257373E0
1.349117000E0,3.912371993E-1,-4.141357729E-1,1.185672735E0,1.315444723E0
1.359119000E0,-3.630565435E-1,1.396024491E0,-9.659965709E-4,1.442461565E0
1.369121000E0,-1.067246665E0,3.038583966E0,2.209352308E0,3.905540370E0
1.379124000E0,-2.641818810E-1,5.016225736E0,1.097136462E0,5.141597137E0
1.389126000E0,5.899402052E-1,7.720002227E0,-2.018988601E0,8.001423549E0
1.399128000E0,-3.535578001E0,6.740588928E0,3.961184549E0,8.580608016E0
1.409130000E0,-4.215873476E0,7.111749712E0,1.598436971E0,8.420544750E0
1.419132000E0,-9.172439486E-1,8.830264519E0,-5.652591079E0,1.052457571E1
1.429134000E0,-6.868566352E-1,8.153390835E0,3.855831757E0,9.045274605E0
1.439136000E0,-8.487373853E-1,9.645803753E0,9.506350583E0,1.356954629E1
1.449138000E0,-1.143385014E0,1.233420441E1,6.586704830E0,1.402941938E1
1.459140000E0,-2.453098755E0,1.300948648E1,2.594843448E0,1.349065026E1
1.469143000E0,-2.949085314E0,1.290713214E1,1.225166511E0,1.329632269E1
1.479145000E0,-4.039930172E0,1.286877557E1,-5.125189769E-1,1.349774412E1
1.489147000E0,-5.656449072E0,1.360091129E1,-3.730742857E0,1.519534950E1
1.499149000E0,-5.061136445E0,1.395314756E1,-4.775473648E0,1.559200364E1
1.509151000E0,-4.883284611E0,1.307352752E1,-4.658029983E0,1.471260799E1
1.519153000E0,-5.538083301E0,1.130154987E1,-3.973528022E0,1.319789078E1
1.529155000E0,-5.239333851E0,1.108670445E1,-3.942486908E0,1.288056046E1
1.539157000E0,-4.651984547E0,1.291733436E1,-4.948965799E0,1.459420260E1
1.549159000E0,-3.789671681E0,1.408385388E1,-5.680251333E0,1.565189467E1
1.559161000E0,-4.010011724E0,1.385295669E1,-6.005836580E0,1.562224939E1
1.569164000E0,-4.084512852E0,1.369462228E1,-7.244474491E0,1.602212018E1
1.579166000E0,-3.376968768E0,1.448696327E1,-7.015194640E0,1.644654914E1
1.589168000E0,-1.818597504E0,1.634856938E1,-6.536067942E0,1.770037293E1
1.599170000E0,2.598830080E-1,1.771889945E1,-4.784135714E0,1.835524153E1
1.609172000E0,6.689729261E-1,1.624751078E1,-1.908977332E0,1.637294494E1
1.619174000E0,-8.804842579E-1,1.177497904E1,7.811546820E-1,1.183366328E1
1.629176000E0,-6.070737750E0,5.129436017E0,1.333796668E-1,7.948758445E0
1.639178000E0,-9.707185484E0,-1.932615870E-1,1.860429654E0,9.885747243E0
1.649181000E0,-1.248337740E1,-3.873345337E0,1.601102716E0,1.316818307E1
1.659183000E0,-1.517315858E1,-5.086671821E0,-4.038885275E-1,1.600818845E1
1.669185000E0,-1.163244965E1,-1.473141080E0,-5.290943715E0,1.286382971E1
1.679187000E0,-3.308291466E0,4.981650565E0,-1.076580341E1,1.231520028E1
1.689189000E0,-1.940980312E0,6.411494767E0,-6.998019614E0,9.687463457E0
1.699190917E0,-1.767299296E0,1.027745916E1,-8.748035125E0,1.361167265E1
1.709192917E0,-8.125587909E0,2.449255088E0,-4.941992410E0,9.820759560E0
1.719194917E0,-7.105225389E0,1.857888454E-1,-8.723164578E0,1.125221514E1
1.729196917E0,-4.082192093E0,-4.405177667E0,-8.447757797E0,1.036506123E1
1.739199917E0,-5.732638292E0,-9.837244517E0,-5.006642150E0,1.243788515E1
1.749201917E0,-2.013488710E-1,-8.850236853E0,4.374473353E0,9.874373441E0
1.759203917E0,9.123219379E0,-1.030795473E1,5.811361696E0,1.494185354E1
1.769205917E0,1.685548790E1,-6.262898891E0,8.280913931E0,1.979658835E1
1.779207917E0,2.211838661E1,-1.585732725E0,1.021244397E1,2.441375814E1
1.789209917E0,2.474521550E1,-3.188967629E0,4.791033089E0,2.540569233E1
1.799211917E0,2.377643010E1,-1.009057747E1,1.213676147E0,2.585752099E1
1.809213917E0,2.085056758E1,-1.447701715E1,8.837406308E0,2.687805693E1
1.819215917E0,1.914830044E1,-2.113903880E1,1.129911275E1,3.067876008E1
1.829218917E0,1.994414157E1,-2.336276999E1,5.805934310E0,3.126174464E1
1.839220917E0,2.074622051E1,-1.579053919E1,-7.993292901E-1,2.608420443E1
1.849222917E0,1.905065661E1,-6.752389194E0,-6.122880880E0,2.111899494E1
1.859224917E0,1.435543600E1,-3.393552057E0,-6.294028298E0,1.603775329E1
1.869226917E0,9.687433004E0,-2.443881643E0,-4.097618217E0,1.079858281E1
1.879228917E0,6.821550061E0,-2.531278952E0,-1.569903582E0,7.443488135E0
1.889230917E0,5.717957103E0,-3.008537464E0,-6.065936601E-1,6.489552140E0
1.899232917E0,4.529274879E0,-3.487603351E0,-5.060174578E-1,5.738794449E0
1.909234917E0,5.281322706E0,-2.301504280E0,9.184484750E-1,5.833767143E0
1.919237917E0,6.947689705E0,8.745050414E-1,4.225989743E0,8.178883825E0
1.929239917E0,6.720514267E0,3.158102224E0,5.920680070E0,9.497019225E0
1.939241917E0,7.985278707E0,2.137432140E0,7.166990697E0,1.094070600E1
1.949243917E0,1.228536963E1,-1.615842962E0,1.071662716E1,1.638253195E1
1.959245917E0,1.621122764E1,-3.420703602E0,1.294707798E1,2.102693375E1
1.969247917E0,1.564589310E1,-5.218221894E-1,9.024451135E0,1.806950436E1
1.979249917E0,1.405693447E1,3.415080043E0,2.988162256E0,1.477123191E1
1.989251917E0,9.120337871E0,6.155248142E0,1.952922081E0,1.117504126E1
1.999253917E0,2.663599103E0,6.210360489E0,2.153418574E0,7.092288004E0
2.009256917E0,2.539282036E-1,6.814610585E0,6.254720537E-1,6.847964095E0
2.019258917E0,4.081338984E-1,6.065731949E0,1.557395364E0,6.275759529E0
2.029260917E0,-2.255229562E0,4.037557372E0,1.595148497E0,4.892078151E0
2.039262917E0,-4.880649270E0,3.973452008E0,-1.078412215E-1,6.294496635E0
2.049264917E0,-5.337292255E0,3.535692899E0,1.314483607E0,6.535723375E0
2.059266917E0,-5.070937548E0,2.922647129E0,3.049317116E0,6.599591558E0
2.069268917E0,-5.750902655E0,2.533844710E0,3.868391576E0,7.379546310E0
2.079270917E0,-5.591164325E0,1.568833687E0,6.326172781E0,8.587363955E0
2.089272917E0,-5.669353293E0,5.800815073E-1,8.148795508E0,9.943889055E0
2.099274917E0,-5.676450058E0,1.068148890E0,6.691837767E0,8.839893666E0
2.109277917E0,-4.785904496E0,2.644806152E0,4.508854063E0,7.087287661E0
2.119279917E0,-6.661114742E0,1.591926388E0,4.802587480E0,8.364778881E0
2.129281917E0,-9.310706255E0,-1.515148354E0,4.612259148E0,1.050037428E1
2.139283917E0,-1.131447338E1,-6.374004174E0,4.291016044E0,1.367691690E1
2.149285917E0,-1.311081756E1,-1.101714715E1,6.347330346E0,1.826361604E1
2.159287917E0,-1.500862612E1,-1.336535270E1,7.946518684E0,2.161107748E1
2.169289917E0,-1.697691819E1,-1.395946957E1,8.535765409E0,2.357841880E1
2.179291917E0,-1.854772590E1,-1.310983405E1,8.865202217E0,2.438191328E1
2.189293917E0,-1.953581998E1,-1.341011080E1,6.001781536E0,2.444382775E1
2.199296917E0,-1.811948986E1,-1.307434029E1,1.447188505E0,2.239081600E1
2.209298917E0,-1.616241976E1,-1.182169712E1,-1.452738098E0,2.007702128E1
2.219300917E0,-1.307399647E1,-8.563277144E0,-5.015709427E-1,1.563683704E1
2.229302917E0,-1.145812544E1,-6.252241756E0,2.330533806E0,1.325935720E1
2.239304917E0,-1.187218432E1,-6.023078265E0,5.624406331E0,1.445199567E1
2.249306917E0,-1.264034123E1,-7.126653095E0,8.216280563E0,1.667557126E1
2.259308917E0,-1.226645038E1,-8.093238773E0,7.233154281E0,1.637940291E1
2.269310917E0,-1.093500546E1,-7.767503253E0,4.589450330E0,1.417644192E1
2.279312917E0,-9.977307551E0,-6.652359706E0,2.321733015E0,1.221437677E1
2.289314917E0,-8.777762954E0,-5.285153802E0,7.546090539E-1,1.027382149E1
2.299317917E0,-6.764887617E0,-3.699683032E0,-3.289759739E-1,7.717485614E0
2.309319917E0,-4.199487823E0,-2.393471773E0,-8.521416342E-1,4.908212554E0
2.319321917E0,-2.886070456E0,-1.584800679E0,-9.960954058E-1,3.439942140E0
2.329323917E0,-3.422472385E0,-9.254377981E-1,-1.313713821E0,3.780951778E0
2.339325917E0,-3.351935084E0,-9.118560317E-1,-8.994099408E-1,3.588298827E0
2.349327917E0,-2.939491788E0,-8.933797073E-1,-2.337641535E-1,3.081133712E0
2.359329917E0,-2.076204191E0,-8.162121020E-1,6.856912120E-1,2.333880562E0
2.369331917E0,-2.194921964E-1,-8.930918051E-1,1.760104297E0,1.985889457E0
2.379334917E0,3.273830316E0,-1.462182374E0,4.186928589E0,5.512378184E0
2.389336917E0,1.029898978E1,-2.927769874E0,9.371490986E0,1.422905022E1
2.399338917E0,1.510992562E1,-6.197981349E0,1.508851312E1,2.223483873E1
2.409340917E0,1.266672503E1,-1.012661737E1,1.562686743E1,2.252095221E1
2.419342917E0,2.148768020E1,-1.412077671E1,1.876505755E1,3.183149573E1
2.429344917E0,3.819052536E1,-1.044249332E1,2.092002315E1,4.477956300E1
2.439346917E0,3.965459566E1,-7.486293111E0,2.362439313E1,4.676155998E1
2.449348917E0,2.246010491E1,-9.967532176E0,6.973138542E0,2.554276162E1
2.459350917E0,2.651714170E1,-6.323521653E0,1.277959969E1,3.010753889E1
2.469353917E0,3.824157623E1,-4.828721318E0,2.622519256E1,4.662076176E1
2.479355917E0,3.941852251E1,-2.625671139E0,2.486261355E1,4.667829923E1
2.489357917E0,4.367419155E1,-5.819850683E-1,2.530672596E1,5.047973943E1
2.499359917E0,4.000835220E1,-5.860734415E0,1.443366940E1,4.293422023E1
2.509361917E0,3.327019864E1,-1.875086870E0,5.330629937E0,3.374666923E1
2.519363917E0,2.223517889E1,-3.381992404E0,1.237669027E0,2.252493902E1
2.529365917E0,1.228430076E1,-3.745664074E0,2.433148055E0,1.307112290E1
2.539367917E0,6.050536789E0,-3.311634904E0,4.066376544E0,8.006955687E0
2.549369917E0,2.196988370E0,-2.676232305E0,4.322612643E0,5.538407471E0
2.559371917E0,-8.634606743E-1,-1.678660769E0,1.945704862E0,2.710947017E0
2.569374917E0,-2.815048420E0,-6.817099160E-1,-6.525574529E-1,2.969016209E0
2.579376917E0,-4.493523833E0,1.867708853E-1,-1.720140917E0,4.815134949E0
2.589378917E0,-6.138768935E0,8.639831230E-1,-3.551297071E0,7.144414725E0
2.599380917E0,-7.145707417E0,1.570724677E0,-6.220049325E0,9.602985167E0
2.609382917E0,-7.035380983E0,1.952228016E0,-8.402235469E0,1.113127759E1
2.619384917E0,-6.880138577E0,2.228300941E0,-8.780001268E0,1.137497491E1
2.629386917E0,-7.226031203E0,2.196709604E0,-7.769107729E0,1.083513244E1
2.639388917E0,-7.526155919E0,2.095561544E0,-7.755149256E0,1.100803075E1
2.649390917E0,-8.362754484E0,1.650400153E0,-8.714545197E0,1.219027404E1
2.659393917E0,-9.478176944E0,1.440346386E0,-8.642661282E0,1.290759582E1
2.669395917E0,-9.893774228E0,9.399158695E-1,-8.955857449E0,1.337825074E1
2.679397917E0,-9.692252280E0,1.059491722E0,-7.896657722E0,1.254669200E1
2.689399917E0,-9.476660176E0,7.748395430E-1,-7.745240564E0,1.226361349E1
2.699402375E0,-9.210678522E0,-2.312183672E-1,-8.485491049E0,1.252571831E1
2.709404375E0,-9.215036452E0,-1.630500470E0,-9.770607308E0,1.352923485E1
2.719406375E0,-9.885303952E0,-3.830006944E0,-1.138794131E1,1.555870800E1
2.729408375E0,-1.071464378E1,-5.510732365E0,-1.202359563E1,1.702171009E1
2.739410375E0,-1.107158589E1,-5.540655491E0,-1.143504648E1,1.685346153E1
2.749412375E0,-1.090530862E1,-4.662566838E0,-1.140944269E1,1.645723756E1
2.759415375E0,-1.064263883E1,-3.793306895E0,-1.183598070E1,1.636292693E1
2.769417375E0,-1.028763566E1,-2.981639395E0,-1.128519521E1,1.555896050E1
2.779419375E0,-9.426434932E0,-2.118332649E0,-9.727160157E0,1.370994725E1
2.789421375E0,-8.077417377E0,-1.526782266E0,-8.769579776E0,1.202003598E1
2.799423375E0,-7.151704906E0,-7.370317389E-1,-8.765059294E0,1.133650578E1
2.809425375E0,-6.242390952E0,-7.460421520E-1,-9.221337411E0,1.116051465E1
2.819427375E0,-5.983693174E0,-8.393900263E-1,-8.065137055E0,1.007747961E1
2.829429375E0,-6.624367915E0,-8.862987292E-1,-7.247023877E0,9.858353351E0
2.839431375E0,-7.486065069E0,-7.545313590E-1,-7.431072006E0,1.057503281E1
2.849433375E0,-7.339311066E0,-1.463929668E0,-8.221250696E0,1.111744305E1
2.859436375E0,-6.698729296E0,-2.415415789E0,-9.054844378E0,1.151943637E1
2.869438375E0,-6.725984922E0,-2.327462117E0,-7.724600478E0,1.050359013E1
2.879440375E0,-6.478858784E0,-2.264827182E0,-5.040565356E0,8.515418511E0
2.889442375E0,-6.181147799E0,-2.093477012E0,-1.368811550E0,6.668049128E0
2.899444375E0,-5.923314241E0,-1.522721375E0,-7.709729254E-1,6.164311091E0
2.909446375E0,-5.502698876E0,-8.319479826E-1,-9.904942118E-2,5.566115625E0
2.919448375E0,-6.103305572E0,4.600413859E-1,4.791709027E0,7.773188045E0
2.929450375E0,-8.392949506E0,2.673676195E0,1.112488677E1,1.418989963E1
2.939452375E0,-9.692696083E0,3.551375716E0,8.992842257E0,1.369057481E1
2.949455375E0,-9.650348793E0,2.916747288E0,4.160589806E0,1.090628966E1
2.959457375E0,-9.137276085E0,2.514790096E0,2.262369597E0,9.743320772E0
2.969459375E0,-8.995453039E0,2.501629768E0,1.958509826E0,9.540025556E0
2.979461375E0,-8.894462269E0,2.774077565E0,2.044842650E0,9.538781204E0
2.989463375E0,-8.593566306E0,2.969796737E0,1.611770815E0,9.234006696E0
2.999465375E0,-7.213497112E0,3.166939706E0,1.717468740E0,8.063110228E0
3.009467375E0,-4.892401589E0,2.534836690E0,1.755134164E0,5.782861427E0
3.019469375E0,5.186444616E0,-3.393194792E-1,-4.615086716E-2,5.197737524E0
3.029471375E0,4.017775774E1,-2.181112888E0,3.967615317E0,4.043205957E1
3.039473375E0,6.604233613E1,1.498386433E0,5.752090809E0,6.630928949E1
3.049476375E0,6.442086113E1,-2.109857841E1,-1.550421624E1,6.953832095E1
3.059478375E0,6.344974620E1,-5.221169709E1,-3.799852619E1,9.053076603E1
3.069480375E0,7.028153473E1,-2.448270826E1,-1.900635460E1,7.681235996E1
3.079482375E0,5.252134224E1,-6.188691877E0,-1.007400179E1,5.383564628E1
3.089484375E0,2.714215759E1,-7.104015600E0,-9.908552481E0,2.975471675E1
3.099486375E0,1.317232559E1,-5.838405653E0,-6.737429677E0,1.590566253E1
3.109488375E0,7.266846523E0,-4.430585573E0,-4.481846943E0,9.618944793E0
3.119490375E0,4.930905504E0,-2.532848052E0,-3.103669616E0,6.353102662E0
3.129492375E0,5.621783854E0,9.263977647E-2,-2.131935173E0,6.013167503E0
3.139495375E0,5.860737339E0,1.780039502E0,-1.753143772E0,6.371051394E0
3.149497375E0,5.209275654E0,4.299913460E0,9.034299016E-1,6.814836329E0
3.159499375E0,3.883790218E0,6.741664231E0,1.347752802E0,7.896220658E0
3.169501375E0,2.644862285E0,5.288197278E0,-1.644083260E0,6.137046254E0
3.179503375E0,2.021058515E0,2.787622640E0,-2.284283207E0,4.132005237E0
3.189505375E0,4.250475544E-1,6.341460326E-1,-1.505186745E0,1.687718505E0
3.199507375E0,-1.832080014E0,-8.014584075E-1,-7.765979469E-2,2.001220577E0
3.209509375E0,-3.982036890E0,-1.666685672E0,1.386939088E0,4.534099575E0
3.219511375E0,-5.783067604E0,-1.983633996E0,2.031703956E0,6.442553508E0
3.229513375E0,-7.163086511E0,-1.795923902E0,2.611264184E0,7.832869951E0
3.239516375E0,-9.094111354E0,-1.331898954E0,2.693601167E0,9.577698230E0
3.249518375E0,-1.089827442E1,-7.852381582E-1,2.683181428E0,1.125115314E1
3.259520375E0,-1.073479329E1,-2.307857280E-1,4.818234921E0,1.176879079E1
3.269522375E0,-1.046787725E1,3.569870605E-1,6.331676180E0,1.223903661E1
3.279524375E0,-8.923089652E0,9.809363531E-1,8.146841953E0,1.212249145E1
3.289526375E0,-8.013375163E0,1.282043255E0,1.042983994E1,1.321511928E1
3.299528375E0,-7.392876824E0,1.373169772E0,1.333890925E1,1.531230626E1
3.309530375E0,-6.959339697E0,1.361181518E0,1.648044047E1,1.794129711E1
3.319532375E0,-6.823871405E0,1.277865711E0,1.960962470E1,2.080229657E1
3.329535375E0,-7.023744439E0,1.339342460E0,2.053869113E1,2.174775064E1
3.339537375E0,-6.773492380E0,1.544576806E0,1.792506175E1,1.922430117E1
3.349539375E0,-6.079810874E0,1.968813936E0,1.534575085E1,1.662324871E1
3.359541375E0,-5.595837420E0,2.174363739E0,1.365913319E1,1.492022699E1
3.369543375E0,-5.398124347E0,2.063009218E0,1.253842777E1,1.380608288E1
3.379545375E0,-5.395131158E0,1.870129015E0,1.159451642E1,1.292430400E1
3.389547375E0,-5.685341919E0,1.545383137E0,1.047030267E1,1.201409838E1
3.399549375E0,-6.111681123E0,1.275994310E0,9.456776134E0,1.133187639E1
3.409551375E0,-6.290154517E0,1.205131830E0,8.716426247E0,1.081639834E1
3.419553375E0,-6.311592164E0,1.212823477E0,8.061702985E0,1.031010143E1
3.429556375E0,-6.300457896E0,1.277191527E0,7.549209151E0,9.915520496E0
3.439558375E0,-6.164245838E0,1.428271301E0,7.330288813E0,9.683543759E0
3.449560375E0,-6.047060620E0,1.522015178E0,7.217785460E0,9.538338392E0
3.459562375E0,-5.997642292E0,1.521772226E0,7.247439614E0,9.529579462E0
3.469564375E0,-5.974242319E0,1.409486536E0,7.326434328E0,9.557973820E0
3.479566375E0,-5.902751922E0,1.248859136E0,7.270001096E0,9.447488837E0
3.489568375E0,-5.858384419E0,1.167063168E0,7.050027089E0,9.240432154E0
3.499570375E0,-5.765586768E0,1.152213432E0,6.786189024E0,8.978972549E0
3.509572375E0,-5.664210666E0,1.161152802E0,6.538244276E0,8.728126747E0
3.519574375E0,-5.589555171E0,1.223143228E0,6.381576319E0,8.571098102E0
3.529577375E0,-5.538313681E0,1.269105998E0,6.232684574E0,8.433854721E0
3.539579375E0,-5.287090985E0,1.366027398E0,6.276085532E0,8.319171325E0
3.549581375E0,-4.886274877E0,1.353085755E0,6.690425080E0,8.394540546E0
3.559583375E0,-4.188834196E0,1.355938904E0,7.163175389E0,8.408090383E0
3.569585375E0,-3.239396063E0,1.311827656E0,7.923528017E0,8.660073607E0
3.579587375E0,-1.965645622E0,1.195489260E0,8.777879314E0,9.074366233E0
3.589589375E0,2.322133988E-1,9.221246195E-1,9.339026075E0,9.387312976E0
3.599591375E0,3.484782069E0,2.429195045E-1,9.054969508E0,9.705420586E0
3.609593375E0,8.542450531E0,-1.245425944E0,5.219169143E0,1.008782798E1
3.619595375E0,1.849125817E1,-4.590526217E0,-1.057502865E0,1.908187286E1
3.629598375E0,3.196535271E1,-9.308606520E0,-7.258652819E0,3.407523983E1
3.639600375E0,3.998996856E1,-1.620506000E1,-2.793212812E1,5.140044101E1
3.649602375E0,4.536066420E1,-1.759489638E1,-8.218754637E1,9.550896824E1
3.659604375E0,3.886586240E1,-5.445614263E0,-5.165911650E1,6.487583751E1
3.669606375E0,1.155947757E1,-1.050875981E1,-2.596357176E1,3.030119821E1
3.679608375E0,-1.405681168E0,-1.190773305E1,-2.297389975E1,2.591466989E1
3.689610375E0,3.781822379E0,-6.407501119E0,-1.896585795E1,2.037307093E1
3.699612042E0,1.089916320E1,-3.396462216E0,-1.225265329E1,1.674679750E1
3.709614042E0,1.213138438E1,-4.626694754E0,-6.679404833E0,1.460106983E1
3.719617042E0,1.558816705E1,-4.513250585E0,-5.303983591E0,1.707315509E1
3.729619042E0,1.677034542E1,-3.907838062E0,-3.794002129E0,1.763264404E1
3.739621042E0,1.628848105E1,-2.121840832E0,-3.522628173E0,1.679957538E1
3.749623042E0,1.446356037E1,-6.424720292E-1,-4.588800704E0,1.518764106E1
3.759625042E0,1.137334666E1,-6.405887872E-2,-5.185966898E0,1.250005482E1
3.769627042E0,8.018410785E0,5.860386506E-2,-5.342426695E0,9.635344774E0
3.779629042E0,5.107738754E0,-1.923251554E-2,-5.290948393E0,7.354148487E0
3.789631042E0,2.935286470E0,6.627643526E-2,-4.901420335E0,5.713512101E0
3.799633042E0,1.011915632E0,3.357518005E-1,-3.702421283E0,3.852872419E0
3.809635042E0,-1.044764121E0,5.747532320E-1,-1.064512507E0,1.598455574E0
3.819638042E0,-3.242381067E0,6.854253099E-1,2.088710216E0,3.917340067E0
3.829640042E0,-4.789539126E0,9.172168321E-1,3.956167054E0,6.279508700E0
3.839642042E0,-5.979523525E0,9.848989380E-1,5.194006235E0,7.981380098E0
3.849644042E0,-6.673876290E0,9.516976435E-1,6.179951459E0,9.145389723E0
3.859646042E0,-7.190702911E0,7.743355861E-1,6.525777428E0,9.741230671E0
3.869648042E0,-8.655478964E0,6.728730190E-1,2.732271727E0,9.101394563E0
3.879650042E0,-9.077499415E0,-4.177675151E-1,2.418821792E0,9.403521903E0
3.889652042E0,-6.634297657E0,-1.401990259E0,1.015312280E1,1.220923358E1
3.899654042E0,-5.330708874E0,-1.825650708E0,1.481146386E1,1.584704765E1
3.909656042E0,-4.925210316E0,-1.765001487E0,1.870413658E1,1.942209186E1
3.919659042E0,-4.947788755E0,-1.432918814E0,2.172490876E1,2.232723741E1
3.929661042E0,-4.354137906E0,-1.575791143E0,2.421026075E1,2.464910466E1
3.939663042E0,-2.574588693E0,-2.284650266E0,2.494410971E1,2.518048337E1
3.949665042E0,-6.788813254E-1,-2.705960719E0,2.279175430E1,2.296186333E1
3.959667042E0,7.114225423E-1,-2.324632942E0,1.987148173E1,2.001963602E1
3.969669042E0,1.351620736E0,-1.611877673E0,1.707002692E1,1.719915251E1
3.979671042E0,6.909727827E-1,-8.987065208E-1,1.383448417E1,1.388085260E1
3.989673042E0,-5.160436785E-1,-2.062631268E-1,1.105320225E1,1.106716429E1
3.999675042E0,-1.671473372E0,4.545773456E-1,9.132487800E0,9.295310496E0
4.009677042E0,-2.831887817E0,1.133901853E0,7.624092103E0,8.211705208E0
4.019680042E0,-4.167658505E0,1.575294130E0,6.336950369E0,7.746474617E0
4.029682042E0,-5.489751386E0,1.485786122E0,5.323632574E0,7.790121595E0
4.039684042E0,-6.766407309E0,7.528126431E-1,4.385307659E0,8.098266358E0
4.049686042E0,-7.806232286E0,-5.861041394E-1,3.712004870E0,8.663703638E0
4.059688042E0,-8.300901468E0,-2.015254715E0,3.328246259E0,9.167520925E0
4.069690042E0,-8.450180299E0,-2.767025531E0,3.040428178E0,9.397136845E0
4.079692042E0,-8.274394285E0,-2.572946795E0,2.743322380E0,9.089085415E0
4.089694042E0,-7.694510706E0,-1.340622123E0,3.002460453E0,8.367647904E0
4.099696042E0,-6.962380250E0,-1.796934155E-1,4.392452372E0,8.234116000E0
4.109698042E0,-6.607425023E0,2.631087890E-1,6.039740490E0,8.955766682E0
4.119701042E0,-6.425093052E0,4.469728955E-1,6.976066827E0,9.494583396E0
4.129703042E0,-6.086436939E0,4.884133919E-1,7.108733134E0,9.371091133E0
4.139705042E0,-5.357333001E0,5.028784532E-1,6.887794921E0,8.740458941E0
4.149707042E0,-4.624075202E0,8.289578627E-1,6.989824156E0,8.421810040E0
4.159709042E0,-3.791905902E0,7.863731758E-1,6.654184622E0,7.699032805E0
4.169711042E0,-2.495260103E0,8.311197245E-1,6.383359720E0,6.903938317E0
4.179713042E0,-2.578236187E-1,1.071641432E0,6.181109793E0,6.278615026E0
4.189715042E0,2.761577387E0,1.399604888E0,5.272931952E0,6.114655745E0
4.199717042E0,6.870578379E0,1.955860599E0,3.410368064E0,7.915860552E0
4.209720042E0,1.220395066E1,1.703546519E0,-1.174632534E0,1.237813573E1
4.219722042E0,1.809535840E1,-1.067666933E0,-8.285464818E0,1.993065066E1
4.229724042E0,2.489130935E1,-4.620519510E0,-1.372600662E1,2.879808569E1
4.239726042E0,3.087958323E1,-7.987843296E0,-2.306354458E1,3.936091195E1
4.249728042E0,3.488632695E1,-6.742845368E0,-4.510062215E1,5.741592018E1
4.259730042E0,2.704690411E1,-2.020466046E0,-5.127877150E1,5.800973807E1
4.269732042E0,7.531331289E0,-3.405735900E0,-4.135369361E1,4.217164881E1
4.279734042E0,1.085732988E1,-4.461505942E-2,-3.194787421E1,3.374241054E1
4.289736042E0,2.011772435E1,3.025252315E0,-1.653845654E1,2.621822895E1
4.299739042E0,1.961934277E1,3.632341234E0,-6.076223023E0,2.085744471E1
4.309741042E0,1.788793544E1,2.741124119E0,-2.602086979E0,1.828285679E1
4.319743042E0,1.649540232E1,2.051162320E-1,-3.528613967E0,1.686983957E1
4.329745042E0,1.513360451E1,-2.285333659E0,-5.339351644E0,1.620979368E1
4.339747042E0,1.358931041E1,-3.299751900E0,-6.522750909E0,1.543061890E1
4.349749042E0,1.082520411E1,-2.673166902E0,-7.422183654E0,1.339476299E1
4.359751042E0,7.781243625E0,-8.938194910E-1,-7.681162097E0,1.097027424E1
4.369753042E0,5.714002631E0,1.246697567E0,-6.862359533E0,9.016432734E0
4.379755042E0,3.823674409E0,2.716436006E0,-5.259420791E0,7.047057373E0
4.389757042E0,1.651560094E0,3.030996619E0,-3.353884546E0,4.812809242E0
4.399760042E0,-6.586549294E-1,2.328258362E0,-9.493515944E-1,2.599207911E0
4.409762042E0,-2.848721951E0,1.164253800E0,1.365082195E0,3.366623392E0
4.419764042E0,-4.646625574E0,1.618970492E-1,3.091091963E0,5.583206014E0
4.429766042E0,-5.901670772E0,-2.361472959E-1,4.804877542E0,7.613956372E0
4.439768042E0,-6.699475400E0,-4.286340903E-1,6.126966915E0,9.088807479E0
4.449770042E0,-7.819342328E0,-6.953039615E-1,5.083165246E0,9.352225990E0
4.459772042E0,-7.894928116E0,-9.264560176E-1,6.087574223E0,1.001233093E1
4.469774042E0,-8.058030934E0,-1.118198059E0,7.997095930E0,1.140770673E1
4.479776042E0,-8.647543123E0,-1.449477252E0,1.066729888E1,1.380841235E1
4.489778042E0,-8.710225275E0,-1.665642821E0,1.337573502E1,1.604844782E1
4.499781042E0,-6.527702916E0,-9.394554743E-1,1.585919953E1,1.717578795E1
4.509783042E0,-3.056420898E0,3.040132967E-1,1.841068471E1,1.866513981E1
4.519785042E0,-1.572000539E0,4.763895796E-1,2.020785567E1,2.027450526E1
4.529787042E0,-1.570803030E0,-1.353812235E-1,2.082409607E1,2.088369525E1
4.539789042E0,-1.889044466E0,-8.111039744E-1,2.064583318E1,2.074793499E1
4.549791042E0,-2.210898896E0,-1.663513119E0,1.931493205E1,1.951209753E1
4.559793042E0,-2.695029057E0,-1.990997833E0,1.737004170E1,1.769026859E1
4.569795042E0,-3.413034979E0,-1.780066107E0,1.526240580E1,1.574034542E1
4.579797042E0,-4.218085477E0,-1.701123579E0,1.330849087E1,1.406420974E1
4.589799042E0,-4.886932104E0,-1.739446377E0,1.162868755E1,1.273319101E1
4.599802042E0,-5.348178016E0,-1.709407914E0,1.027544772E1,1.170939407E1
4.609804042E0,-5.529479123E0,-1.383351382E0,9.303487283E0,1.091071382E1
4.619806042E0,-5.577040375E0,-9.120682856E-1,8.547767404E0,1.024693005E1
4.629808042E0,-5.514051830E0,-3.755513855E-1,7.769944466E0,9.535084867E0
4.639810042E0,-5.542366971E0,1.678774352E-1,6.846087901E0,8.809933826E0
4.649812042E0,-5.678333446E0,6.463874710E-1,5.899524844E0,8.213749501E0
4.659814042E0,-5.937016606E0,1.012355635E0,4.988089519E0,7.820106595E0
4.669816042E0,-6.329503940E0,1.284874476E0,4.185200152E0,7.696065414E0
4.679818042E0,-6.803770432E0,1.351123430E0,3.669202082E0,7.847284277E0
4.689820042E0,-7.022455128E0,1.371399381E0,3.455285790E0,7.945729178E0
4.699823042E0,-6.947515458E0,1.401772597E0,3.552334367E0,7.927926394E0
4.709825167E0,-6.827638766E0,1.448548275E0,3.611726291E0,7.858721908E0
4.719827167E0,-6.809666179E0,1.446862231E0,3.464615023E0,7.776150786E0
4.729829167E0,-6.858242508E0,1.368553687E0,3.374018263E0,7.764819942E0
4.739831167E0,-6.641831210E0,1.151509282E0,3.634520491E0,7.658304946E0
4.749833167E0,-5.961186656E0,7.022052108E-1,3.778189504E0,7.092499872E0
4.759835167E0,-5.008407424E0,4.078345209E-2,3.697241235E0,6.225383600E0
4.769837167E0,-3.843917470E0,-4.115320808E-1,3.785013789E0,5.410304017E0
4.779839167E0,-2.411796947E0,-4.114359672E-1,4.204061515E0,4.864172827E0
4.789841167E0,-3.217167288E-1,-5.052134657E-1,4.996883731E0,5.032652315E0
4.799844167E0,3.181807421E0,-1.069838151E0,5.670253179E0,6.589402344E0
4.809846167E0,9.588255456E0,-2.606935783E0,5.413246416E0,1.131521072E1
4.819848167E0,2.047171245E1,-5.231712005E0,1.449466288E0,2.117930059E1
4.829850167E0,3.351458419E1,-7.610746418E0,-1.102536950E1,3.609306841E1
4.839852167E0,4.565409619E1,-5.814552521E0,-4.194276083E1,6.226797497E1
4.849854167E0,4.939813854E1,1.186874119E0,-4.589880919E1,6.744097750E1
4.859856167E0,2.950451458E1,-6.672118617E0,-3.106386876E1,4.335893783E1
4.869858167E0,9.926547872E0,-1.003577269E1,-2.292231795E1,2.691998786E1
4.879860167E0,-4.965104699E-2,-6.814816407E0,-2.356456208E1,2.453024203E1
4.889863167E0,9.279636490E-1,-9.042499736E-1,-2.243713003E1,2.247450975E1
4.899865167E0,1.024493695E1,1.617392621E0,-1.771120452E1,2.052465487E1
4.909867167E0,1.591777226E1,-1.252007131E0,-1.680466624E1,2.318059108E1
4.919869167E0,1.704587324E1,-3.250066647E0,-1.606836028E1,2.364988224E1
4.929871167E0,1.593589629E1,-3.336987262E0,-1.451687879E1,2.181348309E1
4.939873167E0,1.387357865E1,-2.759745747E0,-1.217722888E1,1.866486765E1
4.949875167E0,1.144539020E1,-1.765549809E0,-9.092678202E0,1.472382151E1
4.959877167E0,8.853034746E0,-9.498532125E-1,-6.254371312E0,1.088097449E1
4.969879167E0,6.408540754E0,-3.906989631E-1,-4.074151002E0,7.603995440E0
4.979881167E0,4.038050292E0,-7.292091876E-2,-2.002850870E0,4.508057146E0
4.989884167E0,1.743340915E0,1.845896546E-2,6.433662146E-1,1.858359052E0
4.999886167E0,-5.037844062E-1,-1.320108153E-1,3.428824216E0,3.468149519E0
5.009888167E0,-2.596329811E0,-3.392581565E-1,5.795136257E0,6.359216054E0
5.019890167E0,-4.155220892E0,-5.305161220E-1,7.621007697E0,8.696382371E0
5.029892167E0,-5.235480536E0,-6.955510794E-1,8.542537070E0,1.004335538E1
5.039894167E0,-6.010797942E0,-8.970766825E-1,9.158369915E0,1.099136834E1
5.049896167E0,-6.535442875E0,-9.564579349E-1,9.105552601E0,1.124890721E1
5.059898167E0,-6.928247128E0,-7.648555684E-1,5.480815671E0,8.867071260E0
5.069900167E0,-7.457685608E0,-4.170348955E-1,1.283003660E0,7.578726221E0
5.079902167E0,-6.274873404E0,-1.503513857E0,1.180321290E1,1.345178148E1
5.089905167E0,-6.251623705E0,-1.783012957E0,1.321579613E1,1.472817712E1
5.099907167E0,-6.276097226E0,-1.862448405E0,1.229785577E1,1.393181134E1
5.109909167E0,-5.734680140E0,-2.456507682E0,1.418972591E1,1.550062281E1
5.119911167E0,-5.135280894E0,-3.103271129E0,1.658411511E1,1.763616385E1
5.129913167E0,-5.044887033E0,-3.552329982E0,1.673494637E1,1.783615327E1
5.139915167E0,-4.980610346E0,-3.837982254E0,1.674661274E1,1.788814203E1
5.149917167E0,-4.895226964E0,-4.039737214E0,1.688859717E1,1.804182469E1
5.159919167E0,-4.893888244E0,-4.306948537E0,1.676261306E1,1.798569277E1
5.169921167E0,-4.776977260E0,-4.400213381E0,1.656521808E1,1.779291543E1
5.179923167E0,-4.620425954E0,-4.215388449E0,1.611792713E1,1.728888113E1
5.189925167E0,-4.665448638E0,-3.811080092E0,1.531952375E1,1.646142613E1
5.199928167E0,-4.791812231E0,-3.217942629E0,1.420754588E1,1.533528543E1
5.209930167E0,-5.186538756E0,-2.914710118E0,1.319982036E1,1.447863864E1
5.219932167E0,-5.697133999E0,-2.835537649E0,1.216017723E1,1.372470473E1
5.229934167E0,-6.002026534E0,-2.699535213E0,1.102640329E1,1.284108182E1
5.239936167E0,-6.098463492E0,-2.447395235E0,1.007823166E1,1.203128230E1
5.249938167E0,-6.068043938E0,-2.210246640E0,9.280269159E0,1.130618163E1
5.259940167E0,-5.999649056E0,-2.033945925E0,8.636345705E0,1.071070455E1
5.269942167E0,-6.012467322E0,-1.872855134E0,7.962540640E0,1.015181772E1
5.279944167E0,-6.148842518E0,-1.742391327E0,7.147460997E0,9.588033717E0
5.289946167E0,-6.083198166E0,-1.546857951E0,6.403931394E0,8.967073477E0
5.299949167E0,-5.969873280E0,-1.409566058E0,5.812647498E0,8.450629230E0
5.309951167E0,-5.889951782E0,-1.306023271E0,5.336356700E0,8.054435524E0
5.319953167E0,-5.819528502E0,-1.309667548E0,4.896162518E0,7.717159353E0
5.329955167E0,-5.762912251E0,-1.369319819E0,4.623974045E0,7.514474722E0
5.339957167E0,-5.714305517E0,-1.336590175E0,4.687846105E0,7.511036010E0
5.349959167E0,-5.571563289E0,-1.147036966E0,4.948587484E0,7.539663744E0
5.359961167E0,-5.117940976E0,-8.340057640E-1,5.441818836E0,7.516799697E0
5.369963167E0,-4.185597762E0,-4.183396651E-1,6.012426977E0,7.337814038E0
5.379965167E0,-2.530313576E0,-2.270493938E-1,6.369816399E0,6.857740092E0
5.389967167E0,4.228624499E-1,-4.085876058E-1,6.374958440E0,6.402019337E0
5.399970167E0,5.794581356E0,-8.176258126E-1,5.249087006E0,7.861208524E0
5.409972167E0,1.557786309E1,-1.240087290E0,3.629159179E-1,1.563135768E1
5.419974167E0,3.586356508E1,-8.577039443E-2,-1.115169041E1,3.755746072E1
5.429976167E0,5.662900188E1,1.732899688E0,-2.654217012E1,6.256463530E1
5.439978167E0,6.242498189E1,4.567394047E0,-4.280805051E1,7.583052579E1
5.449980167E0,5.354155040E1,1.062072581E1,-4.622347934E1,7.152697029E1
5.459982167E0,2.939648376E1,-1.714723180E0,-3.167033729E1,4.324469675E1
5.469984167E0,9.199132610E0,-7.721269904E0,-2.021419873E1,2.351288753E1
5.479986167E0,-8.720273715E0,-7.741680195E0,-2.321106749E1,2.597557391E1
5.489988167E0,-9.833075452E0,-2.696943727E0,-2.970447532E1,3.140571178E1
5.499991167E0,6.842169097E0,2.433369080E0,-2.825339520E1,2.917174838E1
5.509993167E0,1.540092050E1,2.286594027E0,-2.201457514E1,2.696402016E1
5.519995167E0,1.575295094E1,9.058181237E-1,-1.868386545E1,2.445532249E1
5.529997167E0,1.341052595E1,9.888898820E-1,-1.568795330E1,2.066233259E1
5.539999167E0,1.059686449E1,1.496033367E0,-1.028633290E1,1.484386396E1
5.550001167E0,8.236913048E0,1.914019678E0,-3.823483790E0,9.280583828E0
5.560003167E0,5.981939594E0,2.139238345E0,1.248768212E0,6.474516511E0
5.570005167E0,3.692207367E0,1.824886477E0,3.810732182E0,5.611085961E0
5.580007167E0,1.354930260E0,1.044313373E0,5.417181008E0,5.680869344E0
5.590009167E0,-9.115557772E-1,-1.623647533E-2,6.736609313E0,6.798021962E0
5.600012167E0,-2.831920561E0,-8.680921807E-1,8.078356440E0,8.604254812E0
5.610014167E0,-4.325878898E0,-1.403472674E0,9.451014288E0,1.048830944E1
5.620016167E0,-5.494960670E0,-1.802102947E0,1.033567638E1,1.184349501E1
5.630018167E0,-6.315172414E0,-2.060175511E0,1.074422368E1,1.263186717E1
5.640020167E0,-6.829970636E0,-2.236718154E0,1.089509354E1,1.305199104E1
5.650022167E0,-7.058616064E0,-2.192783053E0,1.095381128E1,1.321432328E1
5.660024167E0,-7.283851395E0,-2.106167809E0,1.082006090E1,1.321227277E1
5.670026167E0,-7.215767586E0,-2.013854453E0,1.003108088E1,1.251980413E1
5.680028167E0,-8.210478371E0,-2.247041121E-2,-1.178506549E1,1.436315524E1
5.690030167E0,-7.149352571E0,-2.130024010E0,6.362389265E0,9.804603084E0
5.700033167E0,-6.023444300E0,-5.188132707E0,2.131464238E1,2.274890287E1
5.710034875E0,-6.762202576E0,-5.317351495E0,1.765127757E1,1.963591634E1
5.720036875E0,-7.130039803E0,-5.575882627E0,1.581204525E1,1.821945964E1
5.730038875E0,-7.213059155E0,-6.451636487E0,1.466057646E1,1.756656875E1
5.740040875E0,-7.273990651E0,-7.661280980E0,1.590032651E1,1.908995938E1
5.750042875E0,-7.432557784E0,-8.381539249E0,1.625900875E1,1.974458105E1
5.760044875E0,-7.672129319E0,-8.733278507E0,1.537022963E1,1.927111000E1
5.770046875E0,-7.941476045E0,-8.794248009E0,1.362418789E1,1.805614398E1
5.780048875E0,-8.292770330E0,-8.680861727E0,1.160097292E1,1.669460909E1
5.790050875E0,-8.546786826E0,-8.573488137E0,9.313364400E0,1.527386724E1
5.800053875E0,-8.762622174E0,-8.641892958E0,6.913822047E0,1.411618917E1
5.810055875E0,-9.231546650E0,-9.303687258E0,4.949290904E0,1.400983692E1
5.820057875E0,-9.369146837E0,-9.900196810E0,4.099164805E0,1.423369107E1
5.830059875E0,-8.082227297E0,-8.920169553E0,4.345912043E0,1.279760815E1
5.840061875E0,-6.563215395E0,-7.017712451E0,4.389769669E0,1.056381381E1
5.850063875E0,-6.319962453E0,-6.216174960E0,4.445723430E0,9.917016354E0
5.860065875E0,-6.189825652E0,-5.770372129E0,4.178563562E0,9.437771429E0
5.870067875E0,-6.085997813E0,-5.491080458E0,3.695870063E0,8.991706707E0
5.880069875E0,-6.023244910E0,-5.353069212E0,3.248822359E0,8.688479496E0
5.890072875E0,-6.032537890E0,-5.297973822E0,2.867681547E0,8.525469927E0
5.900074875E0,-6.172883345E0,-5.364366617E0,2.615043532E0,8.585998525E0
5.910076875E0,-6.290130544E0,-5.509022639E0,2.388008720E0,8.695841440E0
5.920078875E0,-6.305024571E0,-5.485999812E0,2.220349166E0,8.647512892E0
5.930080875E0,-6.165334589E0,-5.266898210E0,2.246410207E0,8.414150354E0
5.940082875E0,-5.919087873E0,-5.025926852E0,2.577447397E0,8.181612130E0
5.950084875E0,-5.522672380E0,-4.856167563E0,3.067639951E0,7.968229947E0
5.960086875E0,-4.940900150E0,-4.565213036E0,3.462434011E0,7.565851812E0
5.970088875E0,-3.828017721E0,-4.321453725E0,3.975995547E0,7.009794759E0
5.980090875E0,-1.631523440E0,-4.175356364E0,5.057994152E0,6.758607426E0
5.990093875E0,2.438552637E0,-2.780034416E0,6.667155501E0,7.624047008E0
6.000095875E0,1.030565327E1,2.338585129E0,5.502835701E0,1.191455708E1
6.010097875E0,2.565211631E1,9.291695788E0,-5.855478353E0,2.790436002E1
6.020099875E0,5.484771079E1,2.309079261E1,-2.635143628E1,6.508344087E1
6.030101875E0,7.896511308E1,5.413049131E1,-4.596977099E1,1.062017844E2
6.040103875E0,6.330121289E1,4.070956434E1,-5.942830258E1,9.589596097E1
6.050105875E0,3.006161156E1,1.039122493E1,-3.716258251E1,4.891559653E1
6.060107875E0,8.454253469E0,-9.793881565E-2,-1.874723290E1,2.056557160E1
6.070110875E0,-3.218819711E0,-3.590951718E0,-1.561747447E1,1.634506786E1
6.080112875E0,-8.839920611E0,-4.040301470E0,-1.639583827E1,1.906021367E1
6.090114875E0,-6.173439415E0,-2.072520153E0,-1.932913844E1,2.039662440E1
6.100116875E0,1.687891184E0,2.257776901E0,-1.651423386E1,1.675310280E1
6.110118875E0,6.621089966E0,4.659063478E0,-1.165887789E1,1.419419383E1
6.120120875E0,8.190447564E0,5.184825522E0,-7.292634498E0,1.213047258E1
6.130122875E0,7.677091851E0,5.332453684E0,-4.396897425E0,1.032983584E1
6.140124875E0,5.984618788E0,4.590464237E0,-1.516909828E0,7.693441322E0
6.150126875E0,3.745563210E0,2.989263872E0,2.286425042E-1,4.797626460E0
6.160128875E0,1.402289783E0,1.348758523E0,1.498423271E0,2.455776555E0
6.170131875E0,-6.871320391E-1,1.389804223E-1,3.178020179E0,3.254424413E0
6.180133875E0,-2.596826824E0,-1.021952378E0,4.767785144E0,5.524461186E0
6.190135875E0,-4.509401947E0,-2.258933773E0,5.822684829E0,7.703320474E0
6.200137875E0,-6.059619269E0,-3.241251969E0,6.906767966E0,9.743107500E0
6.210139875E0,-6.977107047E0,-3.643760846E0,7.764892471E0,1.105669801E1
6.220141875E0,-7.525048456E0,-3.631959703E0,7.845031486E0,1.146132647E1
6.230143875E0,-7.852468559E0,-3.417125984E0,7.471691444E0,1.136504226E1
6.240145875E0,-8.113677716E0,-3.260583449E0,7.188399693E0,1.131972882E1
6.250147875E0,-8.231405556E0,-3.002266910E0,6.566426686E0,1.094931977E1
6.260150875E0,-8.814704493E0,-9.065717568E-1,-6.674002590E0,1.109338534E1
6.270152875E0,-9.629433303E0,3.589170071E-1,-1.215607834E1,1.551209359E1
6.280154875E0,-8.145775421E0,-3.188639308E0,1.070333293E1,1.382325626E1
6.290156875E0,-7.262640620E0,-4.421196992E0,1.598483515E1,1.810546565E1
6.300158875E0,-7.416712999E0,-4.858804657E0,1.659428108E1,1.881450980E1
6.310160875E0,-8.043823369E0,-5.079398469E0,1.621527391E1,1.879995988E1
6.320162875E0,-8.425714379E0,-5.303644452E0,1.677591665E1,1.950775965E1
6.330164875E0,-8.389762774E0,-5.633966528E0,1.633853790E1,1.921139034E1
6.340166875E0,-8.637349087E0,-6.331815344E0,1.605549758E1,1.929960329E1
6.350168875E0,-8.899323059E0,-7.002154765E0,1.519340632E1,1.894908224E1
6.360171875E0,-8.773569916E0,-7.213849699E0,1.315095635E1,1.737707713E1
6.370173875E0,-8.582692823E0,-7.303300989E0,1.072587979E1,1.555780572E1
6.380175875E0,-8.449500268E0,-7.406097379E0,8.672370400E0,1.419346122E1
6.390177875E0,-8.449337715E0,-7.595157741E0,6.916168535E0,1.330079382E1
6.400179875E0,-8.689941868E0,-7.788633921E0,5.287206759E0,1.281141926E1
6.410181875E0,-8.925104603E0,-7.636744308E0,3.954024634E0,1.239401737E1
6.420183875E0,-8.810946488E0,-7.051312891E0,3.077330249E0,1.169716859E1
6.430185875E0,-8.456659598E0,-6.508966098E0,2.511185872E0,1.096301901E1
6.440187875E0,-8.022272871E0,-5.940275259E0,2.110702471E0,1.020288180E1
6.450190875E0,-7.624023106E0,-5.405387174E0,2.038174193E0,9.565463547E0
6.460192875E0,-7.385775965E0,-5.042936402E0,2.229913749E0,9.217017386E0
6.470194875E0,-7.249323002E0,-4.794545219E0,2.416644581E0,9.021115168E0
6.480196875E0,-7.066610377E0,-4.540952938E0,2.466604361E0,8.754505862E0
6.490198875E0,-6.884625145E0,-4.300588521E0,2.438421951E0,8.475790620E0
6.500200875E0,-6.709848361E0,-4.195903188E0,2.446812998E0,8.283390757E0
6.510202875E0,-6.522859082E0,-4.257067402E0,2.617786753E0,8.217245339E0
6.520204875E0,-6.195473478E0,-4.303852729E0,3.017143688E0,8.124665899E0
6.530206875E0,-5.588031971E0,-4.134826097E0,3.592317335E0,7.824808752E0
6.540209875E0,-4.372840810E0,-3.762265489E0,4.591158009E0,7.372591825E0
6.550211875E0,-2.042743499E0,-2.852960890E0,5.719319504E0,6.709903310E0
6.560213875E0,2.116647627E0,-8.863241646E-1,7.395102274E0,7.742951979E0
6.570215875E0,8.071353815E0,1.673811674E0,8.492031745E0,1.183482155E1
6.580217875E0,1.674573683E1,4.570071487E0,6.431471779E0,1.851132314E1
6.590219875E0,3.540964807E1,9.880832001E0,-4.993339734E0,3.709996576E1
6.600221875E0,6.819790984E1,3.304577549E1,-3.579565318E1,8.381113870E1
6.610223875E0,8.269105245E1,5.423153120E1,-5.397402450E1,1.126590629E2
6.620225875E0,4.735153822E1,2.304375293E1,-3.738442821E1,6.458156233E1
6.630228875E0,1.811720009E1,8.914473487E-1,-1.995108572E1,2.696429934E1
6.640230875E0,8.181456885E0,-3.241342016E0,-1.281786620E1,1.554799758E1
6.650232875E0,5.556499107E0,-1.646473309E0,-8.737268062E0,1.048453193E1
6.660234875E0,3.888655102E0,-1.069894284E-2,-6.872814354E0,7.896665759E0
6.670236875E0,3.497466434E0,1.523252156E0,-6.601873092E0,7.624781762E0
6.680238875E0,4.776047260E0,2.412223794E0,-8.741699082E0,1.024923187E1
6.690240875E0,6.273462471E0,2.943080809E0,-1.047836014E1,1.256240770E1
6.700242875E0,7.164621990E0,3.654703326E0,-1.091025186E1,1.355441848E1
6.710245125E0,6.436331400E0,4.002038168E0,-9.236458311E0,1.194800542E1
6.720247125E0,4.776460658E0,3.800707423E0,-6.413981003E0,8.854326945E0
6.730250125E0,2.989767902E0,3.168440978E0,-3.180492382E0,5.393817028E0
6.740252125E0,9.144331920E-1,2.087728761E0,9.197027028E-2,2.281065096E0
6.750254125E0,-9.554829848E-1,9.938299021E-1,2.864438682E0,3.178939221E0
6.760256125E0,-2.508064336E0,3.120100585E-1,4.817123950E0,5.439891556E0
6.770258125E0,-4.079343329E0,-2.749097675E-1,6.489978434E0,7.670491344E0
6.780260125E0,-5.441810065E0,-7.354344258E-1,7.472334638E0,9.273076378E0
6.790262125E0,-6.285193740E0,-8.837744862E-1,7.827147776E0,1.007715039E1
6.800264125E0,-6.889659598E0,-1.060358352E0,7.748145461E0,1.042235709E1
6.810266125E0,-7.407882534E0,-1.448035474E0,7.149308717E0,1.039644870E1
6.820268125E0,-7.737275487E0,-1.510908830E0,6.067074469E0,9.947746985E0
6.830271125E0,-7.737736248E0,-1.603872250E0,5.894275213E0,9.858369476E0
6.840273125E0,-1.293517071E1,-1.384637039E0,-4.936180862E0,1.391408432E1
6.850275125E0,-1.388144199E1,-2.397354617E0,-2.595653288E0,1.432407612E1
6.860277125E0,-3.939610078E0,-4.387866693E0,1.264192582E1,1.394963047E1
6.870279125E0,-3.266426572E0,-5.659493133E0,1.630158350E1,1.756248927E1
6.880281125E0,-3.054343382E0,-6.764930302E0,1.903845698E1,2.043419046E1
6.890283125E0,-3.021734630E0,-7.825336894E0,2.073885770E1,2.237111969E1
6.900285125E0,-2.718061824E0,-8.080584229E0,2.315739005E1,2.467688018E1
6.910287125E0,-1.484178576E0,-7.230142381E0,2.512444018E1,2.618616503E1
6.920290125E0,-1.402922451E-1,-5.981149635E0,2.299020880E1,2.375591576E1
6.930292125E0,2.979273319E-2,-5.049894589E0,1.822101623E1,1.890787549E1
6.940294125E0,-2.985401201E-1,-4.594975071E0,1.559433002E1,1.625995236E1
6.950296125E0,-8.948461890E-1,-4.435503374E0,1.324158352E1,1.399335463E1
6.960298125E0,-1.724238061E0,-4.281305865E0,1.145795587E1,1.235262440E1
6.970300125E0,-2.682376851E0,-4.082543218E0,1.027786145E1,1.137966347E1
6.980302125E0,-3.460038992E0,-3.917710501E0,9.288362875E0,1.065804908E1
6.990304125E0,-4.105404369E0,-3.827949309E0,8.470708119E0,1.016171427E1
7.000306125E0,-4.640159138E0,-3.689771124E0,7.679031957E0,9.701186503E0
7.010308125E0,-5.195020727E0,-3.583472545E0,6.889823905E0,9.343403516E0
7.020311125E0,-5.708645412E0,-3.528914222E0,6.060842507E0,9.042990651E0
7.030313125E0,-6.138373078E0,-3.431285893E0,5.258849518E0,8.781164227E0
7.040315125E0,-6.361483532E0,-3.242878665E0,4.309435358E0,8.340022054E0
7.050317125E0,-6.390006250E0,-3.085217850E0,3.388880131E0,7.863539763E0
7.060319125E0,-6.345446373E0,-2.951277728E0,2.771667343E0,7.527075778E0
7.070321125E0,-6.296264273E0,-2.937521568E0,2.464632388E0,7.372000377E0
7.080323125E0,-6.185929068E0,-3.183176546E0,2.323286474E0,7.334575066E0
7.090325125E0,-5.961153327E0,-3.452983156E0,2.523526129E0,7.336663124E0
7.100327125E0,-5.500707899E0,-3.612963561E0,2.772532731E0,7.141304561E0
7.110329125E0,-4.550161718E0,-3.552632575E0,3.073587738E0,6.540039102E0
7.120332125E0,-2.567746282E0,-2.546817927E0,4.035513770E0,5.418945830E0
7.130334125E0,7.750098431E-1,-7.789105207E-1,6.171886979E0,6.268933780E0
7.140336125E0,4.918571388E0,3.373438512E-1,6.007764992E0,7.771704161E0
7.150338125E0,1.334962837E1,1.481393109E0,3.111113122E0,1.378717259E1
7.160340125E0,3.266825118E1,9.246689184E0,-3.520154800E0,3.413366939E1
7.170342125E0,6.101540999E1,2.754139612E1,-3.157154273E1,7.401466792E1
7.180344125E0,6.579428789E1,1.890514163E1,-5.408500465E1,8.724379879E1
7.190346125E0,4.269771589E1,3.430282511E0,-4.850807070E1,6.471394520E1
7.200348125E0,1.837291286E1,-4.297452659E0,-2.508733375E1,3.139118253E1
7.210351125E0,6.544360464E0,-4.825894774E0,-9.825904427E0,1.275407041E1
7.220353125E0,2.909282148E0,-2.241680394E0,-4.493362450E0,5.803392087E0
7.230355125E0,2.511991911E0,4.185793644E-1,-6.418172872E0,6.904944247E0
7.240357125E0,5.552335889E0,2.093659445E0,-1.168399987E1,1.310449147E1
7.250359125E0,9.932020866E0,2.829169739E0,-1.429547865E1,1.763547418E1
7.260361125E0,1.156836767E1,2.155185895E0,-1.458822067E1,1.874268228E1
7.270363125E0,1.138440959E1,1.930091189E0,-1.236917894E1,1.692118854E1
7.280365125E0,1.107019660E1,2.888058509E0,-8.423970155E0,1.420751237E1
7.290367125E0,9.857657146E0,3.378209255E0,-5.280215828E0,1.168188261E1
7.300369125E0,8.032197935E0,3.244756206E0,-2.911834458E0,9.139115187E0
7.310372125E0,5.216040882E0,2.050249570E0,-1.332093374E0,5.760649143E0
7.320374125E0,2.530549804E0,8.460080512E-1,-4.837307954E-1,2.711716692E0
7.330376125E0,6.244937414E-1,2.472088757E-1,9.726281905E-1,1.181994187E0
7.340378125E0,-9.164750397E-1,-1.820410725E-1,3.226591830E0,3.359160653E0
7.350380125E0,-2.688759672E0,-1.002737989E0,4.970817429E0,5.739680998E0
7.360382125E0,-4.324376163E0,-1.695731277E0,6.402465497E0,7.909949317E0
7.370384125E0,-6.590315486E0,-2.524414321E0,7.355351148E0,1.019343496E1
7.380386125E0,-9.240519202E0,-3.236869481E0,7.719582397E0,1.246821846E1
7.390388125E0,-7.732535734E0,-2.413012291E0,7.983053257E0,1.137294494E1
7.400390125E0,-7.539448394E0,-1.992893355E0,7.440542741E0,1.077852412E1
7.410393125E0,-8.093632876E0,-1.648739982E0,6.623265715E0,1.058739276E1
7.420395125E0,-8.448756502E0,-3.102720467E-1,-2.720983678E0,8.881526183E0
7.430397125E0,-9.108181509E0,1.189665580E0,-3.885371305E0,9.973484084E0
7.440399125E0,-7.139423999E0,-1.804597077E0,1.305236294E1,1.498639797E1
7.450401125E0,-6.774629663E0,-2.927697369E0,1.665855601E1,1.822016760E1
7.460403125E0,-7.082126548E0,-3.032808964E0,1.729134403E1,1.893000330E1
7.470405125E0,-7.589996989E0,-2.740384739E0,1.537800643E1,1.736665899E1
7.480407125E0,-8.129078697E0,-2.991999784E0,1.447852924E1,1.687192319E1
7.490409125E0,-8.572718643E0,-3.914474652E0,1.552667305E1,1.816293459E1
7.500411125E0,-9.136576173E0,-4.365416308E0,1.486142247E1,1.798320776E1
7.510414125E0,-9.656605314E0,-4.280846859E0,1.359789647E1,1.721855001E1
7.520416125E0,-9.928714850E0,-4.090648628E0,1.242602323E1,1.642311901E1
7.530418125E0,-9.938173306E0,-3.908954880E0,1.104589791E1,1.536421418E1
7.540420125E0,-9.657708684E0,-3.677991324E0,9.598254195E0,1.410409305E1
7.550422125E0,-9.293524212E0,-3.594870814E0,8.183629711E0,1.289435860E1
7.560424125E0,-9.028897358E0,-3.617056612E0,6.935254431E0,1.194578754E1
7.570426125E0,-8.812542778E0,-3.626556584E0,5.946959211E0,1.123294916E1
7.580428125E0,-8.450121242E0,-3.587392226E0,5.237567407E0,1.056910802E1
7.590430125E0,-8.051803064E0,-3.467868121E0,4.742885361E0,9.967577612E0
7.600432125E0,-7.746985373E0,-3.410230654E0,4.453209620E0,9.564336434E0
7.610434125E0,-7.602780756E0,-3.323377575E0,4.236462107E0,9.316368655E0
7.620437125E0,-7.535601511E0,-3.160232365E0,4.121574259E0,9.152034370E0
7.630439125E0,-7.431921607E0,-2.936650041E0,4.197468195E0,9.026411883E0
7.640441125E0,-7.109262891E0,-2.575745273E0,4.445914634E0,8.771672560E0
7.650443125E0,-6.663142557E0,-2.349436977E0,4.611045851E0,8.436768734E0
7.660445125E0,-6.383825158E0,-2.372296520E0,4.977983192E0,8.435717580E0
7.670447125E0,-5.977344267E0,-2.333547753E0,5.310212045E0,8.329012040E0
7.680449125E0,-5.201974820E0,-2.244371429E0,5.618518184E0,7.979065843E0
7.690451125E0,-3.733231432E0,-1.987137209E0,5.775483765E0,7.158347849E0
7.700453125E0,-9.905849898E-1,-1.364928267E0,6.042895063E0,6.273824076E0
7.710456375E0,4.052970632E0,1.303154334E-2,6.238106112E0,7.439133594E0
7.720458375E0,1.168901327E1,2.018204197E0,4.737150120E0,1.277289203E1
7.730460375E0,2.396879881E1,4.144022890E0,2.220959616E-1,2.432540994E1
7.740462375E0,4.334420277E1,7.683414445E0,-7.645474201E0,4.467894411E1
7.750464375E0,5.876139256E1,1.464672674E1,-2.441360820E1,6.529511563E1
7.760466375E0,5.887343924E1,1.988457949E1,-4.702785039E1,7.793007803E1
7.770468375E0,3.772639210E1,7.732574911E0,-3.989225924E1,5.544786491E1
7.780470375E0,1.361190756E1,-3.914572885E0,-1.732669863E1,2.237906151E1
7.790472375E0,-2.982264170E0,-6.727609863E0,-1.214643979E1,1.420178276E1
7.800474375E0,-9.176579899E0,-5.070615367E0,-1.920173112E1,2.187755098E1
7.810477375E0,-1.229702196E0,-1.701490784E-1,-2.268123725E1,2.271518526E1
7.820479375E0,9.376829494E0,3.669359956E0,-1.697577331E1,1.973742671E1
7.830481375E0,1.570018099E1,5.755475762E0,-1.265816003E1,2.097260594E1
7.840483375E0,1.672397466E1,7.040454612E0,-1.122707973E1,2.133791576E1
7.850485375E0,1.374805764E1,6.940832090E0,-9.044176133E0,1.786004930E1
7.860487375E0,9.010635334E0,4.779966064E0,-6.397111201E0,1.204004387E1
7.870489375E0,5.306181559E0,2.305603471E0,-4.452747105E0,7.300570312E0
7.880491375E0,2.847938424E0,6.236855100E-1,-2.677753458E0,3.958547772E0
7.890493375E0,7.987284887E-1,-3.886986306E-1,-8.232277375E-1,1.211097738E0
7.900495375E0,-1.531862912E0,-1.713034942E0,8.565288001E-1,2.452495521E0
7.910498375E0,-3.261242430E0,-2.521138418E0,2.388527952E0,4.764127086E0
7.920500375E0,-4.535601566E0,-2.824964421E0,3.661009548E0,6.477275388E0
7.930502375E0,-6.655689111E0,-3.167279136E0,5.224743878E0,9.034810638E0
7.940504375E0,-9.117347020E0,-3.441424965E0,6.950924385E0,1.197016175E1
7.950506375E0,-7.368976330E0,-2.274283737E0,8.642449028E0,1.158300928E1
7.960508375E0,-5.787809696E0,-1.311037989E0,8.993263257E0,1.077480142E1
7.970510375E0,-6.626714988E0,-1.075447677E0,9.054315789E0,1.127167129E1
7.980512375E0,-7.041334618E0,-1.007391349E0,9.554964918E0,1.191186741E1
7.990514375E0,-8.032518362E0,-8.524779953E-1,6.993688581E0,1.068455661E1
8.000516375E0,-8.704078681E0,-7.860576455E-1,5.003479391E0,1.007043586E1
8.010519375E0,-9.572896575E0,-6.771812475E-1,8.076912763E0,1.254334258E1
8.020521375E0,-1.015887061E1,-7.290783562E-1,9.297170536E0,1.379027148E1
8.030523375E0,-9.340242881E0,-7.189684472E-1,1.332723353E1,1.629024881E1
8.040525375E0,-8.864990548E0,-9.042534088E-1,1.572526555E1,1.807455970E1
8.050527375E0,-8.513672875E0,-1.013501690E0,1.616620876E1,1.829907421E1
8.060529375E0,-8.465232786E0,-1.086621414E0,1.641287004E1,1.849927607E1
8.070531375E0,-8.417980267E0,-9.827282323E-1,1.620501322E1,1.828744378E1
8.080533375E0,-8.554104032E0,-9.231611115E-1,1.506613933E1,1.734973996E1
8.090535375E0,-8.840914637E0,-1.176843220E0,1.368183676E1,1.633215811E1
8.100537375E0,-9.096058477E0,-1.497256313E0,1.190068131E1,1.505344718E1
8.110540375E0,-9.307447602E0,-1.674698696E0,9.861404042E0,1.366310676E1
8.120542375E0,-9.399293911E0,-1.668002172E0,7.807242685E0,1.233215292E1
8.130544375E0,-9.457825125E0,-1.572976440E0,6.060413321E0,1.134254471E1
8.140546375E0,-9.521688414E0,-1.455370222E0,4.650217518E0,1.069603551E1
8.150548375E0,-9.570475243E0,-1.386516334E0,3.494887812E0,1.028254174E1
8.160550375E0,-9.494775435E0,-1.328411675E0,2.589672171E0,9.930852939E0
8.170552375E0,-9.241806759E0,-1.207436364E0,1.958518743E0,9.523901008E0
8.180554375E0,-8.996497352E0,-1.046026169E0,1.570530549E0,9.192263135E0
8.190556375E0,-8.801407925E0,-9.172062340E-1,1.409511386E0,8.960623365E0
8.200558375E0,-8.674177190E0,-7.735065971E-1,1.407394694E0,8.821588417E0
8.210561375E0,-8.575849242E0,-6.672116717E-1,1.426675596E0,8.719275480E0
8.220563375E0,-8.462464129E0,-6.019836422E-1,1.485273175E0,8.612881042E0
8.230565375E0,-8.249842996E0,-6.101061556E-1,1.497956955E0,8.406902760E0
8.240567375E0,-7.808547199E0,-7.281289876E-1,1.761596507E0,8.037835743E0
8.250569375E0,-6.915926460E0,-8.891110937E-1,2.738399609E0,7.491287590E0
8.260571375E0,-5.278461079E0,-1.261958361E0,3.758196119E0,6.601418661E0
8.270573375E0,-2.793001494E0,-2.213497399E0,4.117294390E0,5.445414693E0
8.280575375E0,1.936111336E0,-3.412923297E0,4.313999695E0,5.831566334E0
8.290577375E0,1.022281576E1,-5.457584099E0,5.831269126E0,1.297285188E1
8.300580375E0,2.203706120E1,-6.162376483E0,6.102455971E0,2.368220680E1
8.310582375E0,4.245870043E1,1.659869134E0,-1.337148526E1,4.454540409E1
8.320584375E0,7.244662303E1,2.062963171E1,-3.341496868E1,8.240543080E1
8.330586375E0,7.099366479E1,1.659300872E1,-3.171457031E1,7.950624094E1
8.340588375E0,4.538464714E1,4.818509740E0,-2.485329543E1,5.196797597E1
8.350590375E0,2.103398538E1,-1.810223560E0,-6.907997636E0,2.221319162E1
8.360592375E0,1.190437441E1,6.041815740E-1,-3.069627419E0,1.230860585E1
8.370594375E0,8.006905804E0,4.891760442E0,-5.871326061E0,1.106852883E1
8.380596375E0,7.436465478E0,3.700741963E0,-1.237782814E1,1.490661395E1
8.390598375E0,7.486303051E0,2.930999438E-1,-1.800045692E1,1.949736111E1
8.400601375E0,5.448517406E0,-3.958640280E-1,-2.079882440E1,2.150428206E1
8.410603375E0,4.937110569E0,1.372047983E0,-2.027259137E1,2.091017784E1
8.420605375E0,6.221590651E0,3.973942589E0,-1.618185357E1,1.778630920E1
8.430607375E0,6.360508216E0,5.643101633E0,-1.075834353E1,1.371286317E1
8.440609375E0,4.921229532E0,6.491457780E0,-5.670202893E0,9.925156173E0
8.450611375E0,2.577359104E0,6.421454329E0,-1.717409683E0,7.129330381E0
8.460613375E0,2.006378496E-1,5.586923339E0,1.267732487E0,5.732461391E0
8.470615375E0,-2.103715340E0,4.192442221E0,3.439802363E0,5.816737084E0
8.480617375E0,-5.691466877E0,2.225946852E0,4.573493863E0,7.633117366E0
8.490619375E0,-1.400900017E1,-1.620595141E0,4.711813842E0,1.486874588E1
8.500622375E0,-1.031360548E1,-3.576703808E-1,5.728364562E0,1.180307361E1
8.510624375E0,-5.742247022E0,4.199825500E-1,5.916855406E0,8.255844239E0
8.520626375E0,-7.333959695E0,-1.139467526E0,5.507602351E0,9.242241865E0
8.530628375E0,-8.054026176E0,-2.204024033E0,5.938491274E0,1.024649883E1
8.540630375E0,-8.349323430E0,-3.175171708E0,6.740680144E0,1.119060704E1
8.550632375E0,-8.424105225E0,-3.589625570E0,7.922509432E0,1.210855550E1
8.560634375E0,-8.446459715E0,-3.866494447E0,9.344789091E0,1.317640103E1
8.570636375E0,-8.540905112E0,-4.203322135E0,1.020545772E1,1.395587132E1
8.580638375E0,-8.928207135E0,-4.603818108E0,1.110559564E1,1.497472131E1
8.590640375E0,-1.155028107E1,-4.868377719E0,1.307954898E1,1.811586862E1
8.600643375E0,-1.426124671E1,-5.231574011E-1,-7.240890732E-1,1.428919719E1
8.610645375E0,-1.712756118E1,-4.304669293E0,1.249531391E1,2.163368668E1
8.620647375E0,-1.138525159E1,-7.513210183E0,1.805428405E1,2.262806783E1
8.630649375E0,-1.059874261E1,-7.277623526E0,1.412134857E1,1.909737245E1
8.640651375E0,-1.135339830E1,-7.324235775E0,1.251203694E1,1.841453641E1
8.650653375E0,-1.163934352E1,-7.535765233E0,1.113162393E1,1.778131397E1
8.660655375E0,-1.031798505E1,-6.262812352E0,8.207316781E0,1.459601599E1
8.670657375E0,-8.713421363E0,-4.724467801E0,5.988842232E0,1.158061048E1
8.680659375E0,-8.643706765E0,-4.530310421E0,5.114208698E0,1.101782691E1
8.690661375E0,-8.469832206E0,-4.288534778E0,4.332895557E0,1.043568743E1
8.700664375E0,-8.317811031E0,-4.035459683E0,3.382520700E0,9.844407625E0
8.710666417E0,-8.520069728E0,-4.005961065E0,2.598997310E0,9.766990286E0
8.720668417E0,-8.922178656E0,-4.104983077E0,1.855528518E0,9.994955934E0
8.730670417E0,-9.150842210E0,-4.120570585E0,1.144092088E0,1.010079016E1
8.740672417E0,-9.208388168E0,-4.051123205E0,4.827437854E-1,1.007169566E1
8.750674417E0,-9.134410949E0,-3.919873094E0,-2.689945780E-2,9.939999600E0
8.760676417E0,-9.130314390E0,-3.872334061E0,-3.880598223E-1,9.925129841E0
8.770678417E0,-9.094556327E0,-3.907838062E0,-5.265978297E-1,9.912590902E0
8.780680417E0,-9.034711245E0,-3.953864420E0,-3.573198402E-1,9.868471442E0
8.790682417E0,-8.874168338E0,-3.986279337E0,1.142100088E-1,9.729045717E0
8.800685417E0,-8.568425032E0,-3.707677345E0,1.342729898E0,9.432269208E0
8.810687417E0,-7.878184614E0,-3.176789048E0,2.659252868E0,8.901090230E0
8.820689417E0,-7.051859021E0,-2.865812193E0,3.195327938E0,8.255405248E0
8.830691417E0,-6.265389220E0,-2.852298108E0,3.875569910E0,7.900047386E0
8.840693417E0,-4.885438140E0,-2.786762807E0,5.259862840E0,7.700630485E0
8.850695417E0,-1.820725306E0,-2.559047964E0,7.608848412E0,8.231545497E0
8.860697417E0,4.136944250E0,-3.297735488E0,9.646270945E0,1.100181395E1
8.870699417E0,1.369367269E1,-3.978716841E0,9.662385871E0,1.722523034E1
8.880702417E0,3.018044803E1,-2.657853044E0,1.001554834E1,3.190979214E1
8.890704417E0,6.315926120E1,4.533796239E0,5.017795129E0,6.352027906E1
8.900706417E0,8.405182583E1,1.166142728E1,-1.161505184E1,8.564816251E1
8.910708417E0,6.208240055E1,7.835938480E0,-1.827334063E1,6.518850640E1
8.920710417E0,4.266631868E1,7.626999339E0,-2.167994133E1,4.846241559E1
8.930712417E0,2.560648931E1,1.462817236E1,-1.250101260E1,3.203047045E1
8.940714417E0,1.089238978E1,2.689488586E1,5.858072762E0,2.960229817E1
8.950716417E0,-1.169301628E1,6.079856483E0,-2.868843272E1,3.157083237E1
8.960718417E0,-6.692509028E0,-2.096679678E0,-5.032926787E1,5.081555812E1
8.970720417E0,1.059729952E1,1.786073682E0,-3.652314504E1,3.807141894E1
8.980723417E0,1.578988196E1,1.295300354E0,-2.087079661E1,2.620283051E1
8.990725417E0,1.673719171E1,1.235407032E0,-9.913903853E0,1.949218578E1
9.000727417E0,1.432987782E1,1.745460823E0,-1.740740073E0,1.454036477E1
9.010729417E0,1.012720677E1,1.979824097E0,4.653460092E0,1.131966039E1
9.020731417E0,5.943647348E0,1.447403683E0,1.018394581E1,1.188001151E1
9.030733417E0,2.100527439E0,4.550763689E-1,1.250154236E1,1.268494665E1
9.040735417E0,-1.089249737E0,-8.999877919E-1,1.067293209E1,1.076605417E1
9.050737417E0,-8.799909284E0,5.353476763E-1,1.864844653E1,2.062739825E1
9.060739417E0,-6.327097811E0,-1.488742036E0,1.135435256E1,1.308318928E1
9.070741417E0,-5.020386030E0,-2.063229658E0,1.071542497E1,1.201172447E1
9.080744417E0,-6.989378014E0,-2.000225763E0,1.315361683E1,1.502897016E1
9.090746417E0,-7.495058672E0,-1.681113676E0,1.034303686E1,1.288334037E1
9.100748417E0,-7.858045633E0,-1.560335198E0,8.103659096E0,1.139529806E1
9.110750417E0,-9.109084904E0,-1.543831724E0,7.650253716E0,1.199521680E1
9.120752417E0,-1.020149214E1,-1.350493539E0,6.840024923E0,1.235638360E1
9.130754417E0,-1.063537191E1,-1.108929565E0,5.878522230E0,1.220237207E1
9.140756417E0,-1.105121186E1,-8.515862949E-1,4.935195022E0,1.213303889E1
9.150758417E0,-1.125943354E1,-4.677543019E-1,4.191219860E0,1.202330910E1
9.160760417E0,-1.136874139E1,3.846927032E-2,3.497933334E0,1.189475928E1
9.170762417E0,-1.142975124E1,7.487923899E-1,2.842066065E0,1.180157799E1
9.180765417E0,-1.155589206E1,1.717354719E0,2.038826888E0,1.185937450E1
9.190767417E0,-1.169599953E1,2.375707640E0,1.760531144E0,1.206399029E1
9.200769417E0,-1.188066278E1,2.646946525E0,2.100227623E0,1.235181890E1
9.210771417E0,-1.203207760E1,2.699692796E0,2.482641227E0,1.257866210E1
9.220773417E0,-1.221067028E1,2.545170182E0,2.873203658E0,1.279975231E1
9.230775417E0,-1.241685363E1,2.088583916E0,3.113202624E0,1.297044592E1
9.240777417E0,-1.247058837E1,1.534439195E0,3.189469028E0,1.296313198E1
9.250779417E0,-1.239802209E1,1.017736389E0,3.199582372E0,1.284461235E1
9.260781417E0,-1.223088410E1,5.448322255E-1,3.079532018E0,1.262437664E1
9.270783417E0,-1.199322753E1,1.766930995E-1,2.956101973E0,1.235343134E1
9.280786417E0,-1.168317892E1,-2.836455077E-2,2.699125031E0,1.199094451E1
9.290788417E0,-1.124203925E1,-9.677289912E-2,2.297238737E0,1.147476001E1
9.300790417E0,-1.050879840E1,6.759315513E-2,1.583173399E0,1.062759854E1
9.310792417E0,-9.834256589E0,1.947723066E-1,9.204302426E-1,9.879156378E0
9.320794417E0,-9.487712583E0,1.699641968E-1,4.632630555E-1,9.500536329E0
9.330796417E0,-9.193947299E0,1.007064125E-1,1.493903665E-1,9.195712381E0
9.340798417E0,-8.981309209E0,5.948405374E-2,-1.644669735E-1,8.983011903E0
9.350800417E0,-8.831029335E0,1.870854107E-2,-5.454306149E-1,8.847876789E0
9.360802417E0,-8.659831046E0,-7.447201149E-2,-8.728008704E-1,8.704022127E0
9.370805417E0,-8.318206303E0,-2.129535841E-1,-1.036764106E0,8.385271918E0
9.380807417E0,-7.719699342E0,-5.226885640E-1,-1.126261443E0,7.818914637E0
9.390809417E0,-6.226987631E0,-1.717080485E0,-5.244180608E-1,6.480644617E0
9.400811417E0,-6.964150786E-1,-2.245016377E0,1.193507785E0,2.636200547E0
9.410813417E0,8.794870153E0,-9.340579095E-1,2.155893116E0,9.103300518E0
9.420815417E0,1.865629349E1,-1.552838337E0,1.478867404E0,1.877912784E1
9.430817417E0,3.333875374E1,-4.395981166E0,-1.016005760E1,3.512867663E1
9.440819417E0,6.775919559E1,1.464079533E1,-2.835274173E1,7.489685867E1
9.450821417E0,6.125764844E1,1.207885065E1,-1.687155604E1,6.467648358E1
9.460823417E0,3.883592699E1,3.340805786E0,-8.490138416E0,3.989326584E1
9.470826417E0,2.300475901E1,2.708108693E-1,-3.336684376E0,2.324705870E1
9.480828417E0,1.400261734E1,-9.179668837E-1,-2.489321671E0,1.425176053E1
9.490830417E0,1.131151703E1,5.592447350E-1,-3.894097398E0,1.197610817E1
9.500832417E0,1.135879060E1,2.559092110E0,-5.494330925E0,1.287473296E1
9.510834417E0,1.275521680E1,3.334997747E0,-7.839015870E0,1.533844631E1
9.520836417E0,1.262194238E1,3.891287811E0,-9.163192114E0,1.607543592E1
9.530838417E0,1.102372994E1,4.212359299E0,-9.125460616E0,1.491779555E1
9.540840417E0,8.849522324E0,4.352576115E0,-8.173653191E0,1.280888640E1
9.550842417E0,6.257190254E0,4.476890551E0,-6.208672982E0,9.886485679E0
9.560845417E0,4.304321383E0,4.706475627E0,-3.777532277E0,7.412681397E0
9.570847417E0,2.438005337E0,4.517136059E0,-1.409857834E0,5.323165159E0
9.580849417E0,1.082695009E0,4.055424124E0,5.130586749E-1,4.228702225E0
9.590851417E0,-2.214059901E-1,3.215101759E0,1.384763923E0,3.507630405E0
9.600853417E0,-1.843668026E0,1.943573552E0,1.705450373E0,3.175712663E0
9.610855417E0,-3.584184735E0,4.742844723E-1,1.790247864E0,4.034391328E0
9.620857417E0,-5.062906398E0,-9.656407678E-1,2.113415871E0,5.570638198E0
9.630859417E0,-6.469968678E0,-2.270842359E0,2.630433404E0,7.344140494E0
9.640861417E0,-7.624494392E0,-2.946757538E0,3.012546315E0,8.711585964E0
9.650864417E0,-8.508591059E0,-3.012322367E0,3.096352703E0,9.542411012E0
9.660866417E0,-9.189662459E0,-2.734990098E0,3.301777960E0,1.014060179E1
9.670868417E0,-9.578586500E0,-2.163064872E0,3.621166913E0,1.046618454E1
9.680870417E0,-1.000188340E1,-1.472364131E0,2.061980839E0,1.031781433E1
9.690872417E0,-1.070469416E1,-8.850116839E-1,-1.719452700E-1,1.074259224E1
9.700874417E0,-1.008135992E1,-1.395677313E0,6.281783059E0,1.196003894E1
9.710876000E0,-9.827062175E0,-1.574775335E0,7.576053718E0,1.250790383E1
9.720878000E0,-9.754908704E0,-1.618471724E0,8.037283843E0,1.274266950E1
9.730880000E0,-9.849085128E0,-2.107798305E0,9.531249197E0,1.386693920E1
9.740882000E0,-1.015396831E1,-2.682840536E0,1.075096669E1,1.502943746E1
9.750885000E0,-1.060218896E1,-3.116199907E0,1.058072851E1,1.529931137E1
9.760887000E0,-1.082876740E1,-3.310918328E0,9.589959919E0,1.483885827E1
9.770889000E0,-1.065862980E1,-3.176325949E0,7.973973116E0,1.368501673E1
9.780891000E0,-9.886018481E0,-2.698016107E0,6.466283178E0,1.211715604E1
9.790893000E0,-9.653921442E0,-2.646425831E0,5.988755693E0,1.166477448E1
9.800895000E0,-9.742540088E0,-2.775634094E0,6.028793333E0,1.178845117E1
9.810897000E0,-9.728678679E0,-2.924034673E0,5.833693382E0,1.171448446E1
9.820899000E0,-9.631622500E0,-3.121570575E0,5.305662911E0,1.143076611E1
9.830901000E0,-9.445545972E0,-3.232433199E0,4.731753432E0,1.104791626E1
9.840903000E0,-9.136245221E0,-3.111753684E0,4.032273535E0,1.046007732E1
9.850906000E0,-8.807993059E0,-2.813812904E0,3.310580066E0,9.821314839E0
9.860908000E0,-8.447954848E0,-2.441208734E0,3.012274127E0,9.295226550E0
9.870910000E0,-8.297975521E0,-2.200149375E0,2.777612207E0,9.022870086E0
9.880912000E0,-8.295279370E0,-2.026144277E0,2.277108089E0,8.837541610E0
9.890914000E0,-8.114655955E0,-1.977932230E0,1.967693317E0,8.580890056E0
9.900916000E0,-7.720940121E0,-2.123717788E0,1.900521381E0,8.230132144E0
9.910918000E0,-7.136362397E0,-2.014932387E0,2.194980144E0,7.733405370E0
9.920920000E0,-6.378943902E0,-1.535665941E0,2.987282835E0,7.209233935E0
9.930922000E0,-5.543314805E0,-1.148048315E0,3.985342028E0,6.923099381E0
9.940925000E0,-4.175507222E0,-8.167887837E-1,4.680459902E0,6.325243820E0
9.950927000E0,-1.809151912E0,-2.454859936E-1,5.404222409E0,5.704289075E0
9.960929000E0,2.085211827E0,3.576366131E-1,5.770407797E0,6.146024606E0
9.970931000E0,8.464875521E0,-3.160613018E-1,5.055271103E0,9.864571874E0
9.980933000E0,2.049098253E1,-1.587940342E0,3.663140273E0,2.087631472E1
9.990935000E0,3.700228460E1,-2.434242069E0,-3.936845514E-1,3.708435772E1
1.000093700E1,5.310661579E1,2.722571781E-1,-1.127432055E1,5.429085621E1
1.001093900E1,5.837601894E1,4.881616400E0,-2.083107531E1,6.217333403E1
1.002094100E1,4.089958014E1,3.465680970E0,-2.274427959E1,4.692641957E1
1.003094400E1,2.342637367E1,3.333345031E0,-1.626609557E1,2.871396938E1
1.004094600E1,9.334047756E0,7.135111678E0,-6.230070283E0,1.329842253E1
1.005094800E1,-1.075474867E0,1.765588840E0,-2.411864190E1,2.420708238E1
1.006095000E1,5.020123490E0,-2.244094563E0,-3.438203032E1,3.481898346E1
1.007095200E1,1.501249230E1,-8.891561173E-1,-2.577063001E1,2.983774279E1
1.008095400E1,1.838792500E1,-7.322248891E-1,-1.620643292E1,2.452142751E1
1.009095600E1,1.845998843E1,2.127361773E-1,-7.646307430E0,1.998205312E1
1.010095800E1,1.664423150E1,7.878357106E-1,-7.895091838E-1,1.668156024E1
1.011096000E1,1.269786380E1,9.027451926E-1,3.415462158E0,1.318013944E1
1.012096200E1,8.161745921E0,7.659492901E-1,5.288934027E0,9.755695667E0
1.013096500E1,4.600647163E0,4.501208536E-1,6.225598918E0,7.754137282E0
1.014096700E1,2.103152838E0,1.819653511E-1,6.358999050E0,6.700241202E0
1.015096900E1,1.010393018E-1,-4.768506691E-2,6.188069149E0,6.189077685E0
1.016097100E1,-1.610061235E0,-3.100492678E-1,6.218883975E0,6.431403084E0
1.017097300E1,-3.128396029E0,-5.881023522E-1,6.070306225E0,6.854293820E0
1.018097500E1,-4.569254631E0,-6.654481515E-1,5.753764282E0,7.377446208E0
1.019097700E1,-5.896787762E0,-5.331628641E-1,5.560476383E0,8.122515999E0
1.020097900E1,-7.026251140E0,-3.390459026E-1,5.114706881E0,8.697320489E0
1.021098100E1,-7.977783161E0,-2.808312428E-1,4.435816785E0,9.132379805E0
1.022098400E1,-8.739270149E0,-4.004480258E-1,3.881944252E0,9.571034037E0
1.023098600E1,-9.167112672E0,-5.928169622E-1,2.386188774E0,9.491116034E0
1.024098800E1,-1.013436026E1,7.979528555E-1,-3.724948851E0,1.082669065E1
1.025099000E1,-1.142066350E1,8.807959145E-1,-3.890827342E0,1.209735069E1
1.026099200E1,-1.069385342E1,-8.239910915E-1,2.863462781E0,1.110121081E1
1.027099400E1,-1.012719391E1,-2.256743114E0,4.811442503E0,1.143691064E1
1.028099600E1,-1.000127646E1,-3.731971357E0,5.660104752E0,1.208262913E1
1.029099800E1,-1.044162091E1,-5.227072824E0,6.584677016E0,1.340551040E1
1.030100000E1,-1.136037169E1,-6.727604016E0,6.757418969E0,1.483177035E1
1.031100200E1,-1.221412482E1,-8.217951697E0,5.568800479E0,1.573947629E1
1.032100500E1,-1.277865010E1,-9.815606310E0,4.299908197E0,1.667720708E1
1.033100700E1,-1.303192107E1,-1.078945306E1,3.302886300E0,1.723810669E1
1.034100900E1,-1.283075347E1,-1.100437683E1,2.333062580E0,1.706363750E1
1.035101100E1,-1.248974385E1,-1.089034794E1,1.817302930E0,1.667021204E1
1.036101300E1,-1.212526000E1,-1.071702945E1,1.567535605E0,1.625834611E1
1.037101500E1,-1.189381668E1,-1.052001102E1,1.504710635E0,1.594984832E1
1.038101700E1,-1.167278023E1,-9.980855641E0,1.550620780E0,1.543618161E1
1.039101900E1,-1.148213411E1,-9.111078220E0,1.662550521E0,1.475178715E1
1.040102100E1,-1.122204411E1,-8.080192466E0,1.915159446E0,1.396035888E1
1.041102400E1,-1.077237568E1,-6.988195122E0,1.927238771E0,1.298434435E1
1.042102600E1,-1.003947632E1,-6.022460799E0,1.884025508E0,1.185793704E1
1.043102800E1,-9.380499791E0,-5.435639498E0,1.862177972E0,1.100034817E1
1.044103000E1,-8.958999742E0,-5.137613348E0,1.988586588E0,1.051728215E1
1.045103200E1,-8.498578287E0,-4.851180473E0,2.292039831E0,1.005053389E1
1.046103400E1,-8.163924009E0,-4.596188661E0,2.451024309E0,9.684117182E0
1.047103600E1,-7.922850909E0,-4.364192778E0,2.574108052E0,9.404455189E0
1.048103800E1,-7.670181026E0,-4.188557038E0,2.712494105E0,9.150590763E0
1.049104000E1,-7.336802026E0,-4.079633351E0,2.756272209E0,8.835672512E0
1.050104200E1,-7.075189996E0,-4.375555673E0,2.877358689E0,8.802442499E0
1.051104500E1,-6.786708841E0,-4.991468040E0,3.291760218E0,9.044880067E0
1.052104700E1,-5.134074029E0,-4.033134538E0,5.084435846E0,8.275045511E0
1.053104900E1,1.642754655E1,3.332955022E1,1.003824109E0,3.717164062E1
1.054105100E1,5.288855674E1,7.054373324E1,-1.625768026E1,8.965450296E1
1.055105300E1,4.405263738E1,1.065899817E1,-8.525634524E0,4.611871146E1
1.056105500E1,4.477640574E1,6.725777346E0,-1.608526224E1,4.805099638E1
1.057105700E1,5.286012524E1,9.291126854E0,-2.732910711E1,6.022788369E1
1.058105900E1,4.286143793E1,-2.591218467E-1,-2.523445203E1,4.973879346E1
1.059106100E1,2.256781062E1,-5.996493899E0,-1.173083256E1,2.613190479E1
1.060106400E1,1.858084102E1,4.985380504E0,-6.288393921E0,2.023970281E1
1.061106600E1,1.445781490E1,9.533361211E0,-5.691753391E0,1.822935666E1
1.062106800E1,8.221097499E0,6.244908763E0,-9.631272252E0,1.411902032E1
1.063107000E1,-9.263112259E-1,4.431668770E0,-1.271604747E1,1.349798518E1
1.064107200E1,-4.574901288E0,5.664353338E0,-1.461150428E1,1.632515476E1
1.065107400E1,1.728573772E0,7.960025167E0,-1.079747544E1,1.352536298E1
1.066107600E1,4.464761964E0,7.305436392E0,-3.239489619E0,9.154113461E0
1.067107800E1,-7.525132656E-2,4.684476939E0,1.807790095E0,5.021761841E0
1.068108000E1,-2.754980559E0,2.904372241E0,3.676877137E0,5.435505632E0
1.069108200E1,-2.214599599E0,2.195967739E0,4.165761083E0,5.203872702E0
1.070108500E1,-2.018323188E0,1.061690640E0,5.589854549E0,6.037159049E0
1.071108667E1,-1.421791416E0,9.980992466E-2,6.461790177E0,6.617113052E0
1.072108867E1,-3.440632083E0,-1.881716443E0,6.579708052E0,7.659723490E0
1.073109067E1,-6.246425530E0,-3.815949360E0,6.637456323E0,9.881048925E0
1.074109267E1,-7.714001815E0,-4.848413571E0,6.130144292E0,1.098142100E1
1.075109467E1,-8.677512442E0,-5.227556974E0,5.103474380E0,1.134336920E1
1.076109667E1,-9.915778470E0,-4.221961304E0,-3.034429520E0,1.119622179E1
1.077109867E1,-1.050734362E1,-3.944688969E0,-6.007795982E0,1.273021812E1
1.078110067E1,-8.445552812E0,-5.739950820E0,1.443181701E0,1.031296132E1
1.079110367E1,-7.196942475E0,-7.088705835E0,1.009791105E1,1.428333081E1
1.080110567E1,-7.175167444E0,-8.045705588E0,1.439925737E1,1.798763517E1
1.081110767E1,-7.263517118E0,-8.695987304E0,1.632954722E1,1.987543681E1
1.082110967E1,-7.378602601E0,-9.068805774E0,1.661619176E1,2.031710716E1
1.083111167E1,-7.759624715E0,-9.398861217E0,1.611029067E1,2.020128296E1
1.084111367E1,-7.945078515E0,-9.606068999E0,1.483927087E1,1.938052616E1
1.085111567E1,-7.780646625E0,-9.997742400E0,1.396758083E1,1.885700478E1
1.086111767E1,-6.898909893E0,-9.132666140E0,1.169840039E1,1.636621888E1
1.087111967E1,-5.044501117E0,-7.663303531E0,9.575123194E0,1.326107826E1
1.088112167E1,-4.484301605E0,-7.100023706E0,8.409228739E0,1.188420908E1
1.089112467E1,-4.137364665E0,-6.927263042E0,6.768911086E0,1.053199492E1
1.090112667E1,-3.827079828E0,-7.005130413E0,5.369782308E0,9.620444592E0
1.091112867E1,-3.271997214E0,-7.051570169E0,4.827251912E0,9.150572039E0
1.092113067E1,-3.348067735E0,-6.774820282E0,5.826470901E0,9.542301115E0
1.093113267E1,-4.300646408E0,-5.508369505E0,7.817740191E0,1.048593133E1
1.094113467E1,-7.003259304E0,-5.052686049E0,7.639179089E0,1.152962854E1
1.095113667E1,-9.150904775E0,-4.616589304E0,6.605327042E0,1.219353519E1
1.096113867E1,-1.219566633E1,-4.624889134E0,6.274329028E0,1.447380673E1
1.097114067E1,-1.411812909E1,-4.507227660E0,3.438991939E0,1.521391914E1
1.098114367E1,-1.259888096E1,-3.304441075E0,2.502536379E0,1.326325076E1
1.099114567E1,-9.300841418E0,-2.082732899E0,2.831082070E0,9.942758827E0
1.100114767E1,-6.553165786E0,-1.057454333E0,3.061934237E0,7.310104839E0
1.101114967E1,-4.489737761E0,-4.716203347E-1,2.532402202E0,5.176217906E0
1.102115167E1,-2.847568295E0,-5.130800173E-1,2.880281712E0,4.082636286E0
1.103115367E1,-1.814286937E0,-6.639130381E-1,2.988141499E0,3.558287120E0
1.104115567E1,6.083864164E-1,-7.746566713E-2,2.417293037E0,2.493880629E0
1.105115767E1,1.325848548E0,2.365780529E-1,2.777673310E0,3.086958465E0
1.106115967E1,3.796708805E0,1.253947676E0,2.673240577E0,4.809739879E0
1.107116267E1,1.040218846E1,2.184454571E0,-4.767737782E-1,1.063976878E1
1.108116467E1,1.181352389E1,1.421972972E0,-5.134183956E0,1.295921289E1
1.109116667E1,3.903779627E1,1.551165273E1,-1.741211710E1,4.547243923E1
1.110116867E1,7.747419471E1,2.914485468E1,-3.494253038E1,8.984794839E1
1.111117067E1,6.076466735E1,8.614780589E0,-3.996858646E1,7.323965556E1
1.112117267E1,2.194003952E1,-1.069492346E1,-2.628920787E1,3.587295879E1
1.113117467E1,1.590226661E1,-2.681564088E0,-2.079662819E1,2.631677437E1
1.114117667E1,2.149580549E1,5.437981893E0,-1.268179097E1,2.554347516E1
1.115117867E1,1.840740793E1,7.002631313E0,-5.420161918E0,2.042664111E1
1.116118167E1,1.677204111E1,7.615255206E0,-1.890455691E0,1.851667620E1
1.117118367E1,1.405976335E1,6.494822268E0,-3.733736631E-1,1.549190336E1
1.118118567E1,1.160578985E1,5.203123798E0,-7.416289660E-1,1.274036377E1
1.119118767E1,8.591040308E0,3.795038548E0,-1.591571755E0,9.525827618E0
1.120118967E1,5.437780164E0,2.546647481E0,-2.098772689E0,6.360795021E0
1.121119167E1,3.127616596E0,1.770523743E0,-2.203693957E0,4.215804425E0
1.122119367E1,9.896044117E-1,1.113302990E0,-1.387807399E0,2.035870776E0
1.123119567E1,-1.177519305E0,4.569789067E-1,-5.038779616E-2,1.264088749E0
1.124119767E1,-4.621502427E0,-5.888384436E-1,1.370697861E0,4.856318361E0
1.125119967E1,-8.997661532E0,-1.899032387E0,2.450228357E0,9.516714562E0
1.126120267E1,-8.697692937E0,-1.464221006E0,2.676671138E0,9.217286692E0
1.127120467E1,-7.443839986E0,-1.090532616E0,4.105982074E0,8.570828660E0
1.128120667E1,-3.574422224E0,-7.250076708E-1,7.663407612E0,8.487045810E0
1.129120867E1,-1.553189462E0,-1.345542116E0,1.019039880E1,1.039553312E1
1.130121067E1,-3.969904502E0,-2.630940065E0,1.212516995E1,1.302696180E1
1.131121267E1,-6.897016565E0,-3.534080237E0,1.357058529E1,1.562751886E1
1.132121467E1,-8.837839587E0,-4.330259340E0,1.409924141E1,1.719439336E1
1.133121667E1,-9.723423201E0,3.100738407E0,1.013539287E1,1.438352273E1
1.134121867E1,-1.191660328E1,4.414717692E0,6.311282846E0,1.418899070E1
1.135122167E1,-1.329584919E1,-3.490843293E0,9.176685734E0,1.652807168E1
1.136122367E1,-1.327848880E1,-8.170033034E-1,1.286113677E1,1.850390765E1
1.137122567E1,-1.392903364E1,-1.209611017E0,1.489688349E1,2.043032733E1
1.138122767E1,-1.457192799E1,-1.908600771E0,1.502639932E1,2.101848041E1
1.139122967E1,-1.495307991E1,-2.179507827E0,1.395543967E1,2.056937407E1
1.140123167E1,-1.495713086E1,-2.068638186E0,1.350892640E1,2.026045706E1
1.141123367E1,-1.325090398E1,-1.594221421E0,1.283395306E1,1.851589451E1
1.142123567E1,-1.035866529E1,-1.848392722E0,9.935004115E0,1.447144807E1
1.143123767E1,-8.501734614E0,-3.139575321E0,7.750505397E0,1.192504753E1
1.144123967E1,-7.180561500E0,-4.080212518E0,7.220054764E0,1.096985818E1
1.145124267E1,-6.370930878E0,-4.000834226E0,7.325661911E0,1.050051223E1
1.146124467E1,-5.749172464E0,-3.322482659E0,7.272127143E0,9.847624496E0
1.147124667E1,-4.941370266E0,-2.598418436E0,7.532362154E0,9.375787865E0
1.148124867E1,-4.005963696E0,-1.956891171E0,6.951096293E0,8.258020820E0
1.149125067E1,-3.191921934E0,-1.417998620E0,5.803076191E0,6.773092278E0
1.150125267E1,-3.892112560E0,-1.378076463E0,4.031585026E0,5.770728961E0
1.151125467E1,-6.138849041E0,-1.881016092E0,-8.991392148E-1,6.483219912E0
1.152125667E1,-7.526776308E0,-2.446941052E0,-1.008491386E1,1.281972580E1
1.153125867E1,-8.655391256E0,-2.594731182E0,-1.878723136E1,2.084726577E1
1.154126067E1,-8.400148598E0,-3.150684446E0,-1.790409714E1,2.002613301E1
1.155126367E1,-6.960863482E0,-2.953209355E0,-8.347400866E0,1.126295552E1
1.156126567E1,-4.971830751E0,-1.294477651E0,-1.416935889E0,5.329397782E0
1.157126767E1,-2.859791899E0,2.538312860E-1,3.710193987E0,4.691308927E0
1.158126967E1,-6.683525366E-1,1.692595269E0,4.736038857E0,5.073621774E0
1.159127167E1,1.366362736E0,2.727414445E0,2.464204956E0,3.921484763E0
1.160127367E1,3.324608122E0,2.853812537E0,7.731071591E-2,4.382150397E0
1.161127567E1,8.331986436E0,2.995395847E0,-1.603013002E0,8.998002274E0
1.162127767E1,1.714894094E1,4.032914683E0,-2.609939790E-1,1.761870296E1
1.163127967E1,2.689701425E1,5.577970667E0,-1.169108085E0,2.749418022E1
1.164128267E1,3.876146153E1,8.235871659E0,-4.227886580E0,3.985166881E1
1.165128467E1,4.474274916E1,7.182932546E0,-7.557437938E0,4.594151707E1
1.166128667E1,4.151422541E1,-2.724873245E0,-1.184069940E1,4.325572804E1
1.167128867E1,3.377924554E1,-7.658784803E0,-1.528684015E1,3.786003032E1
1.168129067E1,2.563339586E1,-5.161120909E-1,-1.272398799E1,2.862232040E1
1.169129267E1,2.206794151E1,4.449299879E0,-4.038145602E0,2.287131242E1
1.170129467E1,1.890254079E1,4.015923843E0,-1.283191940E0,1.936698929E1
1.171129675E1,1.629672446E1,4.427949064E0,-1.295550030E-1,1.688806518E1
1.172129875E1,1.376885034E1,4.963334747E0,1.991958677E0,1.477104705E1
1.173130175E1,1.054040845E1,4.729662468E0,2.887814096E0,1.190837468E1
1.174130375E1,7.525354266E0,3.692362318E0,2.931812639E0,8.880316529E0
1.175130575E1,5.245250648E0,2.485739082E0,2.498722824E0,6.319427893E0
1.176130775E1,3.099939385E0,1.126172711E0,1.601702056E0,3.666515872E0
1.177130975E1,8.679349637E-1,-2.894006297E-1,9.544784331E-1,1.322154645E0
1.178131175E1,-1.215565383E0,-1.347351683E0,3.989800823E-1,1.857993774E0
1.179131375E1,-2.948410546E0,-1.895048241E0,1.277487981E-1,3.507228583E0
1.180131575E1,-4.327211478E0,-1.891730969E0,2.419998106E-1,4.728844377E0
1.181131775E1,-5.235434343E0,-1.407916412E0,4.494696200E-1,5.440039000E0
1.182132075E1,-6.454853625E0,-1.048298762E0,1.077032419E0,6.627523252E0
1.183132275E1,-7.967866868E0,-1.039487008E0,2.035663691E0,8.289231710E0
1.184132475E1,-9.080256377E0,-1.138296548E0,2.795981820E0,9.568923097E0
1.185132675E1,-9.687470427E0,-1.324201387E0,3.146924686E0,1.027150075E1
1.186132875E1,-1.027722060E1,-1.600977001E0,3.035840453E0,1.083516118E1
1.187133075E1,-1.113362719E1,-1.938274806E0,3.053476825E0,1.170633522E1
1.188133275E1,-1.214046744E1,-2.286446677E0,3.109669737E0,1.273926348E1
1.189133475E1,-1.350166767E1,-2.759842519E0,3.185025144E0,1.414412054E1
1.190133675E1,-1.431004523E1,-2.049190639E0,2.857616150E0,1.473575743E1
1.191133875E1,-1.502878498E1,-1.113211846E0,3.072691945E0,1.538002127E1
1.192134175E1,-1.595739767E1,-7.237530045E-1,3.635802201E0,1.638235076E1
1.193134375E1,-1.649725589E1,-2.784602882E-1,4.359554182E0,1.706583443E1
1.194134575E1,-1.620450100E1,2.291210805E-1,5.394251736E0,1.708028984E1
1.195134775E1,-1.494613693E1,7.406049724E-1,6.711332384E0,1.640053314E1
1.196134975E1,-1.323817342E1,9.855853280E-1,7.786910162E0,1.539014567E1
1.197135175E1,-1.218463614E1,8.058041313E-1,8.733306574E0,1.501283857E1
1.198135375E1,-1.122488352E1,6.786635897E-1,9.612706758E0,1.479400978E1
1.199135575E1,-1.037854583E1,5.759229675E-1,9.498953855E0,1.408105199E1
1.200135775E1,-9.649759979E0,3.860113965E-1,8.007579403E0,1.254544540E1
1.201136075E1,-9.160088412E0,3.629235193E-2,6.158061823E0,1.103767468E1
1.202136275E1,-8.825749884E0,-3.777762145E-1,4.711949497E0,1.001194506E1
1.203136475E1,-8.607746973E0,-7.849102025E-1,3.473359534E0,9.315235822E0
1.204136675E1,-8.285891665E0,-1.170375396E0,2.421376294E0,8.711420229E0
1.205136875E1,-7.897314364E0,-1.398274792E0,1.483311142E0,8.156160770E0
1.206137075E1,-7.581388133E0,-1.533117725E0,6.384047791E-1,7.761150472E0
1.207137275E1,-7.409333228E0,-1.688854951E0,-1.137072945E-1,7.600222318E0
1.208137475E1,-7.077507248E0,-1.710373144E0,-7.100776827E-1,7.315783994E0
1.209137675E1,-6.593625594E0,-1.470280622E0,-1.030244315E0,6.833668629E0
1.210137875E1,-5.984021203E0,-1.125857985E0,-1.175349403E0,6.201412112E0
1.211138175E1,-5.386922836E0,-1.061205906E0,-1.462256488E0,5.681838581E0
1.212138375E1,-4.880284404E0,-1.005652534E0,-1.285008085E0,5.145848683E0
1.213138575E1,-4.597939317E0,-1.300077822E0,-8.529713541E-1,4.853741695E0
1.214138775E1,-4.879859896E0,-2.848761712E0,-1.789398263E0,5.927092208E0
1.215138975E1,-5.090092442E0,-4.610462299E0,-3.504339836E0,7.710110334E0
1.216139175E1,-2.632629325E0,-5.905259208E0,-6.857956579E0,9.425199835E0
1.217139375E1,8.155836141E0,-6.070861711E0,-8.892534442E0,1.350741255E1
1.218139575E1,2.511339362E1,-5.602686263E0,-4.764237054E0,2.616812158E1
1.219139775E1,4.507746250E1,-4.839162398E0,1.129113481E1,4.672135318E1
1.220140075E1,6.113487562E1,3.181598091E0,1.665484888E1,6.344272673E1
1.221140275E1,7.834322193E1,3.633634287E1,3.268005320E0,8.642146779E1
1.222140475E1,5.046527879E1,2.534548832E1,-2.720073851E0,5.653792482E1
1.223140675E1,2.065686804E1,-2.031876157E0,-5.109519816E0,2.137619963E1
1.224140875E1,1.413567658E1,2.212968665E-1,-3.724150706E0,1.461969984E1
1.225141075E1,1.112562820E1,2.661482119E0,-1.802310085E0,1.158064815E1
1.226141275E1,1.040845083E1,2.784598168E0,5.483635783E-1,1.078844466E1
1.227141475E1,1.220234852E1,2.670946422E0,1.193553540E0,1.254814067E1
1.228141675E1,1.313736041E1,2.415800828E0,3.666450163E-1,1.336266293E1
1.229141975E1,1.238860807E1,2.487588556E0,-7.069131696E-1,1.265564826E1
1.230142175E1,1.054321278E1,2.989569681E0,-1.221802608E0,1.102677034E1
1.231142375E1,7.906303289E0,3.316693330E0,-1.234789274E0,8.662262458E0
1.232142575E1,4.915202222E0,2.970703055E0,-1.066698342E0,5.841415486E0
1.233142775E1,1.936624137E0,2.247999772E0,-2.242711258E-1,2.975619861E0
1.234142975E1,-8.160064262E-1,1.505351198E0,5.588911977E-1,1.801196293E0
1.235143175E1,-3.338004093E0,7.875565061E-1,1.313600678E0,3.672609878E0
1.236143375E1,-5.488417636E0,3.583904654E-2,2.338867842E0,5.966097164E0
1.237143575E1,-7.251498751E0,-7.037309687E-1,3.397115057E0,8.038648028E0
1.238143875E1,-8.552648075E0,-1.458003808E0,4.125089313E0,9.606764598E0
1.239144075E1,-9.214895534E0,-1.985583458E0,4.292322897E0,1.035764825E1
1.240144275E1,-9.563240483E0,-2.393061153E0,4.534097078E0,1.085082239E1
1.241144475E1,-9.983469347E0,-2.764115079E0,4.940144105E0,1.147671626E1
1.242144675E1,-1.047536169E1,-3.103665816E0,5.223073913E0,1.210976651E1
1.243144875E1,-9.899216816E0,-3.115949354E0,5.798342870E0,1.188799453E1
1.244145075E1,-9.994764998E0,-3.422932853E0,6.493145286E0,1.240051339E1
1.245145275E1,-1.020924788E1,-3.705643099E0,7.398302456E0,1.314136265E1
1.246145475E1,-1.032172493E1,-3.843740007E0,8.467962266E0,1.389311799E1
1.247145675E1,-1.024766175E1,-3.836428941E0,9.341543301E0,1.438739690E1
1.248145975E1,-1.021503429E1,-3.647840449E0,9.695028538E0,1.454810104E1
1.249146175E1,-1.022827940E1,-3.137897170E0,9.059313405E0,1.401910331E1
1.250146375E1,-1.040848825E1,-2.744214081E0,7.538967168E0,1.314166521E1
1.251146575E1,-1.058092849E1,-2.377012007E0,5.366227201E0,1.209969537E1
1.252146775E1,-1.083246050E1,-1.948023137E0,2.764762366E0,1.134816750E1
1.253146975E1,-1.111593118E1,-1.577709761E0,6.220291400E-1,1.124455487E1
1.254147175E1,-1.150333962E1,-1.383747385E0,-1.094043358E0,1.163780521E1
1.255147375E1,-1.192974431E1,-1.142597394E0,-2.111229159E0,1.216887903E1
1.256147575E1,-1.276865370E1,-8.863820520E-1,-2.861596935E0,1.311536989E1
1.257147775E1,-1.345503028E1,-4.235492054E-1,-3.479384505E0,1.390407675E1
1.258148075E1,-1.359394375E1,1.727097934E-1,-3.749234092E0,1.410254912E1
1.259148275E1,-1.326194352E1,7.221037243E-1,-3.795538777E0,1.381327964E1
1.260148475E1,-1.280600337E1,1.195263704E0,-3.409904965E0,1.330600727E1
1.261148675E1,-1.215289277E1,1.709818828E0,-2.929412942E0,1.261735881E1
1.262148875E1,-1.147422633E1,2.256954637E0,-2.446224183E0,1.194720582E1
1.263149075E1,-1.089747686E1,2.827610286E0,-2.422165230E0,1.151595703E1
1.264149275E1,-1.044972048E1,3.271677371E0,-2.492997231E0,1.123011870E1
1.265149475E1,-1.013312883E1,3.551379224E0,-2.354115334E0,1.099247258E1
1.266149675E1,-9.955165315E0,3.724469087E0,-1.953260635E0,1.080704463E1
1.267149875E1,-9.769173571E0,3.864796123E0,-1.535102270E0,1.061743567E1
1.268150175E1,-9.558435826E0,4.017540891E0,-1.115777093E0,1.042829271E1
1.269150375E1,-9.170609307E0,4.080519497E0,-5.587096417E-1,1.005300308E1
1.270150575E1,-8.663100809E0,3.829722477E0,-2.195554926E-1,9.474402066E0
1.271150775E1,-7.885424051E0,3.240588018E0,4.227216782E-1,8.535807917E0
1.272150975E1,-6.083969999E0,2.304773605E0,2.797741832E0,7.081951121E0
1.273151175E1,-2.832823371E0,1.035553002E0,6.874291946E0,7.506873386E0
1.274151375E1,4.407340552E0,-1.009081487E0,1.304667477E1,1.380791870E1
1.275151575E1,2.680251856E1,-6.840833008E0,2.203356924E1,3.536453267E1
1.276151775E1,6.818658028E1,-9.615864254E0,1.280757277E1,7.004219082E1
1.277152075E1,7.646037639E1,-2.381102456E1,5.715980744E0,8.028590464E1
1.278152275E1,5.513762509E1,-2.951189142E1,4.184682088E0,6.267871250E1
1.279152475E1,5.447543026E1,-1.879928832E1,1.363892287E-1,5.762815584E1
1.280152675E1,5.254022641E1,2.625001633E0,-2.956791477E1,6.034589968E1
1.281152875E1,4.466941572E1,1.991786652E1,-3.623008727E1,6.086622488E1
1.282153075E1,2.357870299E1,5.929490654E0,5.379034942E-1,2.431878768E1
1.283153275E1,1.611175130E0,6.950337909E0,-2.899285163E0,7.701229564E0
1.284153475E1,-3.057400073E1,-2.888239481E0,-9.166421531E0,3.204894275E1
1.285153675E1,-9.387788345E0,2.143825340E0,-1.034528336E1,1.413334514E1
1.286153975E1,7.135747855E0,1.086492307E1,-8.753149685E0,1.567109059E1
1.287154175E1,7.849043260E0,1.093378222E1,-5.436977341E0,1.451605306E1
1.288154375E1,3.619582610E0,6.175125167E0,-9.709506243E-1,7.223316012E0
1.289154575E1,-5.173914617E-1,2.588695978E0,1.414890532E0,2.995155424E0
1.290154775E1,-2.655827569E0,6.307598370E-1,3.372747663E0,4.338975092E0
1.291154975E1,-3.508362136E0,-6.542512634E-2,5.210096603E0,6.281559674E0
1.292155175E1,-3.851513588E0,-1.500644134E-1,6.670228212E0,7.703805595E0
1.293155375E1,-4.236489589E0,-1.470566514E-1,7.485340015E0,8.602312760E0
1.294155575E1,-4.754821283E0,-3.348478575E-1,7.958810701E0,9.277020874E0
1.295155875E1,-5.493333390E0,-7.900839651E-1,8.295295157E0,9.980624537E0
1.296156075E1,-6.237223767E0,-1.221934462E0,8.588196223E0,1.068425002E1
1.297156275E1,-6.840672210E0,-1.496210830E0,8.867445794E0,1.129889543E1
1.298156475E1,-7.175312455E0,-1.466411227E0,9.222924346E0,1.177700319E1
1.299156675E1,-7.341234215E0,-1.188628430E0,9.639969985E0,1.217520343E1
1.300156875E1,-7.571775895E0,-9.681126782E-1,9.861237981E0,1.247048704E1
1.301157075E1,-7.924216819E0,-8.156553009E-1,9.679639835E0,1.253610518E1
1.302157275E1,-8.371445201E0,-8.119730169E-1,9.283015012E0,1.252656228E1
1.303157475E1,-9.195685092E0,-1.354525048E0,8.963441287E0,1.291273178E1
1.304157675E1,-1.016255202E1,-1.481386969E0,7.185880712E0,1.253430702E1
1.305157975E1,-1.096893919E1,-1.113066762E0,5.319757040E0,1.224158321E1
1.306158175E1,-1.165761724E1,-7.989232010E-1,3.940720464E0,1.233156907E1
1.307158375E1,-1.172970171E1,-3.259378338E-1,2.634010438E0,1.202622753E1
1.308158575E1,-1.131572703E1,3.197736990E-1,1.460291823E0,1.141404335E1
1.309158775E1,-1.028740879E1,2.151625671E0,-6.091885813E-1,1.052764852E1
1.310158975E1,-9.242670393E0,4.188773093E0,-1.977187441E0,1.033837735E1
1.311159175E1,-8.777670568E0,5.180973376E0,-2.436323824E0,1.047977383E1
1.312159375E1,-9.243718214E0,5.373585922E0,-2.738474454E0,1.103725484E1
1.313159575E1,-9.766451692E0,5.657563552E0,-2.852624090E0,1.164169525E1
1.314159775E1,-1.002333099E1,6.091168506E0,-2.766283519E0,1.205080173E1
1.315160075E1,-9.899799199E0,6.591784891E0,-2.887144005E0,1.223900538E1
1.316160275E1,-9.652764278E0,6.925240490E0,-2.994457369E0,1.225159536E1
1.317160475E1,-9.253591822E0,7.178657647E0,-3.141028939E0,1.212551648E1
1.318160675E1,-9.039267395E0,7.329872491E0,-3.057266405E0,1.203255017E1
1.319160875E1,-8.952475419E0,7.674449494E0,-2.436742339E0,1.204083487E1
1.320161075E1,-8.763613277E0,7.999731270E0,-1.989564535E0,1.203141659E1
1.321161275E1,-8.556802522E0,8.108505853E0,-1.582899749E0,1.189421322E1
1.322161475E1,-8.421014972E0,7.726404929E0,-1.301945130E0,1.150242963E1
1.323161675E1,-8.282407309E0,7.135314576E0,-9.561081983E-1,1.097383834E1
1.324161975E1,-8.087761102E0,7.075238528E0,-3.834200567E-1,1.075257601E1
1.325162175E1,-7.348273678E0,7.095000363E0,-1.490279853E-1,1.021559423E1
1.326162375E1,-6.828436911E0,6.223648286E0,-2.333455659E-1,9.242066803E0
1.327162575E1,-6.179898834E0,4.541006148E0,4.466641259E-1,7.681887481E0
1.328162775E1,-4.255254473E0,1.796056488E0,3.184049243E0,5.609917925E0
1.329162975E1,2.594806026E0,-1.772120326E0,9.541126898E0,1.004522430E1
1.330163175E1,3.274333878E1,-7.750640468E0,1.832096386E1,3.831261384E1
1.331163375E1,7.632572203E1,-2.005834471E1,1.223473157E1,7.986013832E1
1.332163575E1,6.733182026E1,-4.244119153E1,1.904720792E1,8.183901812E1
1.333163875E1,5.907911154E1,-5.089965674E1,1.299778854E1,7.905731455E1
1.334164075E1,4.672581130E1,-3.469544108E1,-6.431748937E0,5.855290316E1
1.335164275E1,4.372441679E1,-1.428020338E1,-2.071546650E1,5.044679757E1
1.336164475E1,4.788177309E1,1.317391486E1,-5.299539239E1,7.262732159E1
1.337164675E1,3.700627708E1,2.062493523E1,-2.083630739E1,4.721233104E1
1.338164875E1,-1.657105594E0,1.310984809E1,3.532536864E0,1.367819186E1
1.339165075E1,-4.073924013E1,-3.296922725E0,-1.173513494E1,4.252374369E1
1.340165275E1,-5.615598670E0,2.895965699E0,-1.413626131E1,1.548403854E1
1.341165475E1,1.071812755E1,9.633283110E0,-1.473622072E1,2.061151626E1
1.342165775E1,7.564130076E0,6.834042052E0,-6.227746015E0,1.194592043E1
1.343165975E1,2.966578429E0,3.448802397E0,3.358646518E-1,4.561538185E0
1.344166175E1,-2.986424464E-1,8.653235972E-1,4.775021074E0,4.861974753E0
1.345166375E1,-2.304535038E0,1.298211975E-1,8.600005260E0,8.904371160E0
1.346166575E1,-3.137419453E0,4.361066857E-1,1.106639941E1,1.151081169E1
1.347166775E1,-3.757269335E0,6.792818597E-1,1.234204318E1,1.291915348E1
1.348166975E1,-4.423899867E0,6.653423899E-1,1.302920797E1,1.377584229E1
1.349167175E1,-5.090895849E0,1.813402838E-1,1.350252019E1,1.443149876E1
1.350167375E1,-5.581712885E0,-2.809550576E-1,1.361186897E1,1.471453130E1
1.351167575E1,-5.860244418E0,-3.433150278E-1,1.356934100E1,1.478469970E1
1.352167875E1,-6.031446215E0,-6.028654754E-2,1.334777012E1,1.464735284E1
1.353168075E1,-6.317698411E0,2.837557277E-1,1.227079603E1,1.380457409E1
1.354168275E1,-6.855175059E0,3.462987158E-1,1.070871120E1,1.271966365E1
1.355168475E1,-8.552301335E0,-7.559774485E-1,9.477475863E0,1.278811592E1
1.356168675E1,-9.717416942E0,-1.001970103E0,7.394567839E0,1.225201084E1
1.357168875E1,-1.051014092E1,-4.833960423E-1,3.794776300E0,1.118467975E1
1.358169075E1,-1.199667856E1,-2.388078886E-1,9.198688368E-1,1.203426293E1
1.359169275E1,-1.254730618E1,7.743508619E-1,-1.629996148E0,1.267641113E1
1.360169475E1,-1.201620124E1,2.391477580E0,-3.147755576E0,1.264976769E1
1.361169675E1,-1.080528498E1,4.104255684E0,-4.264215331E0,1.232000936E1
1.362169975E1,-9.536742071E0,5.945393912E0,-4.927052189E0,1.227081910E1
1.363170175E1,-8.809834347E0,7.417575463E0,-4.801358395E0,1.247744563E1
1.364170375E1,-8.353427006E0,8.372847363E0,-4.462054996E0,1.264097506E1
1.365170575E1,-8.210071405E0,8.746151737E0,-4.489450078E0,1.280841929E1
1.366170775E1,-8.351157117E0,8.847692145E0,-4.753294575E0,1.306205538E1
1.367170975E1,-8.728665054E0,8.324486797E0,-4.408186060E0,1.284207064E1
1.368171175E1,-9.061839402E0,8.374688652E0,-3.771952279E0,1.290271163E1
1.369171375E1,-9.277786431E0,8.884947680E0,-3.313966481E0,1.326657417E1
1.370171575E1,-9.150521783E0,9.125330223E0,-3.391669838E0,1.336065585E1
1.371171825E1,-8.845535692E0,9.070209691E0,-3.220816535E0,1.307233203E1
1.372172125E1,-8.645954434E0,8.850956646E0,-3.165090231E0,1.277144306E1
1.373172325E1,-8.278465701E0,8.807401321E0,-3.083371300E0,1.247439341E1
1.374172525E1,-7.956678221E0,8.864131592E0,-2.855659087E0,1.224893244E1
1.375172725E1,-7.756154392E0,8.945922444E0,-2.292904927E0,1.206005275E1
1.376172925E1,-7.729861218E0,9.027734347E0,-1.564593287E0,1.198743901E1
1.377173125E1,-7.833863888E0,8.966255552E0,-1.128056392E0,1.195975222E1
1.378173325E1,-7.873939535E0,8.809601043E0,-8.981603909E-1,1.184967031E1
1.379173525E1,-7.809904922E0,8.539960202E0,-7.411252284E-1,1.159632708E1
1.380173725E1,-7.558702691E0,8.230560633E0,-6.990667909E-1,1.119664276E1
1.381174025E1,-6.988498008E0,7.889780812E0,-7.470296006E-1,1.056625756E1
1.382174225E1,-6.465267516E0,7.445853183E0,-9.038807219E-1,9.902394359E0
1.383174425E1,-6.167462976E0,6.917090641E0,-1.156468305E0,9.339227025E0
1.384174625E1,-5.770931123E0,5.834397386E0,-1.748214715E0,8.390476362E0
1.385174825E1,-5.057138119E0,3.095773244E0,-2.622431197E0,6.483486972E0
1.386175025E1,-1.452092273E0,-2.489215252E0,-1.656122677E0,3.323779003E0
1.387175225E1,3.639338129E1,-1.526946573E1,1.696708201E0,3.950333662E1
1.388175425E1,8.588456775E1,-3.362806227E1,1.101193377E1,9.288847202E1
1.389175625E1,8.138758178E1,-5.360788589E1,1.749073174E1,9.901348188E1
1.390175925E1,7.342383310E1,-6.781525869E1,1.267302482E1,1.007500578E2
1.391176125E1,5.363244887E1,-6.295273755E1,-3.657436899E0,8.278202451E1
1.392176325E1,4.001603311E1,4.087126850E0,-3.248460651E1,5.170335745E1
1.393176525E1,2.585770207E1,1.650148109E1,-1.040760532E1,3.239194163E1
1.394176725E1,2.062546148E1,1.419995503E1,-6.121762308E0,2.577836996E1
1.395176925E1,1.580913567E1,1.687434400E1,-4.857351624E0,2.362765585E1
1.396177125E1,8.100936633E0,1.427592088E1,-9.926765388E-1,1.644422385E1
1.397177325E1,1.211205699E0,1.246679938E1,1.982907772E0,1.268148371E1
1.398177525E1,-9.009096932E0,9.084592672E0,8.929464287E-1,1.282540467E1
1.399177725E1,-1.732752894E1,5.315266963E0,-7.358984023E-1,1.813937343E1
1.400178025E1,-1.242784523E1,5.595754974E0,-5.810243708E-1,1.364189869E1
1.401178225E1,-6.295528108E0,7.204099467E0,5.730154395E-2,9.567445153E0
1.402178425E1,-4.044065323E0,7.115753301E0,1.104691649E0,8.258859062E0
1.403178625E1,-4.363544322E0,5.610563632E0,2.268799488E0,7.460991518E0
1.404178825E1,-5.282389238E0,4.390097990E0,3.242244242E0,7.595310669E0
1.405179025E1,-6.402453218E0,3.431054928E0,4.004625269E0,8.294610821E0
1.406179225E1,-1.246730925E1,-1.675468921E0,5.054934304E0,1.355704086E1
1.407179425E1,-1.956937832E1,-7.331213842E0,5.758449072E0,2.167641575E1
1.408179625E1,-1.417257719E1,-3.729261757E0,6.312401419E0,1.595668353E1
1.409179925E1,-1.068513873E1,-1.562366959E0,7.068395532E0,1.290640909E1
1.410180125E1,-8.496109593E0,5.511132315E-1,7.821130992E0,1.156104208E1
1.411180325E1,-5.960880847E0,3.241631746E0,8.116315979E0,1.057898208E1
1.412180525E1,-4.508796176E0,6.083812709E0,9.105442089E0,1.184276554E1
1.413180725E1,-4.309251171E0,6.679902431E0,1.093453418E1,1.351868262E1
1.414180925E1,-4.455560201E0,5.939783508E0,1.221584156E1,1.429544787E1
1.415181125E1,-4.472130041E0,5.891745708E0,1.241710740E1,1.445327543E1
1.416181325E1,-4.668105320E0,5.988401352E0,1.129529803E1,1.361014017E1
1.417181525E1,-5.135783755E0,5.941968613E0,9.284162235E0,1.216054827E1
1.418181725E1,-5.738766759E0,5.692293674E0,7.327442973E0,1.090995287E1
1.419182025E1,-6.153241378E0,5.512195923E0,5.351978121E0,9.843289753E0
1.420182225E1,-6.450334897E0,5.439023867E0,3.429248431E0,9.107664119E0
1.421182425E1,-6.774571776E0,5.363538651E0,1.657862223E0,8.798345115E0
1.422182625E1,-7.406738234E0,5.152631922E0,3.225698376E-1,9.028479290E0
1.423182825E1,-8.500038922E0,4.682396792E0,-4.755020088E-1,9.716048762E0
1.424183025E1,-9.665565587E0,4.170149711E0,-1.602675033E0,1.064809250E1
1.425183225E1,-1.060099964E1,3.790399659E0,-2.514602693E0,1.153566425E1
1.426183425E1,-1.146132153E1,3.590022011E0,-3.102962396E0,1.240477831E1
1.427183625E1,-1.224111673E1,3.480730534E0,-3.605865042E0,1.322734617E1
1.428183825E1,-1.261899772E1,3.446527246E0,-3.360644512E0,1.350598331E1
1.429184125E1,-1.270360810E1,3.372663463E0,-3.014271829E0,1.348489348E1
1.430184325E1,-1.253928848E1,3.300938593E0,-2.747470980E0,1.325437844E1
1.431184525E1,-1.218510391E1,3.332433158E0,-2.599263943E0,1.289721060E1
1.432184725E1,-1.170083634E1,3.420781370E0,-2.468907287E0,1.243811961E1
1.433184925E1,-1.108053915E1,3.527098661E0,-2.242482193E0,1.184261370E1
1.434185125E1,-1.046193180E1,3.708947068E0,-1.978869831E0,1.127493819E1
1.435185325E1,-9.979096799E0,3.806669537E0,-1.691796101E0,1.081366173E1
1.436185525E1,-9.620672420E0,3.809355455E0,-1.304213850E0,1.042926175E1
1.437185725E1,-9.389575254E0,3.747233467E0,-8.904572690E-1,1.014883226E1
1.438186025E1,-9.090510054E0,3.688338849E0,-5.486747964E-1,9.825592122E0
1.439186225E1,-8.398507285E0,3.686319513E0,-2.492662185E-1,9.175293445E0
1.440186425E1,-6.498266863E0,3.768613226E0,1.146258336E0,7.598935849E0
1.441186625E1,-2.547988540E-1,2.775725895E0,8.131963128E0,8.596417918E0
1.442186825E1,2.339523841E1,6.147435093E-1,1.930039587E1,3.033513426E1
1.443187025E1,6.246457924E1,-7.870760404E0,1.961247113E1,6.594256253E1
1.444187225E1,7.146917908E1,-2.877651050E1,1.867004030E1,7.927484796E1
1.445187425E1,6.579047550E1,-4.225659259E1,1.239939969E1,7.916913159E1
1.446187625E1,6.001400180E1,-3.845822961E1,-2.018027786E1,7.408076303E1
1.447187825E1,6.241737584E1,5.906840880E0,-2.420636417E1,6.720690174E1
1.448188125E1,3.087128720E1,-8.833087555E-1,-1.390983607E1,3.387181937E1
1.449188325E1,1.671099150E1,-2.143410333E0,-1.225670073E1,2.083454242E1
1.450188525E1,1.036874589E1,-5.840503049E-1,-6.678966876E0,1.234749386E1
1.451188725E1,6.104543427E0,4.109716983E-1,-3.410863616E0,7.004879642E0
1.452188925E1,4.380657953E0,2.078687065E0,-1.657404971E-1,4.851656823E0
1.453189125E1,3.331317801E0,3.871344420E0,3.024354475E0,5.935630202E0
1.454189325E1,2.627570314E0,6.087491777E0,6.374339220E0,9.197493266E0
1.455189525E1,1.347506050E0,7.601975010E0,8.689415034E0,1.162375715E1
1.456189725E1,-7.860692668E-1,7.342490197E0,7.879825342E0,1.079915342E1
1.457190025E1,-2.904437145E0,5.737582113E0,5.460205405E0,8.436198593E0
1.458190225E1,-3.801341554E0,4.258672755E0,3.421215819E0,6.655164079E0
1.459190425E1,-4.272379214E0,3.044172735E0,2.356683139E0,5.751014450E0
1.460190625E1,-5.099636852E0,2.138614447E0,2.057606244E0,5.900314503E0
1.461190825E1,-5.962798149E0,1.648996821E0,1.949255584E0,6.486428109E0
1.462191025E1,-6.620945540E0,1.488568373E0,1.866362531E0,7.038186183E0
1.463191225E1,-7.396285166E0,1.339018085E0,1.760098743E0,7.719841402E0
1.464191425E1,-8.090050287E0,1.238867999E0,1.772788078E0,8.374155786E0
1.465191625E1,-8.675207469E0,1.282899726E0,2.000220208E0,8.994772772E0
1.466191825E1,-9.145387343E0,1.341983209E0,2.276448523E0,9.519519234E0
1.467192125E1,-9.444388808E0,1.411806565E0,2.393810912E0,9.844796007E0
1.468192325E1,-9.546665965E0,1.485235460E0,2.460063958E0,9.969787867E0
1.469192525E1,-9.619669622E0,1.595475356E0,2.597819389E0,1.009119670E1
1.470192725E1,-9.614010102E0,1.668165894E0,2.818998507E0,1.015670814E1
1.471192892E1,-9.630430838E0,1.758998297E0,3.187956645E0,1.029574381E1
1.472193092E1,-9.753270314E0,1.795113039E0,3.813355243E0,1.062498898E1
1.473193292E1,-9.822652205E0,1.775336294E0,4.600446311E0,1.099092451E1
1.474193492E1,-1.008027234E1,1.700274125E0,5.609814019E0,1.166073908E1
1.475193692E1,-1.049727705E1,1.535100954E0,6.913232063E0,1.266262761E1
1.476193892E1,-1.092732222E1,1.492995008E0,6.840954630E0,1.297821503E1
1.477194192E1,-1.134142086E1,1.581813044E0,5.465376098E0,1.268858919E1
1.478194392E1,-1.220737245E1,1.453693386E0,4.069895983E0,1.294979613E1
1.479194592E1,-1.327069330E1,1.303197019E0,2.091209900E0,1.349751021E1
1.480194792E1,-1.454203819E1,1.245155510E0,-9.823088408E-2,1.459557934E1
1.481194992E1,-1.504802232E1,1.409220487E0,-7.411287367E-2,1.511404548E1
1.482195192E1,-1.490878024E1,1.866730321E0,-4.999954104E-3,1.502519335E1
1.483195392E1,-1.392037509E1,2.535745055E0,-1.876734761E-1,1.415069139E1
1.484195592E1,-1.270414605E1,3.121537246E0,-4.372097629E-1,1.308932672E1
1.485195792E1,-1.207072302E1,3.421405561E0,-4.054915416E-1,1.255280023E1
1.486195992E1,-1.171027960E1,3.588124005E0,-1.543535563E-1,1.224863695E1
1.487196292E1,-1.141819013E1,3.685287479E0,1.299660989E-1,1.199888748E1
1.488196492E1,-1.097826901E1,3.834895216E0,2.900505477E-1,1.163240908E1
1.489196692E1,-1.048077855E1,4.102888020E0,3.602299994E-1,1.126100238E1
1.490196892E1,-9.876873436E0,4.467491152E0,4.440205997E-1,1.084934378E1
1.491197092E1,-9.283682179E0,4.811839237E0,6.673099780E-1,1.047787451E1
1.492197292E1,-8.743845595E0,5.004491544E0,1.176221223E0,1.014313895E1
1.493197492E1,-8.217497368E0,4.828641503E0,1.914590074E0,9.721558358E0
1.494197692E1,-7.122875209E0,4.466319370E0,2.622834070E0,8.806964206E0
1.495197892E1,-5.048518739E0,3.775957037E0,3.987720383E0,7.459712250E0
1.496198092E1,7.317889792E-1,2.336800559E0,8.178670687E0,8.537377008E0
1.497198392E1,1.820749747E1,-2.349960887E-1,1.725889432E1,2.508859543E1
1.498198592E1,5.473057468E1,-4.742928046E0,1.747982318E1,5.764959141E1
1.499198792E1,7.923875341E1,-2.019257807E1,1.188674038E0,8.177978477E1
1.500198992E1,7.104106466E1,-3.341874365E1,-7.635686547E0,7.887933192E1
1.501199192E1,6.058287040E1,-3.101274071E1,-6.217782944E0,6.834277648E1
1.502199392E1,6.334914135E1,-2.206374613E0,-3.134118349E1,7.071245704E1
1.503199592E1,5.402896494E1,1.565910313E1,-2.351336620E1,6.096896714E1
1.504199792E1,3.613451102E1,6.438144037E-1,-1.311207588E1,3.844533675E1
1.505200092E1,2.645051150E1,5.815719625E0,-1.095208518E1,2.921301633E1
1.506200292E1,1.451362189E1,6.337821019E0,-2.338778087E0,1.600884376E1
1.507200492E1,-1.841848957E0,3.955544325E0,3.660407284E0,5.695377071E0
1.508200692E1,-1.418533933E1,3.010610010E0,6.308212473E0,1.581395488E1
1.509200892E1,-1.046473379E1,5.385564528E0,6.513181940E0,1.345126379E1
1.510201092E1,-2.302459277E0,8.463157609E0,6.887268087E0,1.115171812E1
1.511201292E1,3.622700930E-2,7.248607303E0,8.157151179E0,1.091250364E1
1.512201492E1,-2.358159268E0,2.126754686E0,9.641133581E0,1.015063827E1
1.513201692E1,-3.844499268E0,-7.944796094E-1,1.023106619E1,1.095837980E1
1.514201892E1,-3.927964178E0,-1.778076446E0,9.862074133E0,1.076340860E1
1.515202092E1,-3.518508809E0,-2.124960321E0,9.230701143E0,1.010451405E1
1.516202392E1,-3.247062932E0,-1.880861287E0,8.775657957E0,9.544277314E0
1.517202592E1,-3.229558123E0,-1.632087404E0,9.043024231E0,9.740125369E0
1.518202792E1,-3.317746414E0,-1.402623805E0,9.787157852E0,1.042896225E1
1.519202992E1,-3.695449648E0,-1.249326037E0,1.062143917E1,1.131512853E1
1.520203192E1,-4.233621529E0,-1.227785186E0,1.125139011E1,1.208407163E1
1.521203392E1,-4.781289874E0,-1.101908594E0,1.141481044E1,1.242468642E1
1.522203592E1,-5.421230789E0,-7.427231994E-1,1.084275628E1,1.214523547E1
1.523203792E1,-6.066000336E0,-4.926187094E-1,1.055770218E1,1.218622618E1
1.524203992E1,-6.597885876E0,-3.343794590E-1,1.020556882E1,1.215720126E1
1.525204292E1,-7.031583801E0,-3.744165140E-1,9.639365383E0,1.193736669E1
1.526204492E1,-8.439890953E0,-1.069616687E0,8.174367721E0,1.179814082E1
1.527204692E1,-1.003116275E1,-9.960511132E-1,5.719795468E0,1.159018568E1
1.528204892E1,-1.024979949E1,2.470852071E-1,4.179820129E0,1.107205207E1
1.529205092E1,-9.732842481E0,2.012881184E0,1.778199676E0,1.009662852E1
1.530205292E1,-1.015874899E1,3.075260919E0,6.166606651E-1,1.063191804E1
1.531205492E1,-1.053408878E1,3.912529868E0,-2.322265550E-2,1.123723523E1
1.532205692E1,-1.111765143E1,4.296318592E0,-1.004635557E0,1.196117968E1
1.533205892E1,-1.141544661E1,4.761477753E0,-2.098506056E0,1.254543022E1
1.534206092E1,-1.152063919E1,5.200406013E0,-3.160805976E0,1.302919969E1
1.535206392E1,-1.171100465E1,5.435719605E0,-3.845997909E0,1.347168800E1
1.536206592E1,-1.176353604E1,5.541994504E0,-4.308085236E0,1.369868905E1
1.537206792E1,-1.177429725E1,5.421682194E0,-4.323758698E0,1.366468452E1
1.538206992E1,-1.163938562E1,5.265161587E0,-4.145036505E0,1.343050824E1
1.539207192E1,-1.124317478E1,5.246308994E0,-4.025816455E0,1.304376998E1
1.540207392E1,-1.087733203E1,5.261153905E0,-4.048249006E0,1.274301427E1
1.541207592E1,-1.054440795E1,5.272498673E0,-3.665837594E0,1.234593644E1
1.542207792E1,-1.023699292E1,5.315383907E0,-3.127189164E0,1.195109377E1
1.543207992E1,-9.899665883E0,5.377237508E0,-2.705480078E0,1.158609901E1
1.544208192E1,-9.610219352E0,5.443315138E0,-2.258750755E0,1.127332917E1
1.545208492E1,-9.325108532E0,5.523856441E0,-1.943246839E0,1.101121462E1
1.546208692E1,-9.104091967E0,5.604248639E0,-1.641148835E0,1.081598183E1
1.547208892E1,-8.861908481E0,5.650239914E0,-1.357833402E0,1.059728005E1
1.548209092E1,-8.552391382E0,5.719390841E0,-1.141885203E0,1.035175018E1
1.549209292E1,-8.117715803E0,5.738326464E0,-1.013210060E0,9.992612025E0
1.550209492E1,-7.462027166E0,5.452728571E0,-9.185116249E-1,9.287505687E0
1.551209692E1,-5.770744012E0,4.422512907E0,-1.874593949E-1,7.272911927E0
1.552209892E1,-2.632492501E-1,1.576465473E0,5.098700713E0,5.343340951E0
1.553210092E1,1.632369766E1,-3.036619594E0,1.723255378E1,2.393000363E1
1.554210292E1,8.441429707E1,-1.674748281E1,2.360235381E1,8.923745197E1
1.555210592E1,1.008208170E2,-4.483508839E1,1.685034118E1,1.116196949E2
1.556210792E1,7.330130353E1,-5.328935297E1,8.805491620E0,9.105148501E1
1.557210992E1,6.563163238E1,-3.228937032E1,-1.279678465E1,7.425545301E1
1.558211192E1,5.588882858E1,3.542201142E0,-4.061614922E1,6.917933164E1
1.559211392E1,4.198175006E1,1.724357111E1,-2.957411749E1,5.417043943E1
1.560211592E1,2.158030478E1,6.060380577E0,-1.269446072E1,2.576018439E1
1.561211792E1,3.370808142E0,1.624992101E0,-1.029738647E1,1.095623635E1
1.562211992E1,-1.363889714E1,-2.726694068E0,-1.028116162E1,1.729614582E1
1.563212192E1,-5.022720239E0,1.239302155E0,-9.148515018E0,1.050994365E1
1.564212492E1,3.916931652E0,4.950029992E0,-3.133503865E0,7.047268759E0
1.565212692E1,2.984775549E-1,4.050940479E0,7.979405764E-1,4.139555143E0
1.566212892E1,-2.313187748E0,4.420434807E0,3.669570164E0,6.193288838E0
1.567213092E1,-4.459194245E0,4.329616146E0,4.444879969E0,7.641135205E0
1.568213292E1,-6.146795408E0,3.473040568E0,3.807003120E0,8.021120703E0
1.569213492E1,-7.650456029E0,2.566433289E0,3.422135878E0,8.765105319E0
1.570213692E1,-8.495439502E0,2.268610623E0,3.489853652E0,9.460346981E0
1.571213954E1,-8.850169610E0,2.142365728E0,3.339834563E0,9.698954993E0
1.572214154E1,-9.060078220E0,2.211143310E0,3.047873438E0,9.811406861E0
1.573214354E1,-9.215500721E0,2.323763315E0,3.009183874E0,9.968977734E0
1.574214554E1,-9.352590446E0,2.199668442E0,3.942638351E0,1.038527258E1
1.575214854E1,-9.872990885E0,1.693325002E0,6.572665665E0,1.198095291E1
1.576215054E1,-1.104993248E1,1.151377573E0,9.247696660E0,1.445498432E1
1.577215254E1,-1.218198618E1,4.888830695E-1,1.004059664E1,1.579409304E1
1.578215454E1,-1.326451864E1,-4.748202235E-2,8.739963044E0,1.588510822E1
1.579215654E1,-1.433812122E1,-2.910802424E-1,6.700444869E0,1.582916326E1
1.580215854E1,-1.492496416E1,6.419511884E-2,6.266958028E0,1.618744696E1
1.581216054E1,-1.521060181E1,8.497816980E-1,7.308098044E0,1.689653318E1
1.582216254E1,-1.513512946E1,1.740874852E0,8.714997772E0,1.755146647E1
1.583216454E1,-1.471920649E1,2.687711559E0,8.484837331E0,1.720090979E1
1.584216654E1,-1.446280725E1,3.026056599E0,6.954771852E0,1.633091129E1
1.585216954E1,-1.414246403E1,3.165318273E0,5.733714180E0,1.558537799E1
1.586217154E1,-1.402661432E1,3.386200060E0,4.972391499E0,1.526227169E1
1.587217354E1,-1.385090783E1,3.744226829E0,4.381330383E0,1.500209779E1
1.588217554E1,-1.357596590E1,4.026455263E0,3.661750975E0,1.462626447E1
1.589217754E1,-1.296133583E1,4.363014565E0,2.801858271E0,1.396003339E1
1.590217954E1,-1.211383337E1,4.776574387E0,1.981859951E0,1.317149918E1
1.591218154E1,-1.135342052E1,5.171504395E0,1.485959930E0,1.256394413E1
1.592218354E1,-1.076231146E1,5.506268016E0,1.279905220E0,1.215666454E1
1.593218554E1,-1.024815994E1,5.787360045E0,1.207225572E0,1.183113316E1
1.594218754E1,-9.824325678E0,5.955057605E0,1.205285393E0,1.155131157E1
1.595219054E1,-9.453767742E0,6.029103236E0,1.196512158E0,1.127632261E1
1.596219254E1,-9.160702370E0,6.156569028E0,1.180378520E0,1.110022989E1
1.597219454E1,-8.901185982E0,6.378661482E0,1.055277341E0,1.100145647E1
1.598219654E1,-8.697044481E0,6.513163814E0,1.141072440E0,1.092528864E1
1.599219854E1,-8.524016599E0,6.568568521E0,1.176955633E0,1.082544114E1
1.600220054E1,-8.342906111E0,6.587309432E0,1.353593001E0,1.071582670E1
1.601220254E1,-8.212247738E0,6.565610999E0,1.473721854E0,1.061697305E1
1.602220454E1,-8.139264547E0,6.443413548E0,1.486272172E0,1.048685894E1
1.603220654E1,-8.053432683E0,6.328633289E0,1.359530264E0,1.033236177E1
1.604220854E1,-8.011428040E0,6.160334051E0,1.137946446E0,1.016993692E1
1.605221154E1,-7.957986243E0,5.982768145E0,8.769210378E-1,9.994601054E0
1.606221354E1,-7.819025409E0,5.770116021E0,2.338839849E-1,9.720396029E0
1.607221554E1,-6.811152542E0,5.019644603E0,2.045948066E-2,8.461031230E0
1.608221754E1,4.555308437E-1,2.564960083E0,4.771702194E0,5.436512707E0
1.609221954E1,4.074993819E1,-9.692052305E-2,1.038014680E1,4.205132939E1
1.610222154E1,1.004826515E2,-1.782436217E1,9.751322021E0,1.025161422E2
1.611222354E1,7.937134955E1,-5.713301316E1,8.075969607E0,9.812855654E1
1.612222554E1,7.515852423E1,-6.640209426E1,-1.933774438E1,1.021371149E2
1.613222754E1,8.621550144E1,-6.371165936E0,-3.044595138E1,9.165511660E1
1.614223054E1,4.643483982E1,-7.617847277E0,-2.150883075E1,5.173833923E1
1.615223254E1,1.983979918E1,-6.497920707E0,-1.488564046E1,2.564025930E1
1.616223454E1,6.595890806E0,-3.767860397E0,-1.105621941E1,1.341426611E1
1.617223654E1,-3.299412469E0,-4.213804731E-1,-8.221289873E0,8.868669084E0
1.618223854E1,-1.454224518E1,3.061700934E0,-4.582942963E0,1.555166466E1
1.619224054E1,-1.454728782E1,8.736309704E0,-9.936939543E-1,1.699806218E1
1.620224254E1,-8.620758197E0,9.361662401E0,1.901879981E0,1.286760826E1
1.621224454E1,-4.787000265E0,2.275357432E0,2.976716332E0,6.078936017E0
1.622224654E1,-1.885469186E0,-5.582222763E-1,1.865200982E0,2.710273208E0
1.623224854E1,-1.659930968E-1,3.858522061E-1,1.364356556E0,1.427551906E0
1.624225154E1,-1.231216040E0,4.317060712E-1,2.588576403E0,2.898791276E0
1.625225354E1,-3.062949899E0,3.400661686E-1,2.314957700E0,3.854391811E0
1.626225554E1,-4.187833738E0,8.038024101E-1,2.045417723E0,4.729459101E0
1.627225754E1,-5.269618335E0,1.154101352E0,2.574928124E0,5.977548174E0
1.628225954E1,-6.394689869E0,1.412605148E0,3.406557434E0,7.381879529E0
1.629226154E1,-7.354567621E0,1.715627159E0,4.374132168E0,8.727317667E0
1.630226354E1,-8.206532670E0,1.827716237E0,5.308555529E0,9.943263393E0
1.631226554E1,-8.902833728E0,1.728577572E0,6.253128194E0,1.101589946E1
1.632226754E1,-9.426033813E0,1.610082432E0,7.346918879E0,1.205900891E1
1.633226954E1,-1.006111452E1,1.425106495E0,8.508730223E0,1.325350686E1
1.634227254E1,-1.092259650E1,1.113260451E0,8.137083535E0,1.366581837E1
1.635227454E1,-1.195289461E1,8.243387085E-1,6.450602700E0,1.360740604E1
1.636227654E1,-1.266838447E1,6.667236485E-1,4.745279796E0,1.354437765E1
1.637227854E1,-1.290739175E1,7.992259406E-1,3.376583437E0,1.336565897E1
1.638228054E1,-1.256007416E1,1.359403672E0,2.455147619E0,1.286977821E1
1.639228254E1,-1.201961836E1,2.057181737E0,2.813905874E0,1.251484272E1
1.640228454E1,-1.167060975E1,2.626193880E0,2.992851723E0,1.233114705E1
1.641228654E1,-1.175713451E1,3.022855541E0,2.636515970E0,1.242252325E1
1.642228854E1,-1.215237705E1,3.239800983E0,1.961759562E0,1.272890722E1
1.643229054E1,-1.242986368E1,3.315850162E0,1.101117831E0,1.291157752E1
1.644229254E1,-1.273913111E1,3.156583117E0,5.097661078E-1,1.313428109E1
1.645229554E1,-1.305110930E1,2.903317696E0,2.157306826E-1,1.337188271E1
1.646229754E1,-1.330088832E1,2.657313054E0,2.627044357E-2,1.356376175E1
1.647229954E1,-1.338128519E1,2.461458519E0,-2.950223621E-1,1.360899003E1
1.648230154E1,-1.338375272E1,2.269194759E0,-5.159314120E-1,1.358455987E1
1.649230354E1,-1.320489341E1,2.193973254E0,-6.988725903E-1,1.340414680E1
1.650230554E1,-1.285965275E1,2.275032327E0,-8.840358567E-1,1.308923070E1
1.651230754E1,-1.234749864E1,2.437122700E0,-9.801628395E-1,1.262382703E1
1.652230954E1,-1.183461947E1,2.643454276E0,-9.098226625E-1,1.216033905E1
1.653231154E1,-1.141202014E1,2.907427996E0,-7.740327734E-1,1.180196882E1
1.654231354E1,-1.112614275E1,3.272069427E0,-5.636365056E-1,1.161099380E1
1.655231654E1,-1.087624445E1,3.671304448E0,-3.399372010E-1,1.148419466E1
1.656231854E1,-1.060419456E1,3.991811388E0,-7.113547146E-2,1.133086760E1
1.657232054E1,-1.036639765E1,4.195732157E0,2.765604365E-1,1.118672670E1
1.658232254E1,-1.020492328E1,4.312707168E0,6.380540192E-1,1.109716249E1
1.659232454E1,-1.010090015E1,4.398453369E0,9.383196527E-1,1.105689919E1
1.660232654E1,-9.832342211E0,4.422928644E0,9.799740475E-1,1.082578405E1
1.661232854E1,-9.212408128E0,4.179941166E0,7.896875238E-1,1.014711674E1
1.662233054E1,-8.152168767E0,3.748667496E0,2.125006807E-1,8.975272706E0
1.663233254E1,-5.312617589E0,2.630574321E0,2.902143867E0,6.600474675E0
