"Time (s)","Linear Acceleration x (m/s^2)","Linear Acceleration y (m/s^2)","Linear Acceleration z (m/s^2)","Absolute acceleration (m/s^2)"
-1.471749973E-3,-6.413907328E-1,-2.888041406E-1,-9.133713377E-1,1.152838716E0
8.527250029E-3,-5.783396217E-1,-1.146505965E-1,-2.016236901E-2,5.899389786E-1
1.852725004E-2,-1.166414273E-1,2.618297654E-1,5.989490104E-1,6.640029861E-1
2.852625004E-2,2.637591273E-1,4.374370003E-1,5.180410874E-1,7.275208414E-1
3.852525004E-2,3.565506390E-1,5.803864396E-1,2.987319088E-1,7.437859441E-1
4.852425004E-2,2.411073062E-1,5.522082688E-1,-1.193235451E-1,6.142514254E-1
5.852425005E-2,-2.154380295E-1,4.210109290E-1,-1.169408047E-1,4.871744028E-1
6.852324994E-2,-5.786708665E-1,1.932133475E-1,6.283300996E-2,6.133020109E-1
7.852216670E-2,-6.900328428E-1,-5.635751098E-2,2.021616340E-2,6.926255745E-1
8.852216671E-2,-6.313381997E-1,-2.984434949E-1,-3.088815057E-1,7.635864238E-1
9.852116671E-2,-7.029089963E-1,-3.216863233E-1,-7.647310227E-1,1.087371457E0
1.085201667E-1,-7.540279868E-1,-1.523200408E-1,-1.475993936E0,1.664427138E0
1.185191667E-1,-8.695698452E-1,1.472401991E-4,-2.355161986E0,2.510565617E0
1.285191666E-1,-1.269357428E0,-9.968475770E-2,-2.920235737E0,3.185746708E0
1.385181666E-1,-1.858690985E0,-4.585616018E-1,-2.552397925E0,3.190571436E0
1.485171666E-1,-2.366126392E0,-7.484966670E-1,-1.275127460E0,2.790116737E0
1.585171666E-1,-2.740332699E0,-8.695537654E-1,4.063586837E-1,2.903562369E0
1.685161666E-1,-2.107773016E0,-6.658315095E-1,1.209816400E0,2.519859998E0
1.785151666E-1,-8.245085701E-1,-2.105763620E-1,1.148459812E0,1.429376342E0
1.885151666E-1,3.393776590E-1,1.709277083E-1,8.504857028E-1,9.315145772E-1
1.985141666E-1,9.793799704E-1,6.854277219E-1,-1.375927026E0,1.822682493E0
2.085131666E-1,1.176845852E0,1.210051605E0,-3.581838248E0,3.959640928E0
2.185121666E-1,1.817337283E0,1.841523267E0,-4.362484807E0,5.072001226E0
2.285121667E-1,3.077615593E0,2.446651323E0,-3.743102117E0,5.428501993E0
2.385111667E-1,3.238933256E0,1.784618457E0,-9.960427809E-1,3.829837189E0
2.485101667E-1,3.368078077E0,8.506398500E-1,-7.509760326E-1,3.554082594E0
2.585101667E-1,3.213454306E0,4.879619137E-1,-1.481852261E0,3.572153627E0
2.685091667E-1,-5.877659181E-1,-8.035986346E-1,-3.218516241E0,3.368988918E0
2.785081667E-1,-4.667117141E0,-2.236068382E0,-3.853643728E0,6.452329363E0
2.885081667E-1,-2.338947218E0,-1.949107357E0,-1.948626131E0,3.614808070E0
2.985071667E-1,1.644248736E-1,-5.496289158E-1,-1.042967856E-1,5.830997373E-1
3.085061667E-1,5.285298228E-2,-3.920903812E-1,-1.309091012E0,1.367569956E0
3.185051667E-1,-1.118941021E0,-8.218158542E-1,-1.224216923E0,1.850977413E0
3.285051667E-1,-1.876221814E0,-1.222564135E0,1.255128813E0,2.567142321E0
3.385041667E-1,-2.221639355E0,-2.320815149E0,5.790216994E-1,3.264526077E0
3.485031667E-1,-2.444405699E0,-3.683552026E0,-1.447253702E0,4.651689803E0
3.585031667E-1,-1.991044757E0,-3.192095012E0,-4.772376378E0,6.076948748E0
3.685021667E-1,-2.297625384E0,-3.328837120E0,-7.222576668E0,8.278034350E0
3.785011667E-1,-4.126166370E0,-3.668273836E0,-5.911827385E0,8.088954499E0
3.885011667E-1,-4.358616874E0,-4.206050446E0,-3.426925625E0,6.959326163E0
3.985001667E-1,-3.254581282E0,-4.425055277E0,7.920112073E-1,5.549837410E0
4.084991667E-1,-3.401144081E0,-4.527352315E0,6.422406256E-2,5.662934290E0
4.184981667E-1,-4.211108580E0,-5.056901307E0,-2.442745675E0,7.019451028E0
4.284981666E-1,-4.813600418E0,-6.070850601E0,-2.242275640E0,8.065592108E0
4.384971666E-1,-4.170909557E0,-5.423203055E0,-1.319049990E-1,6.842880741E0
4.484961666E-1,-9.523623258E-1,-4.614615869E0,4.953762270E0,6.836770747E0
4.584961666E-1,3.288146639E0,-2.360250233E0,7.363860016E0,8.402923528E0
4.684951666E-1,4.705390091E0,-2.933703921E0,6.201984352E0,8.319370440E0
4.784941666E-1,4.676904795E0,-2.080421203E0,4.580256752E0,6.868794855E0
4.884941666E-1,8.574604955E0,1.751013339E0,4.854865973E0,1.000797789E1
4.984931666E-1,9.798416081E0,1.957736970E0,4.598907616E0,1.099962013E1
5.084921666E-1,1.074139129E1,9.628937459E-1,6.136411337E0,1.240806976E1
5.184911666E-1,1.089206234E1,2.547541228E-1,5.599549817E0,1.224977060E1
5.284911667E-1,9.071592557E0,6.895159489E-1,1.651443735E0,9.246431213E0
5.384901667E-1,5.917171741E0,8.663009593E-1,-1.120600169E0,6.084335913E0
5.484891667E-1,2.584582754E0,-2.486616164E-2,-3.498457537E0,4.349700160E0
5.584891667E-1,-2.014973903E0,-2.324524622E0,-3.914189892E0,4.978395029E0
5.684881667E-1,-3.764288333E0,-3.555192194E0,-2.564833199E0,5.778202794E0
5.784871667E-1,-1.739527946E0,-1.949396502E0,-2.324223783E0,3.496872944E0
5.884871667E-1,-2.219491965E-1,-6.982294697E-1,-1.234090531E0,1.435188238E0
5.984861667E-1,-1.324505442E-1,-1.925375848E0,2.394074621E0,3.075094892E0
6.084851667E-1,6.938078052E-1,-1.513696783E0,4.942981759E0,5.215909881E0
6.184841667E-1,1.735292807E0,-1.676687334E0,6.316100367E0,6.761334587E0
6.284841667E-1,1.758810893E0,-2.835853983E0,7.635000084E0,8.332389205E0
6.384831667E-1,-7.477764362E-1,-4.100754663E0,6.191945268E0,7.464284601E0
6.484821667E-1,-4.025204544E0,-3.149782221E0,2.879001172E0,5.866178263E0
6.584821667E-1,-2.402972622E0,-6.984522486E-1,-2.314155462E0,3.408434900E0
6.684811667E-1,-5.862985593E-1,1.914337474E-1,-4.091350586E0,4.137576888E0
6.784801667E-1,1.569501147E0,2.344678513E0,-2.054881150E0,3.490470988E0
6.884791667E-1,4.792014252E0,5.050581636E0,-7.241595322E-1,6.999727315E0
6.984791667E-1,8.935359449E0,5.914646328E0,2.321882558E-1,1.071809690E1
7.084781666E-1,1.236065604E1,5.749635563E0,-2.750898618E-1,1.363524115E1
7.184771666E-1,1.137278533E1,3.586565137E0,-8.983217740E-1,1.195870719E1
7.284771666E-1,7.854175946E0,3.319727451E-1,-1.179408540E0,7.949169152E0
7.384761666E-1,4.933393494E0,-9.703489459E-1,-6.440363055E-1,5.068997062E0
7.484751666E-1,3.333674229E0,5.231755275E-1,9.253277242E-1,3.499046713E0
7.584751666E-1,1.616143802E0,7.600737154E-1,-5.816494381E-1,1.878283501E0
7.684741666E-1,-4.651401579E-2,-3.055778289E-1,-1.864507502E0,1.889954917E0
7.784731666E-1,-8.710737491E-1,-2.162814903E-1,-2.118120541E0,2.300430783E0
7.884721666E-1,-3.717189011E-1,3.793258363E-1,-1.905374277E0,1.978007626E0
7.984721666E-1,-9.573494160E-1,-5.108712316E-2,-1.184123150E0,1.523573245E0
8.084711666E-1,-1.351102672E0,1.841171265E-1,-1.500312506E0,2.027391221E0
8.184701666E-1,-1.412610995E0,5.343793774E-1,-3.993677527E0,4.269717945E0
8.284701667E-1,-1.051182317E0,-1.804462445E-1,-5.072067815E0,5.182993057E0
8.384691667E-1,-5.900606579E-1,-7.000052691E-1,-4.095054213E0,4.196146799E0
8.484681667E-1,-8.881543431E-1,-2.113032294E0,-2.842451981E0,3.651473248E0
8.584671667E-1,-4.165226355E0,-4.401727225E0,-2.701186759E0,6.634811457E0
8.684671667E-1,-7.363658288E0,-5.727935377E0,-5.643407443E0,1.090324514E1
8.784661667E-1,-5.574496252E0,-2.379145510E0,-5.697857299E0,8.318709012E0
8.884651667E-1,-7.345880998E0,-3.487353675E0,-6.268646119E0,1.026740120E1
8.984651667E-1,-1.200439221E1,-5.730573640E0,-1.525772452E-1,1.330293901E1
9.084641667E-1,-2.085964948E0,-2.621891499E-1,5.305148941E0,5.706539950E0
9.184631667E-1,5.745219162E0,5.336139184E0,1.020839653E1,1.287219035E1
9.284631667E-1,1.328511487E1,6.582813508E0,1.290521308E1,1.965635356E1
9.384621667E-1,1.653307827E1,6.570651299E0,6.909131411E0,1.908539317E1
9.484611667E-1,1.801229402E1,8.242402414E0,-2.302376831E0,1.994193753E1
9.584601667E-1,1.368298632E1,6.435067232E0,-7.650375922E0,1.694586842E1
9.684601667E-1,6.780321343E0,4.202306181E0,-7.753671080E0,1.112436740E1
9.784591667E-1,4.588027410E0,5.715838072E0,-5.278485637E0,9.032342498E0
9.884581667E-1,2.555923212E-1,6.667947214E0,-5.322122823E0,8.535328864E0
9.984581666E-1,-9.956457549E-1,5.750970483E0,-4.859489951E0,7.594709642E0
1.008457167E0,-1.225075002E0,3.500536222E0,-3.788210169E0,5.301424232E0
1.018456167E0,-6.961563393E-1,2.466394154E0,-2.321944246E0,3.458201679E0
1.028455167E0,5.596150830E-1,3.479990861E0,-1.738147126E0,3.929969575E0
1.038455167E0,4.282778487E-1,4.167546238E0,-2.228384410E0,4.745267184E0
1.048454167E0,5.828270674E-2,3.893076766E0,-1.644047007E0,4.226385470E0
1.058453167E0,2.116314921E-1,3.711541185E0,1.348906458E0,3.954728119E0
1.068453167E0,-1.521411891E0,5.000432991E0,2.315747952E0,5.716792179E0
1.078452042E0,-6.283630194E0,7.022634053E0,-2.326477008E0,9.706384122E0
1.088451042E0,-6.948646309E0,7.466744699E0,-2.995783517E0,1.063064818E1
1.098450042E0,-3.736718419E0,6.081741040E0,-1.923280790E-1,7.140562213E0
1.108450042E0,-6.913987523E0,-8.276143187E-1,-3.592146012E0,7.835284418E0
1.118449042E0,-9.621989213E0,-3.189858452E0,-7.268159223E0,1.247333203E1
1.128448042E0,-8.665257847E-1,-2.443093584E0,-1.013519670E0,2.783306544E0
1.138448042E0,1.404681294E0,-5.222680981E0,1.425737556E0,5.593054062E0
1.148447042E0,-6.352034431E0,-5.149526466E0,-4.252676436E0,9.216898670E0
1.158446042E0,-1.066120140E1,-1.267923691E0,-1.063357565E1,1.511098200E1
1.168445042E0,-8.410792869E0,-3.941322142E0,-4.774914070E0,1.044391025E1
1.178445042E0,-1.039648625E1,-6.238269249E0,-1.669805746E0,1.223892074E1
1.188444042E0,-1.063383292E1,-7.630217646E0,-1.626766146E0,1.318882072E1
1.198443042E0,-7.925894970E0,-1.134067710E1,2.468571657E0,1.405434503E1
1.208443042E0,-1.681499008E0,-1.121977773E1,9.460711895E0,1.477213325E1
1.218442042E0,5.850685390E0,-7.072244754E0,1.362304534E1,1.642664085E1
1.228441042E0,9.962804117E0,-4.412186725E0,1.658479222E1,1.984389555E1
1.238441042E0,1.352473610E1,-7.517027830E0,1.680338102E1,2.284245625E1
1.248440042E0,1.493448460E1,-9.617717822E0,1.468354081E1,2.304659838E1
1.258439042E0,1.584581175E1,-9.575819598E0,1.335934410E1,2.283107850E1
1.268438042E0,1.720377846E1,-6.677280539E0,8.528509600E0,2.032957316E1
1.278438042E0,1.750701975E1,-3.982190672E0,6.072817020E0,1.895343477E1
1.288437042E0,1.715296382E1,-2.290364311E0,6.972224622E0,1.865695186E1
1.298436042E0,1.553308394E1,-1.421249964E0,6.357434335E0,1.684380063E1
1.308436042E0,1.262543551E1,-1.799654864E0,3.510718564E0,1.322745343E1
1.318435042E0,8.826690701E0,-2.774494472E0,1.024130466E0,9.308981228E0
1.328434042E0,6.038062339E0,-4.885856801E0,1.056801783E0,7.838789671E0
1.338433042E0,5.961049247E0,-7.689468652E0,-2.242467137E0,9.984522779E0
1.348433042E0,6.326666286E0,-1.102218511E1,-9.966989554E0,1.615104181E1
1.358432042E0,5.649104970E0,-1.345724286E1,-1.667431893E1,2.215948294E1
1.368431042E0,3.773172885E0,-1.430934006E1,-2.023509434E1,2.506896666E1
1.378431042E0,9.884618658E-1,-1.328870155E1,-1.950023733E1,2.361833825E1
1.388430042E0,-2.839776003E0,-1.100967791E1,-1.986366517E1,2.288760646E1
1.398429042E0,-6.981711144E0,-6.372722465E0,-1.747982552E1,1.987209557E1
1.408428042E0,-1.005388269E1,-2.786724508E-2,-1.023066039E1,1.434390971E1
1.418428042E0,-1.018873001E1,1.663479643E0,-4.240813020E0,1.116072931E1
1.428427042E0,-9.808318341E0,-2.122849184E-1,-2.613115120E0,1.015266193E1
1.438426042E0,-8.635656903E0,-4.574124777E-1,-8.781330925E-1,8.692232972E0
1.448426042E0,-7.393031191E0,3.894269013E-1,3.213147327E-1,7.410250107E0
1.458425042E0,-7.026834108E0,1.729204686E0,-1.074416813E0,7.315799198E0
1.468424042E0,-5.317835644E0,2.604986029E0,-3.072541379E0,6.671269645E0
1.478423042E0,-4.915562995E0,2.973661162E0,-6.766499695E0,8.876425991E0
1.488423042E0,-4.764205479E0,1.833536555E0,-9.422002158E0,1.071604567E1
1.498422042E0,-2.857912019E0,-4.952866477E-1,-7.557335027E0,8.094830615E0
1.508421042E0,-6.825986928E-1,-2.189587550E0,-4.596487161E0,5.136918224E0
1.518421042E0,9.980091995E-1,-2.434951921E0,-1.912183068E0,3.252915201E0
1.528420042E0,3.274951227E0,-2.047994884E0,6.579544330E-1,3.918225698E0
1.538419042E0,5.980428674E0,-2.475273736E0,2.653385187E0,6.995209799E0
1.548418042E0,7.776295711E0,-3.123827015E0,9.235786758E-1,8.431018194E0
1.558418042E0,1.074091532E1,-4.292329913E0,2.325535460E0,1.179828264E1
1.568417042E0,1.369158289E1,-7.391213876E-1,6.218445434E0,1.505572337E1
1.578416042E0,1.218175463E1,2.325506662E0,2.419997082E0,1.263564454E1
1.588416042E0,1.129114884E1,-1.558612754E0,-3.794274609E0,1.201315261E1
1.598415042E0,1.283397879E1,-4.442995704E0,-1.634132760E0,1.367924020E1
1.608414042E0,1.315833320E1,-7.982876086E0,-2.278612870E0,1.555828139E1
1.618413042E0,1.273387914E1,-9.000646536E0,2.038772217E0,1.572640798E1
1.628413042E0,1.209111109E1,-6.470165729E0,6.298393829E0,1.509065197E1
1.638412042E0,1.056524041E1,-2.244230365E0,9.136405435E0,1.414689998E1
1.648411042E0,7.865766297E0,1.908443481E0,1.231894902E1,1.474004549E1
1.658411042E0,5.368224610E0,4.930896149E0,7.254229985E0,1.028374567E1
1.668410042E0,4.296299003E0,5.357461640E0,4.819619542E0,8.389833901E0
1.678409042E0,4.571539139E0,3.461425366E0,6.924082156E0,8.990180720E0
1.688408042E0,4.570484008E0,2.403289833E0,5.382505850E0,7.458987553E0
1.698408042E0,3.862779711E0,6.541303539E-1,4.121163785E0,5.686206517E0
1.708407042E0,3.801242444E0,-1.199515361E0,2.961905919E0,4.966001197E0
1.718406042E0,1.943228567E0,-3.323622866E0,1.722850517E0,4.217916561E0
1.728406042E0,-1.669796683E-1,-5.083740027E0,1.103368424E0,5.204778261E0
1.738405042E0,-2.018480332E0,-6.293730674E0,3.331484739E-1,6.617877043E0
1.748404042E0,-3.932278839E0,-7.932340940E0,-2.081784189E-1,8.855969055E0
1.758403042E0,-5.358163891E0,-8.926726620E0,-8.270968401E-1,1.044415902E1
1.768403042E0,-6.141760370E0,-8.792183357E0,-1.382008715E0,1.081358667E1
1.778402042E0,-6.809030002E0,-7.826216315E0,-1.077926019E0,1.042950027E1
1.788401042E0,-7.328101954E0,-6.473552436E0,-1.066429224E0,9.835915345E0
1.798401042E0,-7.608985237E0,-5.378431510E0,-2.043104857E0,9.539311259E0
1.808400042E0,-7.594108751E0,-4.405297535E0,-2.711957915E0,9.188680527E0
1.818399042E0,-6.651449295E0,-3.047992721E0,-3.454937296E0,8.091268693E0
1.828399042E0,-4.809369957E0,-1.690330642E0,-4.085731997E0,6.533028625E0
1.838398042E0,-3.016488216E0,-9.375314480E-1,-4.012369906E0,5.106591684E0
1.848397042E0,-1.384836721E0,-4.448678613E-1,-3.166160272E0,3.484286301E0
1.858396042E0,-4.495219708E-2,-9.318087780E-1,-2.444438444E0,2.616403563E0
1.868396042E0,1.338397842E0,-1.825420035E0,-1.058747225E0,2.498882305E0
1.878395042E0,2.433710703E0,-2.357178106E0,-5.934480230E-1,3.439682684E0
1.888394042E0,3.464523514E0,-2.425656602E0,-2.883870880E-1,4.239091912E0
1.898393042E0,4.238963838E0,-2.263066585E0,1.684424224E-1,4.808186523E0
1.908393042E0,4.534170753E0,-1.837997981E0,4.304181489E-1,4.911435714E0
1.918392042E0,4.486976706E0,-1.248615015E0,5.833012766E-1,4.693851275E0
1.928391042E0,4.960235723E0,-4.864503354E-1,3.499517272E-1,4.996302489E0
1.938391042E0,5.153881472E0,3.432292199E-1,7.278023475E-1,5.216320234E0
1.948390042E0,4.901760058E0,1.113354884E0,1.226291515E0,5.174031469E0
1.958389042E0,4.695335219E0,1.386984696E0,1.402751713E0,5.092898166E0
1.968388042E0,4.445366165E0,1.227588428E0,1.792549328E0,4.947876997E0
1.978388042E0,4.169957630E0,8.022660542E-1,2.324443638E0,4.840993254E0
1.988387042E0,4.074648015E0,6.063755590E-1,2.393516797E0,4.764385629E0
1.998386042E0,3.941247590E0,6.378277320E-1,2.590960897E0,4.759551991E0
2.008386042E0,4.148026771E0,9.339090979E-1,2.866597474E0,5.127932660E0
2.018385042E0,4.366300700E0,1.314962786E0,3.131555865E0,5.531758406E0
2.028384042E0,4.315391332E0,1.231545238E0,3.271796654E0,5.553733822E0
2.038383042E0,4.117322164E0,1.154754925E0,2.730026397E0,5.073346515E0
2.048383042E0,3.555264699E0,1.021650077E0,9.481972079E-1,3.818737214E0
2.058382042E0,2.721486538E0,4.355152398E-1,2.154938558E0,3.498560088E0
2.068381042E0,2.017350942E0,-1.073017867E0,3.095629402E0,3.847595816E0
2.078381375E0,1.249167138E0,-3.001257096E0,2.666792268E0,4.204728730E0
2.088380375E0,7.242373732E-1,-4.507714441E0,2.673661577E0,5.290791574E0
2.098379375E0,4.376409951E-1,-5.979917627E0,2.102437724E0,6.353832611E0
2.108378375E0,5.019703075E-2,-7.385615167E0,1.004016044E0,7.453715809E0
2.118378375E0,-3.480078569E-1,-8.272482246E0,4.388844055E-1,8.291422767E0
2.128377375E0,-4.644754757E-1,-8.430559382E0,1.686643242E0,8.610158790E0
2.138376375E0,-5.176990984E-1,-8.461544947E0,1.708230724E0,8.647763147E0
2.148376375E0,-4.065972866E-1,-8.166870421E0,8.898766404E-1,8.225264389E0
2.158375375E0,-1.531168336E-1,-7.416538167E0,-5.554373936E-1,7.438883911E0
2.168374375E0,-8.664572261E-2,-6.680812842E0,-2.952248073E0,7.304555866E0
2.178373375E0,-6.700466211E-1,-5.948576551E0,-6.590976806E0,8.903679055E0
2.188373375E0,-1.548072417E0,-4.799655393E0,-9.834329095E0,1.105202465E1
2.198372375E0,-1.640305374E0,-2.657006952E0,-1.171636772E1,1.212532722E1
2.208371375E0,-1.494728707E0,-6.442304331E-1,-1.118513180E1,1.130293857E1
2.218370375E0,-1.288348161E0,7.053122020E-1,-1.122948644E1,1.132513453E1
2.228370375E0,-8.130416686E-1,2.301067640E0,-1.410466529E1,1.431424228E1
2.238369375E0,8.072408652E-1,4.545895005E0,-2.092093064E1,2.142433518E1
2.248368375E0,1.598061579E-1,4.578409032E0,-1.160411287E1,1.247568847E1
2.258368375E0,-2.465641617E0,3.906797258E0,-3.013351477E0,5.515681329E0
2.268367375E0,-3.994180972E0,3.275045952E0,5.906009406E-1,5.198866905E0
2.278366375E0,-4.690531147E0,3.339476421E0,1.021745971E0,5.847832935E0
2.288365375E0,-4.796742895E0,3.841479766E0,-9.262603551E-2,6.146079138E0
2.298365375E0,-4.878788979E0,3.721953322E0,-1.551660415E0,6.329547257E0
2.308364375E0,-5.204311953E0,2.949350193E0,-2.476469491E0,6.474289969E0
2.318363375E0,-5.199031917E0,2.354963765E0,-3.192191491E0,6.539562197E0
2.328363375E0,-4.789160226E0,1.652091022E0,-4.673345010E0,6.892431646E0
2.338362375E0,-4.843801872E0,1.031588005E0,-6.102763535E0,7.859409211E0
2.348361375E0,-4.993705185E0,6.776917094E-1,-5.273401483E0,7.294184035E0
2.358360375E0,-4.280819669E0,7.606642842E-2,-3.652685744E0,5.627905142E0
2.368360375E0,-3.589867060E0,2.319502741E-1,-3.183302554E0,4.803577998E0
2.378359375E0,-2.499918288E0,5.600790596E-1,-2.662076780E0,3.694581544E0
2.388358375E0,-1.859505794E0,-2.301510859E-1,-2.566373063E0,3.177578011E0
2.398357375E0,-1.636042607E0,-1.617614669E0,-2.158285358E0,3.154601134E0
2.408357375E0,-1.307000487E0,-3.410943430E0,-2.031414811E0,4.179644900E0
2.418356375E0,1.371479049E-1,-4.221798459E0,-8.977271122E-1,4.318368413E0
2.428355375E0,2.807005575E0,-3.944590151E0,1.181847998E0,4.983556607E0
2.438355375E0,6.390357082E0,-3.784541334E0,3.184724012E0,8.080958098E0
2.448354375E0,1.100503990E1,-3.555203596E0,6.801538550E0,1.341682908E1
2.458353375E0,1.385947400E1,-3.449204101E0,5.924712310E0,1.546234925E1
2.468352375E0,1.400772196E1,-4.000096600E0,3.652058630E0,1.501847461E1
2.478352375E0,1.240562113E1,-4.643819495E0,7.346517760E-1,1.326665777E1
2.488351375E0,1.020486481E1,-4.936941000E0,8.661609185E-1,1.136938376E1
2.498350375E0,8.200974891E0,-4.033529225E0,2.713266522E0,9.533475882E0
2.508349375E0,5.799350345E0,-2.108803588E0,8.119423774E0,1.019826257E1
2.518349375E0,3.388306519E0,-2.430537273E0,1.125614507E1,1.200370503E1
2.528348375E0,1.102536731E0,-2.743836350E0,1.032660033E1,1.074164325E1
2.538347375E0,1.571203125E0,-3.597880084E0,8.251443964E0,9.137819644E0
2.548347375E0,3.605692549E0,-4.406597956E0,3.770261849E0,6.828909042E0
2.558346375E0,5.547439431E0,-2.755311511E0,1.718851899E0,6.428085066E0
2.568345375E0,6.311206833E0,-1.229094670E0,1.230161203E0,6.546396106E0
2.578344375E0,5.670140913E0,-1.288591844E0,-6.045155597E-1,5.846059012E0
2.588344375E0,3.407433054E0,-2.722457761E0,-3.702041506E0,5.720794315E0
2.598343375E0,9.327295683E-3,-2.990477169E0,-7.695104198E0,8.255765823E0
2.608342375E0,-3.998871024E0,-1.712117368E0,-1.280057365E1,1.351950447E1
2.618341375E0,-7.153630979E0,-1.268597290E0,-1.563179196E1,1.723765341E1
2.628341375E0,-8.167156935E0,-2.120044275E0,-1.202943934E1,1.469368745E1
2.638340375E0,-8.325188463E0,-3.343796344E0,-7.728423972E0,1.184137973E1
2.648339375E0,-7.786162888E0,-3.265272916E0,-5.247542757E0,9.940978056E0
2.658338375E0,-6.868593249E0,-2.182234091E0,-4.137936523E0,8.310369277E0
2.668338375E0,-5.760181602E0,-7.689872110E-1,-3.986443059E0,7.047181116E0
2.678337375E0,-4.753061271E0,-3.792591780E-1,-4.475980140E0,6.539864462E0
2.688336375E0,-4.237035719E0,-2.141969579E-1,-4.692656317E0,6.326086889E0
2.698336375E0,-3.897839616E0,-5.877504230E-2,-4.596213804E0,6.026756135E0
2.708335375E0,-3.547177708E0,-2.523190498E-2,-4.083626415E0,5.409169163E0
2.718334375E0,-3.176279756E0,1.611784995E-1,-3.293787448E0,4.578620682E0
2.728333375E0,-2.780562712E0,9.915474415E-2,-2.803164539E0,3.949568596E0
2.738333375E0,-2.276766611E0,1.005574912E-1,-2.584220812E0,3.445573278E0
2.748332375E0,-1.666827759E0,3.171406978E-1,-2.287063558E0,2.847727641E0
2.758331375E0,-1.020156333E0,4.830916947E-1,-1.767820868E0,2.097447770E0
2.768330375E0,-4.162015576E-1,6.147698218E-1,-1.050956907E0,1.286730776E0
2.778330375E0,2.427558555E-1,7.124469745E-1,-2.677727292E-1,7.988825517E-1
2.788329375E0,8.595686214E-1,8.115947020E-1,3.368199407E-1,1.229224084E0
2.798328375E0,1.453056186E0,8.057615197E-1,8.286749306E-1,1.856697619E0
2.808328375E0,2.035026490E0,8.286557078E-1,1.290543644E0,2.548235860E0
2.818327375E0,2.529721254E0,1.111280292E0,1.521370084E0,3.154203614E0
2.828326375E0,3.013017601E0,1.446527478E0,2.338890354E0,4.079353490E0
2.838325375E0,3.558345889E0,1.861843511E0,3.507534170E0,5.332080521E0
2.848325375E0,3.976189089E0,2.190336578E0,3.871110531E0,5.965999559E0
2.858324375E0,4.231468585E0,2.217831940E0,3.739818320E0,6.067153036E0
2.868323375E0,4.362567837E0,1.957487002E0,3.418375826E0,5.877843719E0
2.878322375E0,4.219563069E0,1.568759428E0,2.871378157E0,5.339525368E0
2.888322375E0,3.814770562E0,1.250763867E0,2.338066481E0,4.645798054E0
2.898321375E0,3.517905084E0,1.218439874E0,2.230620385E0,4.340036775E0
2.908320375E0,3.390968172E0,1.385239302E0,2.582789998E0,4.482003708E0
2.918319375E0,3.346324096E0,1.535081220E0,2.945217966E0,4.714728854E0
2.928319375E0,3.370023153E0,1.583976222E0,2.718776354E0,4.610616183E0
2.938318375E0,3.346477585E0,1.500659831E0,2.079827710E0,4.216227634E0
2.948317375E0,3.244748604E0,1.389487304E0,1.412190873E0,3.801756375E0
2.958317375E0,3.072196978E0,1.294396960E0,8.967225605E-1,3.452241172E0
2.968316375E0,2.864627547E0,1.054506751E0,6.231272471E-1,3.115503657E0
2.978315375E0,2.639957348E0,5.685972834E-1,6.524177045E-1,2.778187635E0
2.988314375E0,2.573106132E0,2.597216249E-2,7.355540013E-1,2.676301442E0
2.998314375E0,2.649420190E0,-6.066708434E-1,6.798113251E-1,2.801717383E0
3.008313375E0,2.907240008E0,-1.177753193E0,5.738901830E-1,3.188808083E0
3.018312375E0,3.124831567E0,-1.617863760E0,6.292826110E-1,3.574640132E0
3.028311375E0,3.279519365E0,-1.931475663E0,7.040328312E-1,3.870595268E0
3.038311375E0,3.378523543E0,-2.141496540E0,8.630507845E-1,4.092100367E0
3.048310375E0,3.484673603E0,-2.174761350E0,1.072784563E0,4.245397952E0
3.058309375E0,3.592805578E0,-2.042258765E0,1.266364823E0,4.322354989E0
3.068308375E0,3.770941003E0,-1.742925178E0,1.534763131E0,4.428688529E0
3.078307875E0,4.017798753E0,-1.312810426E0,1.552987148E0,4.503104165E0
3.088306875E0,4.190879260E0,-8.634098035E-1,1.304891542E0,4.473442455E0
3.098305875E0,4.299031407E0,-5.471456033E-1,8.601043725E-1,4.418237079E0
3.108305875E0,4.503299208E0,-4.636847860E-1,4.320905256E-1,4.547681779E0
3.118304875E0,4.830443907E0,-2.437107790E-1,2.544053364E-1,4.843274240E0
3.128303875E0,5.082600989E0,2.755593932E-1,3.559024386E-1,5.102492758E0
3.138302875E0,5.269066942E0,5.980532169E-1,5.906354392E-1,5.335689676E0
3.148302875E0,5.255316045E0,6.544437647E-1,7.890045691E-1,5.354360054E0
3.158301875E0,5.170093462E0,3.854776919E-1,1.058130856E0,5.291323120E0
3.168300875E0,5.112558029E0,1.748691702E-1,1.377211075E0,5.297691872E0
3.178299875E0,4.950197808E0,-1.552143395E-2,1.630105491E0,5.211712114E0
3.188299875E0,4.704823203E0,-5.910289568E-1,1.456785833E0,4.960534403E0
3.198298875E0,4.266923177E0,-1.368930833E0,8.566591930E-1,4.562287803E0
3.208297875E0,3.626650724E0,-2.280695356E0,3.157455522E-1,4.295795855E0
3.218297875E0,2.911232487E0,-3.819146326E0,1.507926750E-1,4.804569874E0
3.228296875E0,2.061025111E0,-5.262752534E0,-4.091066558E-2,5.652084786E0
3.238295875E0,1.233726104E0,-6.591797170E0,-7.782760978E-2,6.706707625E0
3.248294875E0,5.161265628E-1,-7.983512848E0,7.718441606E-2,8.000551322E0
3.258294875E0,-3.802020416E-1,-9.780214868E0,2.580406234E-1,9.791003086E0
3.268293875E0,-1.658626747E0,-1.190611221E1,3.219219661E-1,1.202539747E1
3.278292875E0,-3.189236601E0,-1.399969257E1,4.049489200E-2,1.435842129E1
3.288291875E0,-4.925519049E0,-1.529399597E1,-4.951105003E-1,1.607520405E1
3.298291875E0,-5.764930125E0,-1.481162524E1,-1.361187950E0,1.595216268E1
3.308290875E0,-5.980638589E0,-1.200975644E1,-2.257478255E0,1.360509080E1
3.318289875E0,-6.014015665E0,-8.896447983E0,-2.845939845E0,1.110920991E1
3.328289875E0,-6.129723877E0,-6.426486443E0,-3.881500449E0,9.692228255E0
3.338288875E0,-6.212114654E0,-3.916059247E0,-5.645345210E0,9.262602822E0
3.348287875E0,-6.251111489E0,-1.540241972E0,-7.775482364E0,1.009489307E1
3.358286875E0,-6.277159081E0,3.533180058E-1,-8.393509669E0,1.048706653E1
3.368286875E0,-6.312429485E0,1.565593160E0,-6.851718185E0,9.446898435E0
3.378285875E0,-6.254313424E0,2.239846122E0,-4.461607976E0,8.002455423E0
3.388284875E0,-6.200928930E0,2.931141964E0,-2.703380635E0,7.372338819E0
3.398283875E0,-6.172428432E0,3.624345167E0,-1.558826178E0,7.325618723E0
3.408283875E0,-6.249851414E0,4.199345151E0,-7.602847999E-1,7.567904292E0
3.418282875E0,-6.471877794E0,4.743095276E0,-1.978705086E-1,8.026288539E0
3.428281875E0,-6.555464326E0,5.223244067E0,-1.202300097E-1,8.382770805E0
3.438281875E0,-6.720335927E0,5.509655308E0,-1.112134570E-1,8.690890922E0
3.448280875E0,-6.872130815E0,5.679637960E0,-1.222575317E-1,8.916244512E0
3.458279875E0,-7.050138770E0,5.805184112E0,1.203760439E-1,9.133406246E0
3.468278875E0,-7.076972812E0,5.815443052E0,3.648843831E-1,9.167118560E0
3.478278875E0,-7.061815660E0,5.686321328E0,6.596635741E-1,9.090580107E0
3.488277875E0,-7.072295040E0,5.433239216E0,9.043995161E-1,8.964116465E0
3.498276875E0,-7.077429480E0,5.103671431E0,1.099517009E0,8.794680652E0
3.508275875E0,-7.045894861E0,4.944889705E0,1.062989892E0,8.673322091E0
3.518275875E0,-6.905927721E0,4.941424645E0,8.443537277E-1,8.533607000E0
3.528274875E0,-6.543744752E0,4.757822074E0,4.045541599E-1,8.100687028E0
3.538273875E0,-6.276818773E0,4.270027463E0,-1.187749301E-1,7.592476271E0
3.548273875E0,-5.865461304E0,3.794062355E0,-5.326767413E-1,7.005875390E0
3.558272875E0,-5.433026962E0,3.266162862E0,-8.886417816E-1,6.401194110E0
3.568271875E0,-5.029532830E0,2.049546150E0,-1.287872636E0,5.581707251E0
3.578270875E0,-4.270432968E0,2.466946131E-1,-1.731858153E0,4.614844377E0
3.588270875E0,-3.356573972E0,-2.035720993E0,-1.798532199E0,4.318039702E0
3.598269875E0,-2.498533959E0,-4.325908719E0,-1.716053714E0,5.282139579E0
3.608268875E0,-1.572551639E0,-6.758777277E0,-1.493007433E0,7.098102573E0
3.618267875E0,-3.200375547E-1,-9.631748800E0,-9.267783453E-1,9.681525039E0
3.628267875E0,2.641177955E0,-1.184492226E1,2.682568055E-1,1.213877943E1
3.638266875E0,7.121288860E0,-1.248048888E1,9.933718459E-1,1.440354627E1
3.648265875E0,1.076919363E1,-1.170449319E1,7.724259585E-1,1.592379773E1
3.658265875E0,1.206896418E1,-1.063518480E1,1.518086872E0,1.615771147E1
3.668264875E0,1.068065041E1,-1.023029669E1,1.688711548E0,1.488579895E1
3.678263875E0,8.321291294E0,-1.128491805E1,2.071172662E0,1.417332072E1
3.688262875E0,6.156871914E0,-1.263250479E1,5.255884395E0,1.500371853E1
3.698262875E0,5.088425401E0,-1.346305967E1,9.937719562E0,1.749012061E1
3.708261875E0,6.037716184E0,-1.310302789E1,1.129186454E1,1.832074129E1
3.718260875E0,8.349359098E0,-1.034567746E1,5.053332167E0,1.422255270E1
3.728259875E0,9.768533301E0,-5.544281350E0,-1.431692214E0,1.132311976E1
3.738259875E0,9.096362532E0,-9.130766380E-1,-3.980673904E0,9.971122554E0
3.748258875E0,7.135899298E0,2.353703105E0,-5.493994126E0,9.308326839E0
3.758257875E0,4.755974938E0,4.462250585E0,-5.975890650E0,8.845464767E0
3.768257875E0,3.762131295E0,5.377404739E0,-7.945218848E0,1.030517424E1
3.778256875E0,3.143174575E0,6.061230177E0,-9.211573146E0,1.146608641E1
3.788255875E0,2.079648347E0,6.730232924E0,-8.625148287E0,1.113616431E1
3.798254875E0,9.762885475E-1,7.004835713E0,-8.516492987E0,1.107029880E1
3.808254875E0,-3.482802641E-3,6.652643296E0,-8.267480537E0,1.061173451E1
3.818253875E0,2.844170478E-1,5.900361580E0,-6.897020073E0,9.080971629E0
3.828252875E0,-2.066203552E-1,4.375593680E0,-6.914309120E0,8.185119586E0
3.838251875E0,-2.577274904E0,1.551845772E0,-1.088304593E1,1.129120277E1
3.848251875E0,-3.975195063E0,-8.508874065E-1,-1.108715352E1,1.180894400E1
3.858250875E0,-3.834715999E0,-1.674575905E0,-8.686099663E0,9.641451063E0
3.868249875E0,-3.676503792E0,-2.248956084E0,-6.929722381E0,8.160608793E0
3.878248875E0,-3.133828970E0,-2.296381096E0,-4.869001617E0,6.229079137E0
3.888248875E0,-2.695350069E0,-2.391712346E0,-3.541184896E0,5.052246076E0
3.898247875E0,-2.299244039E0,-2.273358269E0,-2.555546651E0,4.121346826E0
3.908246875E0,-1.936356626E0,-2.030180756E0,-1.600624560E0,3.230032488E0
3.918246875E0,-1.608045993E0,-1.826904643E0,-9.160043389E-1,2.600472349E0
3.928245875E0,-1.329970689E0,-1.677229371E0,-3.721955954E-1,2.172659651E0
3.938244875E0,-1.084936246E0,-1.522645946E0,7.030065718E-1,1.997437252E0
3.948243875E0,-9.012221391E-1,-1.239334314E0,2.635077555E0,3.048242872E0
3.958243875E0,-9.132674765E-1,-8.265477866E-1,5.024462124E0,5.173244472E0
3.968242875E0,-1.205740453E0,-9.659307897E-2,6.919099159E0,7.024035410E0
3.978241875E0,-1.587772526E0,6.726835692E-1,7.953285667E0,8.138075797E0
3.988240875E0,-1.959851031E0,1.231533544E0,7.147291428E0,7.512753536E0
3.998240875E0,-2.380008267E0,1.466157750E0,6.000962341E0,6.620091156E0
4.008239875E0,-2.412109188E0,1.621570310E0,4.997950848E0,5.781632442E0
4.018238875E0,-2.083636587E0,1.824052371E0,3.924941168E0,4.803527001E0
4.028237875E0,-1.912160556E0,1.871576201E0,2.958273629E0,3.988801616E0
4.038237875E0,-2.069317779E0,1.710097740E0,2.169738007E0,3.451705863E0
4.048236875E0,-2.433897376E0,1.491332937E0,1.775356175E0,3.361520476E0
4.058235875E0,-2.678164517E0,1.239960551E0,1.699865112E0,3.405819835E0
4.068235875E0,-2.515865107E0,1.083800717E0,1.592710208E0,3.168742185E0
4.078234792E0,-2.230202748E0,9.214913660E-1,1.504751712E0,2.843805259E0
4.088233792E0,-1.675990054E0,7.464777696E-1,1.370456371E0,2.290048555E0
4.098232792E0,-9.315017261E-1,5.554053801E-1,1.070365570E0,1.523762795E0
4.108232792E0,-2.282383520E-1,3.770056611E-1,7.840396982E-1,8.994132878E-1
4.118231792E0,3.426489569E-1,2.241693842E-1,6.187266326E-1,7.419453257E-1
4.128230792E0,7.524528931E-1,8.781582355E-2,5.427473277E-1,9.319182566E-1
4.138229792E0,1.040335586E0,1.047528684E-2,5.362288882E-1,1.170448326E0
4.148229792E0,1.204115219E0,-7.347552717E-2,5.249670778E-1,1.315630095E0
4.158228792E0,1.340167502E0,-1.744464165E-1,5.005777931E-1,1.441200407E0
4.168227792E0,1.486147918E0,-2.860533911E-1,4.075199407E-1,1.567333621E0
4.178226792E0,1.650197108E0,-4.865275186E-1,3.984463046E-1,1.765961206E0
4.188226792E0,1.786060234E0,-7.357492983E-1,3.953525428E-1,1.971710380E0
4.198225792E0,1.892915761E0,-9.815989888E-1,2.341558439E-1,2.145109697E0
4.208224792E0,2.002989011E0,-1.201706312E0,-3.208133340E-2,2.336042005E0
4.218223792E0,2.072359354E0,-1.498755977E0,-2.990014654E-1,2.574945562E0
4.228223792E0,2.202604475E0,-1.914419335E0,-6.748330057E-1,2.995307572E0
4.238222792E0,2.494605508E0,-2.415389476E0,-9.339905204E-1,3.595761568E0
4.248221792E0,2.786970091E0,-2.915816411E0,-1.153133053E0,4.195104703E0
4.258221792E0,3.215769804E0,-3.411340456E0,-1.292534621E0,4.863030422E0
4.268220792E0,3.703167095E0,-3.699605264E0,-1.384031413E0,5.414431512E0
4.278219792E0,4.392590366E0,-3.434595417E0,-1.479665403E0,5.768943188E0
4.288218792E0,5.218235343E0,-2.879975318E0,-1.571374887E0,6.163883270E0
4.298218792E0,5.736839517E0,-2.604711794E0,-1.663032916E0,6.516251196E0
4.308217792E0,6.152708112E0,-2.361523756E0,-1.613923321E0,6.785083644E0
4.318216792E0,6.550815790E0,-1.958977457E0,-1.431367548E0,6.985670565E0
4.328215792E0,7.061665971E0,-1.440164537E0,-1.302634517E0,7.323800712E0
4.338215792E0,7.468129905E0,-9.703711653E-1,-1.114899864E0,7.612987993E0
4.348214792E0,7.583594288E0,-6.912864858E-1,-8.447554314E-1,7.661748564E0
4.358213792E0,7.453205472E0,-5.171008551E-1,-4.898252021E-1,7.487161934E0
4.368212792E0,7.316401091E0,-1.073800224E-1,-2.571576208E-1,7.321706456E0
4.378212792E0,6.912110567E0,4.762913829E-1,-2.466560946E-1,6.932890105E0
4.388211792E0,6.244101262E0,1.151100415E0,-3.904698984E-1,6.361312717E0
4.398210792E0,5.511659149E0,1.581701070E0,-5.570471321E-1,5.761116763E0
4.408209792E0,4.792460687E0,1.712394526E0,-7.005087143E-1,5.137186672E0
4.418209792E0,4.085220658E0,1.235011468E0,-7.936461619E-1,4.340985531E0
4.428208792E0,3.326354100E0,1.220021546E-2,-7.100356559E-1,3.401313140E0
4.438207792E0,2.535702663E0,-1.685321918E0,-4.226601362E-1,3.073880211E0
4.448207792E0,1.856973657E0,-3.377885027E0,3.033477008E-2,3.854786455E0
4.458206792E0,1.319242071E0,-4.897875168E0,4.691968831E-1,5.094087408E0
4.468205792E0,8.199899881E-1,-6.283779883E0,6.887634122E-1,6.374375909E0
4.478204792E0,4.636145463E-1,-7.581984549E0,9.302755650E-1,7.652897541E0
4.488204792E0,7.709875435E-2,-9.085915897E0,1.326977645E0,9.182629339E0
4.498203792E0,-3.054072364E-1,-1.029799459E1,1.596967565E0,1.042555857E1
4.508202792E0,-6.586799262E-1,-1.077359073E1,1.591831517E0,1.091045573E1
4.518201792E0,-7.921680589E-1,-9.704795142E0,1.242952572E0,9.816084254E0
4.528201792E0,-6.597752559E-1,-7.590350745E0,2.673672248E-1,7.623661395E0
4.538200792E0,-8.882565232E-1,-5.710521199E0,-1.207462311E0,5.903983168E0
4.548199792E0,-1.806403428E0,-3.865383183E0,-4.371036944E0,6.108211233E0
4.558198792E0,-3.217264352E0,-2.801486973E0,-6.805720478E0,8.032244419E0
4.568198792E0,-4.358898417E0,-1.973917093E0,-7.837892035E0,9.183076590E0
4.578197792E0,-6.182721870E0,-1.237125821E0,-1.081234491E1,1.251652238E1
4.588196792E0,-8.146370668E0,-8.811180961E-1,-1.336232735E1,1.567454996E1
4.598196792E0,-9.057078599E0,-6.543852925E-1,-1.110098920E1,1.434192644E1
4.608195792E0,-8.242068538E0,-2.613529980E-2,-5.836529281E0,1.009937874E1
4.618194792E0,-7.767774564E0,6.948614734E-1,-2.686101528E0,8.248411699E0
4.628193792E0,-7.742022842E0,1.375294358E0,-1.180067229E0,7.951283602E0
4.638193792E0,-7.812054943E0,2.165865980E0,-6.907235451E-1,8.136109445E0
4.648192792E0,-7.837883264E0,3.095865045E0,-1.507647546E-1,8.428494792E0
4.658191792E0,-7.794944236E0,3.946251930E0,6.183798927E-1,8.758792932E0
4.668190792E0,-7.843170902E0,4.363041462E0,1.133855807E0,9.046385443E0
4.678190792E0,-7.792090210E0,4.510281953E0,1.383677511E0,9.108999758E0
4.688189792E0,-7.705920378E0,4.429978632E0,1.573826625E0,9.026785131E0
4.698188792E0,-7.771949476E0,4.131333847E0,1.633705037E0,8.952100880E0
4.708187792E0,-7.846489781E0,3.531081492E0,1.514996619E0,8.736770178E0
4.718187792E0,-7.682308736E0,2.840834641E0,1.342307144E0,8.299999846E0
4.728186792E0,-7.299721908E0,2.279935217E0,1.136638935E0,7.731493555E0
4.738185792E0,-6.607972907E0,1.628996859E0,7.439612742E-1,6.846343191E0
4.748184792E0,-5.881173942E0,9.082363129E-1,5.051345283E-1,5.972291104E0
4.758184792E0,-5.276261941E0,3.175681293E-2,4.893347669E-1,5.298999630E0
4.768183792E0,-4.633938577E0,-1.109535483E0,4.163246050E-1,4.783072433E0
4.778182792E0,-3.760187681E0,-2.567373229E0,4.915075191E-1,4.579519225E0
4.788182792E0,-2.282799184E0,-4.095732490E0,1.133191490E0,4.823931974E0
4.798181792E0,-2.467358360E-1,-5.297944002E0,1.867546300E0,5.622883460E0
4.808180792E0,2.685560660E0,-5.986602749E0,1.880432979E0,6.825516590E0
4.818179792E0,6.322843376E0,-6.416942618E0,1.085702232E0,9.073822252E0
4.828179792E0,8.284597676E0,-7.132539487E0,1.236975548E0,1.100171744E1
4.838178792E0,6.588015776E0,-8.157631236E0,1.821199953E0,1.064263447E1
4.848177792E0,3.988760018E0,-7.901461210E0,1.337175774E0,8.951610737E0
4.858176792E0,3.804950455E0,-6.334060675E0,1.953298057E0,7.642862415E0
4.868176792E0,3.710217960E0,-5.853137128E0,3.218847193E0,7.641067256E0
4.878175792E0,3.734495015E0,-7.068103756E0,1.626506676E0,8.157822484E0
4.888174792E0,4.527645260E0,-8.147651208E0,1.507151994E-1,9.322365949E0
4.898173792E0,6.095425864E0,-9.694796988E0,8.709924728E-2,1.145211297E1
4.908173792E0,9.092581723E0,-1.023956453E1,3.578086674E-2,1.369397694E1
4.918172792E0,1.233928213E1,-6.984002668E0,1.108047366E-4,1.417865215E1
4.928171792E0,1.201154452E1,-1.305139464E0,6.051704478E-1,1.209738906E1
4.938170792E0,8.317865410E0,1.833119064E0,-6.153636065E-1,8.539665266E0
4.948170792E0,4.964210660E0,3.359478577E0,-2.644727799E0,6.551646275E0
4.958169792E0,2.865976792E0,4.445681915E0,-4.796916850E0,7.140610753E0
4.968168792E0,1.433120104E0,5.138905583E0,-6.056022062E0,8.070786024E0
4.978168792E0,4.371538855E-1,5.483413589E0,-6.037035568E0,8.167296160E0
4.988167792E0,-4.151007827E-1,4.551068037E0,-5.782204555E0,7.370103015E0
4.998166792E0,-8.199385326E-1,2.737271681E0,-5.756759811E0,6.426915199E0
5.008165792E0,-9.161182134E-1,1.313305101E0,-5.988526483E0,6.198910574E0
5.018165792E0,-1.003067114E0,1.528947490E-1,-6.208787003E0,6.291149060E0
5.028164792E0,-1.368462909E0,-1.148018932E0,-6.401016557E0,6.645573802E0
5.038163792E0,-1.936578967E0,-2.623973107E0,-6.576271058E0,7.340498212E0
5.048162792E0,-2.358032530E0,-3.942309737E0,-5.960738760E0,7.525458793E0
5.058162792E0,-2.902275429E0,-5.022056580E0,-4.528459193E0,7.358749732E0
5.068161792E0,-3.313557761E0,-5.366861039E0,-3.148066063E0,7.049339146E0
5.078160667E0,-3.370330717E0,-4.805854611E0,-1.695199619E0,6.109751994E0
5.088159667E0,-3.060901327E0,-3.401852179E0,3.748093738E-1,4.591535391E0
5.098159667E0,-3.034096521E0,-1.923011234E0,2.680761266E0,4.482208704E0
5.108158667E0,-3.989431279E0,-8.678045708E-1,5.144361620E0,6.567579705E0
5.118157667E0,-4.682009414E0,2.725662035E-1,7.705286540E0,9.020362806E0
5.128156667E0,-4.512236093E0,1.469778346E0,8.017103932E0,9.316355425E0
5.138156667E0,-3.939828471E0,2.366762862E0,6.292168883E0,7.791996155E0
5.148155667E0,-3.719063336E0,2.718893883E0,5.112898922E0,6.882263540E0
5.158154667E0,-3.681092979E0,3.024538954E0,4.296176212E0,6.415248355E0
5.168153667E0,-3.255209273E0,3.638342816E0,3.617004572E0,6.075907170E0
5.178153667E0,-2.874614591E0,4.077948183E0,3.525952899E0,6.109452863E0
5.188152667E0,-2.500204509E0,4.454781352E0,3.241172447E0,6.049900686E0
5.198151667E0,-2.289969478E0,4.674451888E0,2.869110607E0,5.943589516E0
5.208150667E0,-2.035750668E0,4.808765940E0,2.701407200E0,5.879295154E0
5.218150667E0,-1.886775161E0,4.627596980E0,2.684160252E0,5.672679312E0
5.228149667E0,-1.607407477E0,3.957170436E0,1.674140872E0,4.587559734E0
5.238148667E0,-1.387064510E0,3.010175854E0,3.776055855E-1,3.335819630E0
5.248147667E0,-1.509361218E0,1.914835657E0,1.545530194E-1,2.443082789E0
5.258147667E0,-1.646837883E0,9.751372308E-1,1.358372150E-1,1.918702525E0
5.268146667E0,-1.658295502E0,5.858968556E-2,-1.721829959E-1,1.668239703E0
5.278145667E0,-1.562075037E0,-1.008750535E0,-4.254715141E-1,1.907532980E0
5.288145667E0,-1.362614232E0,-2.009008573E0,-8.725723904E-1,2.579576626E0
5.298144667E0,-9.776471481E-1,-2.771622319E0,-1.713739386E0,3.402144457E0
5.308143667E0,-1.197314615E-1,-2.713641914E0,-2.244577689E0,3.523679478E0
5.318142667E0,8.515853447E-1,-1.703180484E0,-2.370978704E0,3.040980331E0
5.328142667E0,1.447931686E0,-6.121876913E-1,-2.308235595E0,2.792710422E0
5.338141667E0,1.707085400E0,-6.733945906E-2,-2.160349571E0,2.754230462E0
5.348140667E0,1.677359618E0,5.775645733E-2,-1.962772885E0,2.582508179E0
5.358139667E0,1.677463552E0,-3.033184648E-2,-1.597750946E0,2.316810755E0
5.368139667E0,1.675892551E0,-3.067741692E-1,-1.150789197E0,2.055977143E0
5.378138667E0,1.748464391E0,-6.283248371E-1,-7.300149339E-1,1.996206811E0
5.388137667E0,1.956089664E0,-1.170783897E0,-4.101916797E-1,2.316307173E0
5.398136667E0,2.372812245E0,-1.753592253E0,-1.787832963E-1,2.955890256E0
5.408136667E0,2.879006435E0,-2.318164313E0,-4.292294830E-3,3.696293043E0
5.418135667E0,3.445160459E0,-2.974164022E0,1.280401357E-1,4.553150173E0
5.428134667E0,4.082386805E0,-3.521568657E0,4.031309476E-1,5.406463021E0
5.438133667E0,4.802071755E0,-3.810989460E0,7.684100908E-1,6.178510166E0
5.448133667E0,5.474893026E0,-3.654651870E0,1.003963419E0,6.658744363E0
5.458132667E0,6.008818075E0,-3.249430470E0,1.085224441E0,6.916820449E0
5.468131667E0,6.289927061E0,-2.998401901E0,9.738900197E-1,7.035769905E0
5.478131667E0,6.439536259E0,-2.771521162E0,6.368132401E-1,7.039494860E0
5.488130667E0,6.464963461E0,-2.321451033E0,5.716486529E-2,6.869363528E0
5.498129667E0,6.442982023E0,-1.782689753E0,-5.983109330E-1,6.711778906E0
5.508128667E0,6.548668692E0,-1.181375543E0,-1.116745246E0,6.747431345E0
5.518128667E0,6.894734981E0,-5.964680368E-1,-1.279808156E0,7.037830170E0
5.528127667E0,7.154175940E0,-3.051047891E-1,-1.449002604E0,7.305814866E0
5.538126667E0,7.167179562E0,-3.363476318E-1,-1.654547583E0,7.363363383E0
5.548125667E0,6.948918790E0,-2.585375637E-1,-2.094246359E0,7.262243581E0
5.558125667E0,6.825400452E0,1.735974008E-1,-2.493461500E0,7.268670968E0
5.568124667E0,6.444839684E0,4.962075841E-1,-2.842268963E0,7.061209059E0
5.578123667E0,5.626444670E0,4.575013554E-1,-2.519474885E0,6.181742538E0
5.588122667E0,4.512660308E0,-1.397975707E-1,-1.087973436E0,4.644064235E0
5.598122667E0,3.482740514E0,-8.416552377E-1,2.013825510E0,4.110153064E0
5.608121667E0,2.578261914E0,-1.841568875E0,3.860652786E0,4.994341834E0
5.618120667E0,1.765546886E0,-3.418730752E0,3.103782175E0,4.943514898E0
5.628119667E0,1.166743836E0,-4.913919343E0,2.348770979E0,5.569974829E0
5.638119667E0,5.446793574E-1,-6.218674645E0,1.195518204E0,6.355930594E0
5.648118667E0,1.338957749E-1,-7.318262844E0,8.101557753E-1,7.364187091E0
5.658117667E0,-1.545525078E-1,-8.207348941E0,9.793396246E-1,8.267016948E0
5.668116667E0,-3.883146147E-1,-8.766297149E0,1.015556621E0,8.833465299E0
5.678116667E0,-5.180592138E-1,-8.851922021E0,9.582815353E-1,8.918700147E0
5.688115667E0,-6.107979544E-1,-8.137189955E0,5.076213491E-1,8.175855547E0
5.698114667E0,-7.993374762E-1,-6.861105890E0,1.194521838E-1,6.908544221E0
5.708114667E0,-1.380851990E0,-5.521139240E0,-3.773939162E-1,5.703696774E0
5.718113667E0,-2.425143363E0,-4.411343556E0,-2.319026778E0,5.542486581E0
5.728112667E0,-4.185113321E0,-3.863669364E0,-5.586659045E0,7.978337781E0
5.738111667E0,-6.503988948E0,-3.105752687E0,-1.018398557E1,1.247642313E1
5.748111667E0,-1.188100426E1,9.529792070E-1,-2.233081362E1,2.531267802E1
5.758110667E0,-1.543831929E1,5.397990446E0,-1.766588626E1,2.407412596E1
5.768109667E0,-1.229516372E1,-7.673149073E-1,-5.001076770E0,1.329551021E1
5.778108667E0,-1.068823074E1,-4.679727246E0,-1.860432285E0,1.181521611E1
5.788108667E0,-9.716043431E0,-1.378434312E0,5.581113254E-1,9.829194746E0
5.798107667E0,-8.541271148E0,1.037663847E0,9.601098865E-1,8.657474809E0
5.808106667E0,-7.895016409E0,2.614311753E0,1.007732096E0,8.377436005E0
5.818105667E0,-7.726048248E0,3.629100707E0,7.848482220E-1,8.571941449E0
5.828105667E0,-7.711850624E0,3.871965979E0,3.268270491E-1,8.635483571E0
5.838104667E0,-7.505306502E0,3.688910707E0,-1.675357385E-1,8.364553551E0
5.848103667E0,-6.872572864E0,3.296076048E0,-4.913771993E-1,7.637920309E0
5.858102667E0,-6.134313356E0,2.825955232E0,-4.358646110E-1,6.767998322E0
5.868102667E0,-5.427978476E0,2.504727330E0,-2.308539212E-1,5.982466287E0
5.878101667E0,-4.906700955E0,2.272994573E0,-2.941281036E-2,5.407687463E0
5.888100667E0,-4.528921123E0,2.037147714E0,4.456279993E-2,4.966194034E0
5.898099667E0,-4.189770336E0,1.723485525E0,1.756673151E-1,4.533810409E0
5.908099667E0,-3.850922727E0,1.337916031E0,3.324656653E-1,4.090251652E0
5.918098667E0,-3.355663561E0,6.515388680E-1,3.552009554E-1,3.436735158E0
5.928097667E0,-2.751877734E0,-5.152122045E-1,4.852708058E-1,2.841436685E0
5.938096667E0,-1.515312368E0,-1.924880004E0,7.724228887E-1,2.568651732E0
5.948096667E0,1.002072430E0,-2.885227872E0,5.013325225E-1,3.095161276E0
5.958095667E0,3.251139026E0,-2.504901577E0,-6.095599526E-1,4.149216820E0
5.968094667E0,4.802667294E0,-2.072490624E0,-2.018749011E0,5.606797490E0
5.978094667E0,6.989977353E0,-2.566146483E0,-2.468941201E0,7.844779272E0
5.988093667E0,9.694702263E0,-3.396921222E0,-2.011556059E0,1.046769715E1
5.998092667E0,1.161964776E1,-4.589257371E0,3.896385705E-1,1.249917259E1
6.008091667E0,1.047342626E1,-5.703786961E0,2.980642737E0,1.229268377E1
6.018091667E0,7.332882053E0,-5.725471945E0,4.005481886E0,1.012897198E1
6.028090667E0,4.866257519E0,-4.018305999E0,4.355427802E0,7.667919971E0
6.038089667E0,3.498359889E0,-7.451235545E-1,3.540131228E0,5.032520257E0
6.048088667E0,2.358599710E0,1.275870057E0,1.963643389E0,3.323662491E0
6.058088667E0,1.437239029E0,8.237452161E-1,7.494149722E-1,1.818195536E0
6.068087667E0,1.476597661E0,-2.928556910E0,2.073294032E-1,3.286300611E0
6.078086667E0,2.891470944E0,-6.255001057E0,-7.991404250E-2,6.891446053E0
6.088085667E0,4.800610828E0,-7.834118242E0,-6.511494434E-1,9.211040579E0
6.098085667E0,6.744402482E0,-9.659573945E0,-6.409752882E-1,1.179852461E1
6.108084667E0,8.328680420E0,-9.565001079E0,1.410532603E-1,1.268369265E1
6.118083667E0,7.772853456E0,-5.392309876E0,1.466186986E0,9.573085235E0
6.128082667E0,4.700336050E0,-3.800982535E-1,1.075006943E0,4.836659342E0
6.138082667E0,2.484985668E0,2.539367405E0,-1.808809850E0,3.986895241E0
6.148081667E0,9.683347262E-1,4.062164209E0,-4.102118819E0,5.853736329E0
6.158080667E0,-1.587133864E-1,4.812731522E0,-5.122383690E0,7.030390410E0
6.168079667E0,-1.130619957E0,4.893446487E0,-5.418871438E0,7.388388706E0
6.178079667E0,-1.868651424E0,3.842490165E0,-5.101000423E0,6.654081013E0
6.188078667E0,-2.762529899E0,2.088399729E0,-4.994816156E0,6.077925082E0
6.198077667E0,-3.812455649E0,2.997937632E-1,-5.559079483E0,6.747448338E0
6.208077667E0,-4.600277619E0,-1.078352281E0,-5.798803046E0,7.480074503E0
6.218076667E0,-5.165563039E0,-1.885107828E0,-5.416710892E0,7.718641715E0
6.228075667E0,-5.636924050E0,-2.385980905E0,-4.817991677E0,7.789792130E0
6.238074667E0,-5.604083748E0,-2.744718695E0,-3.962006083E0,7.391666089E0
6.248074667E0,-5.104891160E0,-2.774141300E0,-2.995399355E0,6.536680427E0
6.258073667E0,-4.954344653E0,-2.552490311E0,-1.925397921E0,5.896430690E0
6.268072667E0,-5.203148357E0,-2.343034276E0,-8.547693729E-1,5.770025400E0
6.278071667E0,-5.064299204E0,-2.220226375E0,-1.757462525E-1,5.532397160E0
6.288071667E0,-5.055141880E0,-1.903298516E0,6.100370489E-1,5.435912975E0
6.298070667E0,-4.889924416E0,-1.124635332E0,1.167250425E0,5.151566653E0
6.308069667E0,-4.838463364E0,-3.784423220E-1,2.744873646E0,5.575686294E0
6.318068667E0,-4.594152076E0,7.502790445E-1,6.467346786E0,7.968420571E0
6.328068667E0,-4.359389291E0,1.552424061E0,7.116933854E0,8.489113201E0
6.338067667E0,-4.047270766E0,1.999798039E0,5.675404576E0,7.251883201E0
6.348066667E0,-3.451827747E0,2.361623159E0,4.219011676E0,5.940743915E0
6.358065667E0,-2.963759779E0,2.540421073E0,3.114975500E0,4.994064840E0
6.368065667E0,-2.809630683E0,2.571196724E0,2.343210862E0,4.471656774E0
6.378064667E0,-2.785752701E0,2.489223438E0,1.900032846E0,4.191273822E0
6.388063667E0,-2.271478243E0,2.385505527E0,1.295741819E0,3.539660561E0
6.398062667E0,-1.821251555E0,2.133366571E0,9.678708959E-1,2.967319367E0
6.408062667E0,-1.621805368E0,1.794443241E0,8.891077316E-1,2.576973371E0
6.418061667E0,-1.468322389E0,1.382337329E0,9.683106065E-1,2.237063379E0
6.428060667E0,-1.145814751E0,9.026861358E-1,1.015573651E0,1.777392344E0
6.438059667E0,-8.011743059E-1,4.238266557E-1,1.056726354E0,1.392185293E0
6.448059667E0,-3.055180046E-1,1.165314996E-1,1.119006218E0,1.165802623E0
6.458058667E0,2.337890042E-1,-1.463715953E-1,1.085373033E0,1.119873459E0
6.468057667E0,7.189599688E-1,-4.318911356E-1,9.935892892E-1,1.300251155E0
6.478057667E0,1.190041263E0,-7.393681401E-1,8.508681107E-1,1.639158320E0
6.488056667E0,1.612308613E0,-9.782543814E-1,7.072961622E-1,2.014147105E0
6.498055667E0,1.955670272E0,-1.114603264E0,5.139023916E-1,2.308913666E0
6.508054667E0,2.285840613E0,-1.059559915E0,3.361009524E-1,2.541790387E0
6.518053667E0,2.635826583E0,-7.397330064E-1,-7.251716852E-3,2.737670412E0
6.528053667E0,3.027802578E0,-3.389554900E-1,-2.913433671E-1,3.060614355E0
6.538052667E0,3.270709072E0,-1.496700096E-1,-5.456726897E-1,3.319291737E0
6.548051667E0,3.261928309E0,-1.496232319E-1,-7.875123596E-1,3.358978880E0
6.558051667E0,3.253915869E0,-3.025992572E-1,-1.077214998E0,3.440919491E0
6.568050667E0,3.284216725E0,-6.109492511E-1,-1.345079455E0,3.601191084E0
6.578049667E0,3.297721455E0,-9.502310157E-1,-1.483500738E0,3.738807325E0
6.588048667E0,3.530666340E0,-1.382360718E0,-1.576287864E0,4.106240298E0
6.598048667E0,3.882479565E0,-1.955808851E0,-1.603691279E0,4.633644521E0
6.608047667E0,4.335636439E0,-2.641558608E0,-1.654508260E0,5.339754002E0
6.618046667E0,4.836386140E0,-3.274158930E0,-1.590978262E0,6.053260231E0
6.628045667E0,5.426695012E0,-3.689845676E0,-1.418510690E0,6.713877602E0
6.638045667E0,6.218987471E0,-3.538705677E0,-1.166766421E0,7.249799095E0
6.648044667E0,6.870408225E0,-2.629449610E0,-8.883407231E-1,7.409835603E0
6.658043667E0,6.959083589E0,-1.685170475E0,-7.834457673E-1,7.202946009E0
6.668042667E0,6.629342726E0,-1.278743379E0,-9.734795451E-1,6.821365848E0
6.678042667E0,6.509726236E0,-1.151192216E0,-1.134401498E0,6.707357598E0
6.688041667E0,6.645741243E0,-8.680396289E-1,-1.303698418E0,6.827810705E0
6.698040667E0,6.789826577E0,-3.159326631E-1,-1.604388852E0,6.983954609E0
6.708039667E0,6.898160280E0,1.748668313E-1,-1.930735552E0,7.165398344E0
6.718039667E0,6.995193654E0,3.262851584E-1,-2.056737056E0,7.298586410E0
6.728038667E0,7.223903986E0,1.679729640E-1,-2.020057618E0,7.502908536E0
6.738037667E0,7.228291737E0,-8.506529331E-2,-1.611841274E0,7.406312836E0
6.748036667E0,7.137963365E0,-2.483458668E-1,-8.838885069E-1,7.196767021E0
6.758036667E0,7.006315643E0,-4.975840187E-1,-2.952503304E-1,7.030165112E0
6.768035667E0,6.541039245E0,-8.951981914E-1,2.778384916E-1,6.607856569E0
6.778034667E0,5.451106553E0,-1.442368938E0,9.461402305E-1,5.717531997E0
6.788033667E0,4.261951289E0,-2.304391197E0,1.572326668E0,5.093786286E0
6.798033667E0,3.396749022E0,-3.317866867E0,1.406118540E0,4.952101959E0
6.808032667E0,2.523498647E0,-4.585005861E0,7.403446251E-1,5.285682012E0
6.818031667E0,1.840042167E0,-5.755209714E0,3.081389093E-1,6.050053191E0
6.828031667E0,1.292140519E0,-6.982852521E0,2.684322220E-1,7.106469750E0
6.838030667E0,7.868880232E-1,-8.318917909E0,4.287465030E-1,8.367043175E0
6.848029667E0,2.914225238E-1,-9.753609452E0,6.133793539E-1,9.777221418E0
6.858028667E0,-4.149675393E-1,-1.135440636E1,4.173245154E-1,1.136964826E1
6.868028667E0,-1.679785481E0,-1.318153378E1,-6.125233215E-1,1.330224406E1
6.878027667E0,-3.271998968E0,-1.404583996E1,-2.119382370E0,1.457680964E1
6.888026667E0,-4.730462952E0,-1.291988842E1,-3.053833505E0,1.409349835E1
6.898025667E0,-6.042476403E0,-1.071653360E1,-3.273155547E0,1.273063866E1
6.908025667E0,-6.813099664E0,-8.208034819E0,-4.381199990E0,1.153191554E1
6.918024667E0,-7.537104245E0,-5.610832019E0,-7.350750559E0,1.192991660E1
6.928023667E0,-8.317133338E0,-3.407016440E0,-9.862035542E0,1.334324597E1
6.938022667E0,-8.431465116E0,-1.875558740E0,-6.609800747E0,1.087643280E1
6.948022667E0,-8.267302197E0,-5.808074391E-1,-3.021179729E0,8.821176217E0
6.958021667E0,-8.299020419E0,5.461457294E-1,-1.344383052E0,8.424926163E0
6.968020667E0,-8.350738456E0,1.665256028E0,-2.662352769E-1,8.519318730E0
6.978019667E0,-8.460135183E0,2.783703836E0,4.444351673E-1,8.917422104E0
6.988019667E0,-8.593327155E0,3.712297230E0,9.535218287E-1,9.409337181E0
6.998018667E0,-8.567551458E0,4.309211410E0,1.248016260E0,9.671079855E0
7.008017667E0,-8.318974627E0,4.680653445E0,1.339335735E0,9.638862782E0
7.018016667E0,-8.103691256E0,4.898626535E0,1.483234543E0,9.584692933E0
7.028016667E0,-8.058448425E0,5.061608316E0,1.795665894E0,9.684156430E0
7.038015667E0,-8.066380173E0,5.173779547E0,2.269659321E0,9.848138775E0
7.048014667E0,-8.109168928E0,5.236093324E0,2.346282404E0,9.933797618E0
7.058013667E0,-8.143091549E0,5.145209466E0,1.663311828E0,9.774954049E0
7.068013667E0,-8.029649718E0,4.752729734E0,7.121435040E-1,9.357930481E0
7.078012667E0,-8.087913129E0,4.034233814E0,2.973793747E-1,9.043108744E0
7.088012500E0,-7.961502174E0,3.369999472E0,-9.698608495E-2,8.645913463E0
7.098011500E0,-7.647033654E0,2.977364203E0,-7.019243983E-1,8.236171390E0
7.108011500E0,-7.254464459E0,2.633138618E0,-1.143323033E0,7.801785765E0
7.118010500E0,-6.820168948E0,2.307131202E0,-1.408810598E0,7.336368732E0
7.128009500E0,-6.249601153E0,1.965126389E0,-1.657001513E0,6.757580211E0
7.138008500E0,-5.640282691E0,1.214176084E0,-1.790871761E0,6.041045775E0
7.148008500E0,-4.821139233E0,1.496933985E-1,-2.093136558E0,5.258042627E0
7.158007500E0,-3.582130609E0,-9.800939155E-1,-1.649750966E0,4.063732524E0
7.168006500E0,-2.248053274E0,-2.859020067E0,-2.732807332E-1,3.647248501E0
7.178005500E0,-1.159067539E0,-5.160882343E0,1.156591535E0,5.414411150E0
7.188005500E0,8.755772746E-1,-7.577941784E0,2.463623743E0,8.016313317E0
7.198004500E0,3.457387572E0,-9.233106102E0,2.478659273E0,1.016599867E1
7.208003500E0,6.645875144E0,-1.026251368E1,1.778142373E0,1.235510558E1
7.218002500E0,1.057218105E1,-1.086819401E1,1.171221269E0,1.520724868E1
7.228002500E0,1.131263970E1,-1.163128839E1,1.910521581E0,1.633746551E1
7.238001500E0,8.955675015E0,-1.331203896E1,1.765949467E0,1.614103695E1
7.248000500E0,6.707771430E0,-1.519154808E1,1.057003951E0,1.664014987E1
7.258000500E0,6.033157110E0,-1.707575953E1,1.122608687E0,1.814499375E1
7.267999500E0,6.530076301E0,-1.686650990E1,1.313612664E0,1.813412890E1
7.277998500E0,7.991322389E0,-1.297796414E1,3.230933973E0,1.557972147E1
7.287997500E0,8.253255431E0,-7.304910142E0,5.177343425E0,1.217714344E1
7.297996500E0,7.660861734E0,-1.800128489E0,3.094629529E0,8.456121865E0
7.307996500E0,6.842896491E0,2.290327474E0,-8.258557686E-1,7.263117104E0
7.317995500E0,5.336234493E0,4.618043799E0,-4.284543176E0,8.255848674E0
7.327994500E0,3.749883425E0,5.870978152E0,-6.985158078E0,9.865213811E0
7.337994500E0,2.446428251E0,6.966682631E0,-7.522723603E0,1.054092256E1
7.347993500E0,1.419652066E0,7.748794502E0,-6.924015498E0,1.048814659E1
7.357992500E0,5.727222747E-1,8.148666869E0,-6.769289401E0,1.060905564E1
7.367991500E0,2.388164402E-1,7.885528132E0,-6.603636028E0,1.028817749E1
7.377991500E0,3.836301545E-1,6.483009723E0,-6.655533575E0,9.299070616E0
7.387990500E0,1.482057937E-1,4.755382031E0,-6.512151661E0,8.064970085E0
7.397989500E0,-5.764371936E-1,2.948228112E0,-6.207740936E0,6.896403148E0
7.407988500E0,-1.604642036E0,1.024525738E0,-6.103731834E0,6.393752525E0
7.417988500E0,-2.681144551E0,-1.201240289E0,-6.996015188E0,7.587868136E0
7.427987500E0,-3.207222636E0,-2.979165146E0,-6.525485067E0,7.857713240E0
7.437986500E0,-3.438475045E0,-4.050168647E0,-4.855330827E0,7.197306033E0
7.447985500E0,-3.355203093E0,-4.021958755E0,-2.805295849E0,5.941651691E0
7.457985500E0,-3.217681258E0,-3.327168617E0,-1.355040772E0,4.822826887E0
7.467984500E0,-2.983414317E0,-2.199579272E0,7.188910447E-2,3.707300636E0
7.477983500E0,-2.669109811E0,-1.308688139E0,1.835952625E0,3.493928143E0
7.487982500E0,-2.546105152E0,-4.307608688E-1,3.820911600E0,4.611677767E0
7.497982500E0,-2.602791569E0,6.005008614E-1,5.458116195E0,6.076689694E0
7.507981500E0,-2.663056481E0,1.248746578E0,7.085440750E0,7.671682245E0
7.517980500E0,-2.950639797E0,1.468484942E0,7.300038242E0,8.009574369E0
7.527979500E0,-3.184750032E0,1.661361782E0,6.611943752E0,7.524663176E0
7.537979500E0,-3.173116704E0,1.956737389E0,5.676371706E0,6.791074036E0
7.547978500E0,-2.879830307E0,2.414012457E0,4.663981279E0,5.989457414E0
7.557977500E0,-2.597331439E0,2.835876203E0,3.711741160E0,5.344655918E0
7.567976500E0,-2.092194571E0,3.171307576E0,2.550498165E0,4.575971018E0
7.577976500E0,-1.541324292E0,3.459771774E0,1.596948270E0,4.110467744E0
7.587975500E0,-1.197819960E0,3.642606021E0,1.024590057E0,3.969022054E0
7.597974500E0,-1.353548855E0,3.316795657E0,8.972751224E-1,3.693011045E0
7.607973500E0,-1.846419287E0,2.525996577E0,1.069200220E0,3.306525669E0
7.617973500E0,-2.030241714E0,1.598430539E0,1.060162763E0,2.792992425E0
7.627972500E0,-1.934048730E0,6.305280679E-1,8.223296052E-1,2.194159547E0
7.637971500E0,-1.596394831E0,-2.715499574E-1,5.818008445E-1,1.720670816E0
7.647970500E0,-1.260251998E0,-1.012424925E0,3.473263639E-1,1.653443355E0
7.657970500E0,-9.743776774E-1,-1.555041860E0,7.150735438E-2,1.836485869E0
7.667969500E0,-7.168179144E-1,-1.891974213E0,-2.910545146E-1,2.044041848E0
7.677968500E0,-3.470712791E-1,-1.963349420E0,-1.417216555E0,2.446160703E0
7.687967500E0,2.894561782E-1,-1.425711390E0,-2.782198178E0,3.139596240E0
7.697967500E0,1.187970253E0,-3.614742869E-1,-3.284282799E0,3.511189326E0
7.707966500E0,1.810611084E0,1.589255673E-1,-2.809869542E0,3.346481238E0
7.717965500E0,1.999281292E0,2.399188596E-1,-2.247401456E0,3.017532112E0
7.727964500E0,1.991228798E0,1.830628735E-1,-1.882753154E0,2.746500243E0
7.737964500E0,2.013341360E0,1.168490034E-1,-1.620243723E0,2.586964794E0
7.747963500E0,2.075414524E0,7.579043984E-2,-1.360388635E0,2.482689445E0
7.757962500E0,2.235777630E0,8.226447701E-3,-1.108684128E0,2.495586059E0
7.767961500E0,2.492675342E0,-6.627058804E-2,-8.470077789E-1,2.633485205E0
7.777961500E0,2.742879746E0,-2.946815425E-1,-5.056145847E-1,2.804616305E0
7.787960500E0,2.895926523E0,-7.148425788E-1,-2.096804224E-1,2.990210062E0
7.797959500E0,3.130204866E0,-1.291427743E0,-1.033017357E-1,3.387718903E0
7.807958500E0,3.576724565E0,-1.905629801E0,-2.667558253E-2,4.052788563E0
7.817958500E0,4.280924627E0,-2.606882281E0,-5.152507961E-2,5.012465034E0
7.827957500E0,4.882094117E0,-3.351074958E0,-2.223989935E-1,5.925707355E0
7.837956500E0,5.509851190E0,-3.992284135E0,-3.663286453E-1,6.814028869E0
7.847955500E0,6.096988825E0,-4.570452726E0,-4.583837003E-1,7.633637826E0
7.857955500E0,6.839255430E0,-5.127597068E0,-7.503592975E-1,8.580833619E0
7.867954500E0,8.070400718E0,-5.265708886E0,-9.181088980E-1,9.679978398E0
7.877953500E0,9.735045712E0,-4.511684700E0,-1.174703286E0,1.079381034E1
7.887952500E0,1.039822288E1,-3.612512156E0,-1.458029389E0,1.110401427E1
7.897952500E0,1.024156311E1,-2.384813216E0,-1.287281483E0,1.059405695E1
7.907951500E0,8.894951681E0,-1.604535032E0,-1.067367117E0,9.101316973E0
7.917950500E0,6.622315543E0,-9.570225567E-1,-9.566490658E-1,6.759151778E0
7.927949500E0,5.201554406E0,1.284352612E-1,-1.138717766E0,5.326287826E0
7.937949500E0,4.187316259E0,1.048803962E0,-8.596652466E-1,4.401435168E0
7.947948500E0,3.359673289E0,1.797057531E0,-1.026491718E0,3.945948001E0
7.957947500E0,2.775345534E0,2.073367707E0,-1.333639670E0,3.712141060E0
7.967947500E0,2.243190876E0,1.392856470E0,-1.487516459E0,3.030620344E0
7.977946500E0,1.681802917E0,-2.512495941E-1,-1.390953786E0,2.196893225E0
7.987945500E0,8.128404513E-1,-2.438032819E0,-5.688810195E-1,2.632173862E0
7.997944500E0,-2.853666722E-1,-4.906701540E0,8.063618825E-1,4.980700114E0
8.007944500E0,-8.548193666E-1,-7.232998745E0,2.357724820E0,7.655445992E0
8.017943500E0,-1.125745134E0,-9.367016696E0,3.606390122E0,1.010021552E1
8.027942500E0,-1.544311342E0,-1.144208887E1,4.358442042E0,1.234108229E1
8.037941500E0,-1.811542107E0,-1.299844927E1,4.145301676E0,1.376317167E1
8.047941500E0,-1.826262034E0,-1.329455929E1,3.005217415E0,1.375179521E1
8.057940500E0,-2.315212785E0,-1.261023625E1,2.208119715E0,1.300976792E1
8.067939500E0,-2.708470051E0,-1.041204219E1,1.539182457E0,1.086809621E1
8.077938500E0,-2.563345667E0,-7.712130706E0,3.367300397E-1,8.133946653E0
8.087938167E0,-2.842518055E0,-5.488503006E0,-1.407737634E0,6.339187596E0
8.097937167E0,-3.804561323E0,-3.300990633E0,-4.215601580E0,6.568296789E0
8.107936167E0,-5.198251314E0,-1.046233526E0,-6.522273776E0,8.405740688E0
8.117935167E0,-6.256153543E0,1.032024207E0,-9.407362484E0,1.134473446E1
8.127935167E0,-7.009571373E0,3.172219741E0,-1.252361092E1,1.469822777E1
8.137934167E0,-7.535105667E0,4.058674591E0,-1.139927321E1,1.425461633E1
8.147933167E0,-8.037542290E0,4.001614537E0,-7.633363448E0,1.178487346E1
8.157932167E0,-8.361912485E0,3.647567384E0,-4.009402151E0,9.965020514E0
8.167932167E0,-8.623264314E0,3.233307942E0,-2.293108702E0,9.490696244E0
8.177931167E0,-8.775275549E0,2.493941556E0,-1.726042658E0,9.284634010E0
8.187930167E0,-8.519655161E0,2.117586690E0,-1.424751423E0,8.893740162E0
8.197929167E0,-7.850436067E0,2.410134584E0,-4.791074020E-1,8.226034224E0
8.207929167E0,-7.151230697E0,3.094077551E0,1.156698539E0,7.877269063E0
8.217928167E0,-6.612012164E0,3.871082464E0,1.685229532E0,7.844997315E0
8.227927167E0,-6.248668522E0,4.266801555E0,7.093789405E-1,7.599649485E0
8.237926167E0,-6.315331458E0,4.434150621E0,2.351465084E-1,7.720129341E0
8.247926167E0,-6.663647756E0,4.313313816E0,3.720476608E-1,7.946527352E0
8.257925167E0,-7.273319390E0,3.571523759E0,4.625385855E-1,8.116088889E0
8.267924167E0,-7.691028689E0,2.746834803E0,4.223449713E-1,8.177738013E0
8.277923167E0,-7.581431403E0,2.010444649E0,2.194721697E-1,7.846537952E0
8.287923167E0,-7.122375273E0,1.403410694E0,-8.559271216E-2,7.259829007E0
8.297922167E0,-6.719830728E0,4.857024765E-1,-1.250196687E0,6.852373578E0
8.307921167E0,-6.483446510E0,-1.133126074E0,-4.423525353E0,7.930109072E0
8.317920167E0,-5.700562806E0,-3.546729811E0,-1.002445248E1,1.206504688E1
8.327920167E0,-3.764805812E0,-4.214815130E0,-6.510001640E0,8.620820769E0
8.337919167E0,-2.876689768E0,-4.462730641E0,-1.581365586E0,5.540038440E0
8.347918167E0,-1.697942548E0,-5.794132290E0,-8.669087774E-1,6.099713823E0
8.357917167E0,-1.790850127E-1,-7.068686138E0,3.668705361E-1,7.080465321E0
8.367917167E0,1.531248370E0,-8.201922140E0,6.521395232E-1,8.369082048E0
8.377916167E0,3.710336659E0,-8.440120749E0,1.079491027E0,9.282647104E0
8.387915167E0,8.384130735E0,-6.525257610E0,1.911084668E0,1.079466904E1
8.397914167E0,1.323209699E1,-4.404162006E0,3.445278865E-1,1.395004420E1
8.407914167E0,1.304059600E1,-4.197240154E0,-8.223681968E-1,1.372407587E1
8.417913167E0,1.080153107E1,-5.292622451E0,-1.373709031E-1,1.202928911E1
8.427912167E0,9.234990660E0,-6.839206313E0,3.308980268E-1,1.149649029E1
8.437911167E0,8.011468971E0,-8.541621396E0,1.346771055E0,1.178799064E1
8.447911167E0,8.393439503E0,-8.802089126E0,6.601108861E0,1.383839723E1
8.457910167E0,1.004135093E1,-7.951733816E0,1.314623531E1,1.835435376E1
8.467909167E0,1.086707485E1,-8.145752617E0,1.168218256E1,1.791423989E1
8.477908167E0,1.054462079E1,-7.462842268E0,3.602858403E0,1.341132473E1
8.487908167E0,1.015708020E1,-2.796827912E0,-2.367895467E0,1.079793746E1
8.497907167E0,9.584227309E0,2.801029136E0,-5.116863334E0,1.121986933E1
8.507906167E0,7.396274056E0,5.955667470E0,-6.092525060E0,1.128245126E1
8.517905167E0,4.940919446E0,7.116352056E0,-7.021010281E0,1.115122132E1
8.527905167E0,3.149636333E0,7.116639739E0,-8.207450098E0,1.131057060E1
8.537904167E0,1.764189747E0,6.830908529E0,-8.064730673E0,1.071510885E1
8.547903167E0,7.976682423E-1,6.039411292E0,-7.493162420E0,9.657030932E0
8.557902167E0,2.985095684E-1,4.365656337E0,-6.896822437E0,8.167877505E0
8.567902167E0,-2.246116165E-1,2.241485682E0,-6.149165284E0,6.548812269E0
8.577901167E0,-5.663409890E-1,1.356004393E-1,-4.545824254E0,4.582973679E0
8.587900167E0,-1.716645744E0,-2.328254853E0,-4.001846672E0,4.937855816E0
8.597899167E0,-3.463969490E0,-5.586651444E0,-5.595561431E0,8.632500606E0
8.607899167E0,-4.914576570E0,-7.648353370E0,-6.573656768E0,1.121888299E1
8.617898167E0,-5.237876140E0,-7.491043974E0,-6.683784982E0,1.132360667E1
8.627897167E0,-4.833280684E0,-6.312385046E0,-6.608086928E0,1.033796982E1
8.637896167E0,-4.262909648E0,-4.003488570E0,-5.891030009E0,8.300876698E0
8.647896167E0,-3.672401386E0,-1.698663509E0,-4.765528704E0,6.251580079E0
8.657895167E0,-2.986160170E0,-3.140843582E-1,-3.469293380E0,4.588223850E0
8.667894167E0,-2.457570705E0,5.156092304E-1,-2.368253317E0,3.451685157E0
8.677893167E0,-2.092183023E0,1.055849857E0,-1.496470447E0,2.780552557E0
8.687893167E0,-1.877227974E0,1.375320670E0,-4.778186756E-1,2.375668853E0
8.697892167E0,-1.614738862E0,1.636597654E0,7.037930223E-1,2.404403895E0
8.707891167E0,-1.382085606E0,1.825895998E0,3.052583370E0,3.816061065E0
8.717890167E0,-1.603918589E0,2.265851029E0,7.137832972E0,7.658674511E0
8.727890167E0,-2.006063769E0,2.643629107E0,8.056011890E0,8.712771906E0
8.737889167E0,-2.014024023E0,3.026442808E0,6.931593490E0,7.827045237E0
8.747888167E0,-1.986235276E0,3.334554235E0,5.301009697E0,6.570014180E0
8.757887167E0,-2.246759578E0,3.356113504E0,4.433337858E0,5.997158578E0
8.767887167E0,-2.649608178E0,3.418248941E0,4.331947138E0,6.121324638E0
8.777886167E0,-3.505532084E0,2.918386847E0,4.790635478E0,6.614826171E0
8.787885167E0,-4.107178999E0,2.199100969E0,5.185444157E0,6.970925011E0
8.797884167E0,-4.324517958E0,1.571716365E0,5.307570273E0,7.024389661E0
8.807883167E0,-4.192632548E0,9.709172952E-1,5.513885769E0,6.994553906E0
8.817883167E0,-3.695162842E0,5.126271504E-1,4.607104243E0,5.928104632E0
8.827882167E0,-2.673870907E0,3.072928172E-1,3.146570345E0,4.140642394E0
8.837881167E0,-1.785600350E0,1.357752711E-1,1.762819744E0,2.512834453E0
8.847880167E0,-1.180299144E0,-1.611071634E-1,8.876804262E-1,1.485610355E0
8.857880167E0,-6.329515196E-1,-3.722822803E-1,2.135700999E-1,7.647443429E-1
8.867879167E0,-1.158073402E-1,-5.045936608E-1,-2.556420590E-1,5.773897860E-1
8.877878167E0,3.075684404E-1,-6.358180439E-1,-4.816901537E-1,8.549200750E-1
8.887877167E0,6.132285688E-1,-7.476173919E-1,-6.526410681E-1,1.166585362E0
8.897877167E0,7.504688597E-1,-9.598800910E-1,-8.154621235E-1,1.466134978E0
8.907876167E0,7.213519916E-1,-1.346417298E0,-8.571065781E-1,1.751519319E0
8.917875167E0,7.902973153E-1,-1.855418006E0,-8.282949346E-1,2.180187680E0
8.927874167E0,9.087893133E-1,-2.404996051E0,-8.987866277E-1,2.723549416E0
8.937874167E0,1.127640216E0,-2.909692038E0,-9.606126009E-1,3.265066122E0
8.947873167E0,1.490105022E0,-3.346430515E0,-1.051486518E0,3.811119792E0
8.957872167E0,2.016755695E0,-3.776772723E0,-1.201542590E0,4.446911325E0
8.967871167E0,2.694164253E0,-4.123313806E0,-1.300887954E0,5.094364262E0
8.977871167E0,3.425756766E0,-4.438899145E0,-1.363472457E0,5.770501900E0
8.987870167E0,4.210252255E0,-4.723093706E0,-1.351153543E0,6.469888260E0
8.997869167E0,4.919322755E0,-4.937380126E0,-1.261059060E0,7.082918101E0
9.007868167E0,5.910792428E0,-4.832635444E0,-1.379831797E0,7.758593188E0
9.017868167E0,7.091606639E0,-4.281263473E0,-1.616967382E0,8.440064287E0
9.027867167E0,8.014573258E0,-3.760454314E0,-1.407438841E0,8.964110956E0
9.037866167E0,8.723629432E0,-3.819039906E0,-6.393569250E-1,9.544399067E0
9.047865167E0,1.036772731E1,-3.753816555E0,-3.213449921E-1,1.103105484E1
9.057865167E0,1.143373436E1,-2.871045451E0,-1.379361242E0,1.186911205E1
9.067864167E0,1.157339043E1,-2.464187415E0,-6.447922044E-1,1.185037310E1
9.077863167E0,1.170835002E1,-1.805651184E0,2.290472777E-1,1.184897882E1
9.087862542E0,1.175361565E1,-7.221393192E-1,-7.055425823E-2,1.177599015E1
9.097862542E0,1.141605589E1,4.489538956E-1,-5.090527475E-1,1.143621556E1
9.107861542E0,1.038880769E1,1.386324545E0,-9.400925285E-1,1.052297462E1
9.117860542E0,8.950693188E0,2.110778192E0,-1.464062839E0,9.312023041E0
9.127859542E0,7.439057549E0,2.702130500E0,-1.460087755E0,8.048163934E0
9.137859542E0,5.486838303E0,3.145354709E0,-4.412240227E-1,6.339820932E0
9.147858542E0,3.328597092E0,3.035065697E0,1.435163999E-1,4.506859144E0
9.157857542E0,2.043170346E0,1.764434161E0,-1.232383729E0,2.967581949E0
9.167856542E0,1.942684483E0,-1.175547624E-1,-2.887239899E0,3.481952952E0
9.177856542E0,2.354717013E0,-1.776685247E0,-3.566825814E0,4.628557990E0
9.187855542E0,2.200526959E0,-3.654631405E0,-3.421877723E0,5.468811275E0
9.197854542E0,1.924549636E0,-5.971901679E0,-2.408697923E0,6.720812946E0
9.207853542E0,1.555069634E0,-8.625413166E0,-8.295264313E-1,8.803641743E0
9.217853542E0,9.705430003E-1,-1.177339444E1,7.543264141E-1,1.183738902E1
9.227852542E0,-5.542422228E-2,-1.524460688E1,1.791860526E0,1.534965390E1
9.237851542E0,-1.517325126E0,-1.842912098E1,2.085193700E0,1.860867562E1
9.247850542E0,-3.387665665E0,-2.020676809E1,5.493232526E-1,2.049613406E1
9.257850542E0,-4.931726453E0,-1.828443747E1,-2.118438630E0,1.905597968E1
9.267849542E0,-5.196408856E0,-1.340721876E1,-3.532308238E0,1.480653172E1
9.277848542E0,-5.211042098E0,-8.893485199E0,-4.512127334E0,1.125203679E1
9.287847542E0,-5.707546136E0,-5.377979520E0,-6.421608696E0,1.013586725E1
9.297847542E0,-7.148333402E0,-2.192931572E0,-1.222154142E1,1.432737569E1
9.307846542E0,-9.012714604E0,2.199149501E-1,-1.678259417E1,1.905079668E1
9.317845542E0,-8.219929810E0,1.155426770E0,-8.236193841E0,1.169346596E1
9.327844542E0,-7.837451155E0,1.888315610E0,-3.285846052E0,8.705639593E0
9.337844542E0,-8.347966876E0,2.526431025E0,-1.592044356E0,8.866003041E0
9.347843542E0,-8.854731023E0,2.953745545E0,-7.874060865E-1,9.367544106E0
9.357842542E0,-9.133056734E0,3.196372250E0,-1.213105752E-1,9.676995253E0
9.367841542E0,-9.217246699E0,3.732495852E0,2.862777780E-1,9.948422838E0
9.377841542E0,-9.134472345E0,4.324704192E0,8.516193317E-1,1.014233242E1
9.387840542E0,-9.167692716E0,4.517640674E0,1.599372964E0,1.034474074E1
9.397839542E0,-9.021263233E0,4.565051653E0,2.757149876E0,1.047973103E1
9.407838542E0,-8.715934496E0,4.628625505E0,3.295324681E0,1.040436701E1
9.417837542E0,-8.355102233E0,4.841174718E0,2.657927012E0,1.001545216E1
9.427837542E0,-8.041707847E0,5.044399375E0,1.911813816E0,9.683494318E0
9.437836542E0,-7.845070662E0,5.128016898E0,1.097962673E0,9.436483086E0
9.447835542E0,-7.696768901E0,5.020948532E0,3.019225882E-1,9.194636095E0
9.457834542E0,-7.347003078E0,4.591803249E0,-6.171125087E-1,8.685847061E0
9.467834542E0,-6.775261163E0,4.223459069E0,-1.502666887E0,8.124024748E0
9.477833542E0,-6.351518122E0,4.157409505E0,-2.078360936E0,7.870541305E0
9.487832542E0,-6.157495812E0,3.705862954E0,-3.322148783E0,7.917376298E0
9.497831542E0,-5.869493544E0,2.244868881E0,-5.485812702E0,8.341734337E0
9.507831542E0,-5.106500314E0,6.025029480E-1,-4.768641177E0,7.012795016E0
9.517830542E0,-4.173906839E0,-2.615330923E-1,-3.702213999E0,5.585363584E0
9.527829542E0,-3.292740211E0,-1.204901231E0,-3.376101041E0,4.867441147E0
9.537828542E0,-2.630006849E0,-3.561223304E0,-2.718923996E0,5.195362850E0
9.547828542E0,-2.064504497E0,-6.874350418E0,-2.558153924E0,7.619909710E0
9.557827542E0,-1.409445021E-1,-1.066356251E1,-1.920731989E0,1.083608057E1
9.567826542E0,2.978741223E0,-1.387291792E1,-1.602383403E0,1.427929912E1
9.577825542E0,8.036919562E0,-1.434869065E1,4.535210826E-1,1.645243693E1
9.587825542E0,1.694044677E1,-1.184889135E1,2.546547201E0,2.082930305E1
9.597824542E0,1.919621954E1,-1.086865477E1,2.122616465E0,2.216140793E1
9.607823542E0,1.556014135E1,-1.244089270E1,2.040809825E0,2.002645038E1
9.617822542E0,1.196357396E1,-1.469078668E1,2.786912203E0,1.914975705E1
9.627822542E0,1.049351495E1,-1.605550927E1,5.523788613E0,1.996009706E1
9.637821542E0,1.007133312E1,-1.553996728E1,9.366314446E0,2.075211267E1
9.647820542E0,9.395597302E0,-1.234744484E1,1.135736037E1,1.922826766E1
9.657819542E0,8.719463291E0,-6.961840551E0,6.659755265E0,1.299417578E1
9.667819542E0,7.438851727E0,-2.292272843E0,3.447416022E-1,7.791654290E0
9.677818542E0,5.107134737E0,6.226898754E-1,-3.659298945E0,6.313559746E0
9.687817542E0,2.901564116E0,2.464968603E0,-6.696030221E0,7.702724534E0
9.697816542E0,1.788011888E0,3.205656459E0,-1.039873743E1,1.102755458E1
9.707816542E0,-9.088281242E-1,4.036853952E0,-1.177172916E1,1.247781094E1
9.717815542E0,-1.361146873E0,5.481800927E0,-1.172868780E1,1.301787155E1
9.727814542E0,2.893865233E-1,6.999493112E0,-1.109285689E1,1.311976076E1
9.737813542E0,1.012087833E0,7.555494908E0,-1.071474903E1,1.314974038E1
9.747813542E0,7.003471119E-1,7.018635142E0,-1.064142963E1,1.276682223E1
9.757812542E0,7.091646126E-2,5.628615156E0,-1.015373208E1,1.160967755E1
9.767811542E0,-1.217685291E0,3.303423659E0,-1.023274784E1,1.082148298E1
9.777810542E0,-2.761422436E0,9.627978516E-1,-1.133352712E1,1.170475419E1
9.787810542E0,-3.126892710E0,-4.662370956E-1,-8.291331330E0,8.873613147E0
9.797809542E0,-3.049793079E0,-8.313910353E-1,-5.379537803E0,6.239541317E0
9.807808542E0,-2.770532983E0,-6.626766443E-1,-3.685391852E0,4.658015291E0
9.817807542E0,-2.484578702E0,-8.913963318E-1,-2.197202086E0,3.434445480E0
9.827806542E0,-2.831714154E0,-2.244359588E0,-6.940849632E-1,3.679335395E0
9.837806542E0,-4.100981535E0,-3.673464702E0,8.279060948E-1,5.567568677E0
9.847805542E0,-4.533508263E0,-3.861431635E0,2.721468412E0,6.547498894E0
9.857804542E0,-4.690410109E0,-3.514344422E0,5.255500233E0,7.872156401E0
9.867803542E0,-4.750214261E0,-2.960058784E0,6.198902285E0,8.351818549E0
9.877803542E0,-4.717530665E0,-2.277327944E0,5.788093286E0,7.806621678E0
9.887802542E0,-4.648541999E0,-1.635959723E0,5.646575464E0,7.494606154E0
9.897801542E0,-4.849125177E0,-1.032560982E0,5.683605881E0,7.542119925E0
9.907800542E0,-5.258115107E0,3.752743006E-3,6.466599512E0,8.334548447E0
9.917800542E0,-4.909217012E0,1.264946288E0,5.745435508E0,7.662279685E0
9.927799542E0,-4.081516154E0,2.404327714E0,4.634919448E0,6.627370833E0
9.937798542E0,-3.669246813E0,3.062022530E0,3.737611581E0,6.067049899E0
9.947797542E0,-3.329684382E0,3.587122961E0,3.941551938E0,6.284113374E0
9.957797542E0,-3.023836996E0,3.863014476E0,3.705724375E0,6.148078087E0
9.967796542E0,-2.381686710E0,3.947021424E0,2.519855247E0,5.253673017E0
9.977795542E0,-1.943759201E0,3.521148242E0,1.589278477E0,4.324637656E0
9.987794542E0,-1.597723318E0,2.848958763E0,9.786853212E-1,3.409854952E0
9.997793542E0,-1.274481928E0,2.055654151E0,6.944638628E-1,2.516405816E0
1.000779354E1,-9.040307030E-1,1.275898708E0,5.581950502E-1,1.660352595E0
1.001779254E1,-4.715481216E-1,4.857591945E-1,4.133572892E-1,7.932111160E-1
1.002779154E1,-3.669580981E-2,-2.793875653E-1,2.193676507E-1,3.571080513E-1
1.003779054E1,3.923325290E-1,-9.745098245E-1,2.006939828E-2,1.050712612E0
1.004779054E1,6.967872539E-1,-1.611877381E0,-1.511066705E-1,1.762525005E0
1.005778954E1,8.842864099E-1,-2.240713849E0,-1.734962440E-1,2.415131871E0
1.006778854E1,1.081819827E0,-2.892826329E0,-2.453655410E-1,3.098222483E0
1.007778754E1,1.256982381E0,-3.574561388E0,-7.524384212E-1,3.863114987E0
1.008778692E1,1.513664184E0,-4.106157491E0,-1.222477961E0,4.543804680E0
1.009778592E1,2.053787135E0,-4.039896843E0,-1.554834868E0,4.791275359E0
1.010778492E1,2.705472184E0,-3.769465458E0,-1.907847649E0,5.016804982E0
1.011778392E1,3.262816501E0,-3.664995010E0,-2.297690873E0,5.418260171E0
1.012778392E1,3.763918204E0,-3.785775681E0,-2.607487468E0,5.941226191E0
1.013778292E1,4.221582405E0,-4.190809386E0,-2.788512586E0,6.569660855E0
1.014778192E1,4.637165363E0,-4.657908946E0,-2.909845819E0,7.187949711E0
1.015778092E1,5.495175848E0,-5.088427740E0,-2.838335541E0,8.009070053E0
1.016777992E1,7.147838727E0,-5.015766730E0,-2.317976910E0,9.034518876E0
1.017777992E1,9.443880100E0,-3.662029887E0,-1.409194321E0,1.022659097E1
1.018777892E1,1.129604764E1,-1.639486763E0,-1.091571813E0,1.146647889E1
1.019777792E1,1.257289944E1,2.248616946E-1,-1.227287296E0,1.263465857E1
1.020777692E1,1.293280960E1,1.219446180E0,-8.366231239E-1,1.301708690E1
1.021777692E1,1.219976873E1,4.924519175E-1,-3.363857849E-1,1.221433672E1
1.022777592E1,1.025414865E1,-1.089133962E0,5.728894320E-1,1.032772868E1
1.023777492E1,8.566586668E0,-1.499490387E0,9.022071026E-1,8.743503658E0
1.024777392E1,7.410113831E0,-1.479740832E0,5.860428898E-1,7.579107216E0
1.025777392E1,6.663788674E0,-1.194407818E0,3.862413383E-1,6.780993430E0
1.026777292E1,6.336253381E0,-7.609958214E-1,1.654795651E-1,6.383933351E0
1.027777192E1,6.205103842E0,-2.201014763E-1,-2.368269981E-1,6.213521174E0
1.028777092E1,5.966028736E0,4.262684530E-1,-5.235094035E-1,6.004104077E0
1.029776992E1,5.506098447E0,8.874260724E-1,-8.676257191E-1,5.644237728E0
1.030776992E1,4.765681024E0,1.028597154E0,-1.515590696E0,5.105559997E0
1.031776892E1,3.917657584E0,4.597215432E-1,-2.315196851E0,4.573786320E0
1.032776792E1,2.978120248E0,-1.230717857E0,-2.533411431E0,4.099029170E0
1.033776692E1,2.263353830E0,-3.177175841E0,-1.998585327E0,4.383099382E0
1.034776692E1,1.773376892E0,-4.949157003E0,-1.403736822E0,5.441460990E0
1.035776592E1,1.137599267E0,-7.038149639E0,-1.184533771E0,7.227226487E0
1.036776492E1,2.818888945E-1,-9.463646028E0,-5.479152431E-1,9.483684337E0
1.037776392E1,-9.265086425E-1,-1.220505228E1,4.182992828E-1,1.224731373E1
1.038776292E1,-2.009420656E0,-1.469890729E1,1.053752460E0,1.487299705E1
1.039776292E1,-2.983234223E0,-1.685370449E1,1.327199839E0,1.716707608E1
1.040776192E1,-4.145027149E0,-1.790458948E1,1.204106010E0,1.841753094E1
1.041776092E1,-5.739981810E0,-1.652840284E1,6.579971176E-1,1.750909626E1
1.042775992E1,-6.827300212E0,-1.200675214E1,-1.510244440E-1,1.381292632E1
1.043775992E1,-6.554080875E0,-7.725064747E0,-8.290499564E-1,1.016464093E1
1.044775892E1,-6.499354445E0,-4.959903016E0,-1.532796859E0,8.318155585E0
1.045775792E1,-6.458153794E0,-2.521194259E0,-3.321537164E0,7.687443011E0
1.046775692E1,-6.739817680E0,1.402039522E-1,-7.045202551E0,9.750880909E0
1.047775692E1,-7.940790167E0,2.816648219E0,-1.146853231E1,1.423084288E1
1.048775592E1,-8.360058918E0,3.136020799E0,-5.111509624E0,1.028847618E1
1.049775492E1,-8.963873981E0,3.312199745E0,-1.468751721E0,9.668450523E0
1.050775392E1,-9.529590926E0,3.797768320E0,-4.976385440E-1,1.027053025E1
1.051775292E1,-9.732443116E0,4.569072198E0,-5.248086548E-1,1.076439937E1
1.052775292E1,-9.745073687E0,5.234194148E0,-1.755989027E-1,1.106318600E1
1.053775192E1,-9.283470510E0,5.525808241E0,9.887945724E-1,1.084873708E1
1.054775092E1,-8.643006853E0,5.614476004E0,1.650490054E0,1.043781709E1
1.055774992E1,-8.320950986E0,5.699458267E0,1.682217338E0,1.022506259E1
1.056774992E1,-8.329390857E0,5.438019315E0,2.057645713E0,1.015798760E1
1.057774892E1,-8.445473875E0,4.743297005E0,2.285599415E0,9.952329382E0
1.058774792E1,-8.356331903E0,4.117398178E0,1.951585992E0,9.517874684E0
1.059774692E1,-8.200182009E0,3.883510137E0,1.810951685E0,9.252252805E0
1.060774592E1,-8.035937814E0,3.750760800E0,1.795528484E0,9.048117244E0
1.061774592E1,-7.726683256E0,3.487433782E0,1.524310502E0,8.613207941E0
1.062774492E1,-7.335247251E0,3.168585112E0,1.014907580E0,8.054552827E0
1.063774392E1,-7.018666717E0,2.743879620E0,3.615555632E-1,7.544619293E0
1.064774292E1,-6.763226423E0,2.060626624E0,2.401557449E-1,7.074255333E0
1.065774292E1,-6.370618052E0,1.271727304E0,1.203444690E-1,6.497426221E0
1.066774192E1,-5.595330466E0,1.120162797E-1,-8.311378509E-1,5.657831811E0
1.067774092E1,-3.911108117E0,-1.567097064E0,-3.198431055E0,5.289850766E0
1.068773992E1,-1.073530667E0,-2.446910062E0,-2.965158725E0,3.991491352E0
1.069773892E1,8.917793244E-2,-3.614918870E0,-4.971846539E-1,3.650038866E0
1.070773892E1,1.355874000E0,-5.497515904E0,-3.135316502E-1,5.670923868E0
1.071773792E1,3.991469618E0,-7.810925261E0,2.335670292E-2,8.771711845E0
1.072773692E1,9.357786282E0,-1.014185405E1,2.802909601E-1,1.380231613E1
1.073773592E1,1.237500277E1,-1.169386413E1,-4.273936035E-1,1.703143614E1
1.074773592E1,1.235560171E1,-1.190829205E1,1.235791487E0,1.720451957E1
1.075773492E1,9.609292569E0,-1.154281768E1,5.096133785E0,1.586019304E1
1.076773392E1,6.894634994E0,-1.145902474E1,4.976564072E0,1.426924769E1
1.077773292E1,5.349328748E0,-1.230619040E1,2.499698140E0,1.364940039E1
1.078773192E1,5.070841069E0,-1.335619128E1,1.946042832E0,1.441833407E1
1.079773192E1,5.522347859E0,-1.332612958E1,1.257134993E0,1.447972527E1
1.080773092E1,6.946678721E0,-1.066339177E1,6.712442771E-1,1.274420802E1
1.081772992E1,7.262140684E0,-5.959769876E0,5.194964594E-1,9.408901150E0
1.082772892E1,6.110903444E0,-1.620013196E0,7.184729688E-1,6.362687094E0
1.083772892E1,5.290191763E0,1.360425473E0,-1.276982197E-1,5.463807573E0
1.084772792E1,4.295463436E0,3.508202507E0,-3.611797042E0,6.618426462E0
1.085772692E1,2.931234057E0,4.992539835E0,-5.884516211E0,8.255005641E0
1.086772592E1,1.998921542E0,6.182085108E0,-5.796023279E0,8.706764581E0
1.087772492E1,1.533128834E0,6.899797500E0,-5.846984103E0,9.173053617E0
1.088772492E1,1.170171401E0,7.056592927E0,-5.975273184E0,9.320337680E0
1.089772392E1,5.721332043E-1,6.561461815E0,-7.108830782E0,9.691005760E0
1.090772292E1,-6.956670736E-1,5.366345900E0,-8.825639956E0,1.035246549E1
1.091772192E1,-1.192737780E0,3.834492928E0,-8.120539423E0,9.059200845E0
1.092772192E1,-1.079244786E0,2.839123746E0,-6.937621969E0,7.573373854E0
1.093772092E1,-8.332833405E-1,2.202304074E0,-5.550468873E0,6.029279316E0
1.094771992E1,-7.330589944E-1,1.310118953E0,-4.342161055E0,4.594360650E0
1.095771892E1,-7.903745717E-1,2.636836982E-1,-3.364021279E0,3.465668798E0
1.096771792E1,-9.542020791E-1,-7.989541912E-1,-2.417765931E0,2.719268561E0
1.097771792E1,-1.158585436E0,-1.820576202E0,-1.401400421E0,2.573080072E0
1.098771692E1,-1.578510975E0,-2.781674852E0,-5.071600038E-1,3.238305599E0
1.099771592E1,-2.042157608E0,-3.586552858E0,3.892058766E-1,4.145509657E0
1.100771492E1,-1.888872558E0,-3.990379697E0,1.396064837E0,4.630331165E0
1.101771492E1,-1.462308528E0,-3.552552468E0,3.572586783E0,5.246174949E0
1.102771392E1,-1.675926173E0,-2.445631860E0,8.001513501E0,8.533115612E0
1.103771292E1,-2.015568126E0,-6.888037580E-1,8.493901684E0,8.756901924E0
1.104771192E1,-2.168830519E0,1.163016456E0,7.712181576E0,8.095318262E0
1.105771092E1,-2.503912228E0,2.704615567E0,7.239147677E0,8.123409439E0
1.106771092E1,-3.062962178E0,3.588842627E0,7.100443536E0,8.525129155E0
1.107770992E1,-3.512756318E0,4.138645205E0,6.272992355E0,8.295678042E0
1.108770937E1,-3.382486201E0,4.561892402E0,5.442652649E0,7.866037315E0
1.109770837E1,-3.058174770E0,4.760532258E0,4.307655466E0,7.111328703E0
1.110770837E1,-2.478718915E0,4.816797091E0,3.751772368E0,6.589489933E0
1.111770737E1,-2.432090001E0,4.461803858E0,5.043651516E0,7.159691059E0
1.112770637E1,-2.395065578E0,4.092367417E0,5.245185159E0,7.070769234E0
1.113770537E1,-2.548253126E0,3.111356074E0,4.439489129E0,5.990258286E0
1.114770437E1,-2.314184260E0,2.119237944E0,3.337058598E0,4.580674441E0
1.115770437E1,-2.008201511E0,1.094802253E0,2.719506086E0,3.553474164E0
1.116770337E1,-1.640736021E0,1.276207441E-1,1.923892994E0,2.531731818E0
1.117770237E1,-1.143859077E0,-7.191508073E-1,1.187100552E0,1.798554751E0
1.118770137E1,-6.630802484E-1,-1.475023883E0,6.814719343E-1,1.754928736E0
1.119770037E1,-2.839246757E-1,-2.072167858E0,2.699378800E-1,2.108876315E0
1.120770038E1,-3.832681753E-2,-2.523936603E0,-3.485057473E-2,2.524468159E0
1.121769938E1,6.616446108E-2,-2.977937815E0,-4.423915654E-1,3.011345491E0
1.122769838E1,1.960219114E-1,-3.237861169E0,-5.771745640E-1,3.294738232E0
1.123769738E1,3.123633034E-1,-3.490295994E0,-9.767165637E-1,3.637816956E0
1.124769738E1,4.698845887E-1,-3.749411262E0,-1.621388462E0,4.111906721E0
1.125769638E1,1.075159994E0,-3.427283474E0,-2.448043252E0,4.346855966E0
1.126769538E1,2.110396808E0,-2.442573182E0,-2.812613055E0,4.281440252E0
1.127769438E1,2.948611690E0,-1.895182580E0,-2.697378468E0,4.422881245E0
1.128769338E1,3.529319726E0,-1.693176482E0,-2.682555192E0,4.745423763E0
1.129769338E1,4.119396464E0,-1.638384563E0,-2.847942517E0,5.269203714E0
1.130769238E1,4.596736253E0,-1.821711146E0,-2.792964656E0,5.678843830E0
1.131769138E1,4.851516103E0,-2.351097586E0,-2.332621554E0,5.874180085E0
1.132769038E1,5.139889085E0,-2.778308026E0,-1.496053979E0,6.031221501E0
1.133769038E1,5.636148124E0,-2.977631421E0,-5.281211025E-1,6.396199376E0
1.134768938E1,6.436191067E0,-3.245882964E0,5.823587054E-1,7.231836097E0
1.135768838E1,7.622827935E0,-3.455512662E0,1.295500914E0,8.469143765E0
1.136768738E1,8.812531668E0,-3.252313147E0,1.638321413E0,9.535321298E0
1.137768638E1,9.563748021E0,-2.920198900E0,2.043485511E0,1.020630545E1
1.138768637E1,9.761199138E0,-2.841283123E0,3.193218847E0,1.065600981E1
1.139768537E1,9.637060411E0,-2.510057067E0,4.259478502E0,1.083127310E1
1.140768437E1,9.656356807E0,-1.590059080E0,4.378047171E0,1.072104527E1
1.141768337E1,9.864538150E0,-5.714127177E-1,4.049944698E0,1.067884252E1
1.142768237E1,9.626283993E0,1.978522360E-2,3.299001995E0,1.017591024E1
1.143768237E1,9.120275306E0,2.691777420E-1,2.524832981E0,9.467135781E0
1.144768137E1,8.333552905E0,2.906802928E-1,1.777184599E0,8.525900782E0
1.145768037E1,7.324931009E0,5.033926427E-2,1.054669231E0,7.400640210E0
1.146767937E1,6.318849728E0,-6.743798465E-1,2.232051784E-1,6.358653208E0
1.147767937E1,5.403096235E0,-1.918955020E0,-4.663698274E-1,5.752680950E0
1.148767837E1,4.501935930E0,-3.761764675E0,-6.767590785E-1,5.905616262E0
1.149767737E1,3.411991836E0,-5.987486848E0,-5.983948405E-1,6.917352342E0
1.150767637E1,2.112398017E0,-8.511846204E0,-4.355497384E-1,8.780857291E0
1.151767537E1,7.546515924E-1,-1.127983565E1,-8.039535606E-1,1.133360193E1
1.152767537E1,-1.285978723E0,-1.458177704E1,-2.967805760E0,1.493619208E1
1.153767437E1,-7.358468299E0,-1.951242293E1,-1.310432364E1,2.462935245E1
1.154767337E1,-1.006695940E1,-2.061249235E1,-1.506230824E1,2.744251523E1
1.155767237E1,-8.741868067E0,-1.706498662E1,-8.990968809E0,2.117714678E1
1.156767137E1,-7.277290819E0,-1.165614140E1,-4.978673748E0,1.461546394E1
1.157767138E1,-5.860735584E0,-7.149491735E0,-3.182540662E0,9.777117097E0
1.158767038E1,-4.791216692E0,-4.190360320E0,-2.561813697E0,6.861323955E0
1.159766938E1,-4.222665601E0,-2.113525799E0,-2.180325121E0,5.201126197E0
1.160766838E1,-3.987166652E0,-2.718417335E-1,-1.959406058E0,4.450917651E0
1.161766838E1,-4.208827581E0,1.212961033E0,-1.893771062E0,4.771988360E0
1.162766738E1,-4.718944522E0,2.310396872E0,-1.981396121E0,5.615363006E0
1.163766638E1,-5.341525639E0,3.079064825E0,-1.768482627E0,6.414052319E0
1.164766538E1,-6.103937656E0,3.670041742E0,-1.371274251E0,7.253113425E0
1.165766438E1,-7.451644850E0,3.903179001E0,-1.005574912E-1,8.412605369E0
1.166766438E1,-8.219164410E0,4.153697108E0,5.472303879E-1,9.225363102E0
1.167766338E1,-8.480006361E0,4.270098215E0,6.657587117E-1,9.517745600E0
1.168766238E1,-8.568844278E0,4.501110011E0,9.130216742E-1,9.722072421E0
1.169766138E1,-8.877572587E0,4.752206993E0,1.240615001E0,1.014563413E1
1.170766038E1,-9.051062983E0,4.908118905E0,1.582805463E0,1.041713230E1
1.171766037E1,-8.794489499E0,5.119270048E0,1.588068103E0,1.029912286E1
1.172765937E1,-8.534604152E0,5.314626108E0,1.288780124E0,1.013635402E1
1.173765837E1,-8.325498365E0,5.528825989E0,6.692559314E-1,1.001647360E1
1.174765737E1,-8.063790441E0,5.570237725E0,1.512240534E-1,9.801792352E0
1.175765637E1,-7.910019779E0,5.280483631E0,-2.887394558E-1,9.515003455E0
1.176765637E1,-7.949539356E0,4.457514340E0,-6.657252364E-1,9.138260237E0
1.177765537E1,-7.974969481E0,3.674223670E0,-9.797669099E-1,8.835157101E0
1.178765437E1,-7.678201067E0,3.217692953E0,-1.179126266E0,8.408249421E0
1.179765337E1,-7.238177040E0,2.746450056E0,-1.512284680E0,7.888041564E0
1.180765337E1,-6.880069579E0,2.099208891E0,-2.433841681E0,7.593788298E0
1.181765237E1,-6.525365784E0,9.942161107E-1,-3.651802522E0,7.543508861E0
1.182765137E1,-5.932734690E0,-4.912403744E-1,-5.061988385E0,7.814242408E0
1.183765037E1,-4.494000966E0,-1.327340757E0,-3.907434019E0,6.101304679E0
1.184764937E1,-3.590957858E0,-2.433021755E0,-2.827697702E0,5.177880598E0
1.185764937E1,-2.607332224E0,-4.348830974E0,-2.634726137E0,5.714218580E0
1.186764837E1,-1.251325492E0,-7.286932293E0,-2.016061631E0,7.663530664E0
1.187764737E1,9.013032693E-1,-1.052556354E1,-1.398617293E0,1.065626416E1
1.188764637E1,3.305638292E0,-1.302399693E1,-9.765627819E-1,1.347239457E1
1.189764638E1,8.889338354E0,-1.362678873E1,-5.114875281E-1,1.627793989E1
1.190764538E1,1.409466187E1,-1.190501059E1,3.075517758E-1,1.845219116E1
1.191764438E1,1.462726370E1,-1.005615375E1,2.148775738E-1,1.775188001E1
1.192764338E1,1.176744432E1,-8.977695630E0,1.453193303E0,1.487224043E1
1.193764238E1,8.195145217E0,-9.017255552E0,4.750425346E0,1.307814374E1
1.194764238E1,5.921876995E0,-1.072749362E1,7.916585033E0,1.458835375E1
1.195764138E1,4.982590213E0,-1.244888000E1,7.621535701E0,1.542363851E1
1.196764038E1,6.820678825E0,-1.286638874E1,4.156857236E0,1.514414345E1
1.197763938E1,1.026938065E1,-1.052617633E1,-1.021235217E0,1.474121733E1
1.198763838E1,1.225217499E1,-5.155275448E0,-4.344023978E0,1.398439134E1
1.199763838E1,1.080012072E1,-1.631373167E-1,-4.766714519E0,1.180638762E1
1.200763738E1,7.526028450E0,2.960866284E0,-4.583287949E0,9.295932541E0
1.201763638E1,4.868282702E0,5.054048451E0,-5.095112277E0,8.672009647E0
1.202763538E1,3.146425334E0,5.527069486E0,-7.258358704E0,9.650505716E0
1.203763438E1,2.103135004E0,5.932245862E0,-8.643546551E0,1.069231569E1
1.204763438E1,1.260251267E0,6.921334550E0,-7.830464902E0,1.052659897E1
1.205763338E1,6.148593573E-1,7.353673582E0,-7.337342309E0,1.040630383E1
1.206763238E1,3.802416016E-2,7.074719296E0,-7.019682378E0,9.966395519E0
1.207763138E1,-3.988858599E-2,6.379394723E0,-6.109980168E0,8.833466238E0
1.208763104E1,4.912667966E-2,5.312867850E0,-5.160086537E0,7.406447954E0
1.209763004E1,-6.469490960E-2,3.925632893E0,-4.443243918E0,5.929350349E0
1.210762904E1,-4.072170184E-1,2.187974303E0,-3.749145214E0,4.359948060E0
1.211762804E1,-8.942752084E-1,1.707270026E-1,-3.436144345E0,3.554710089E0
1.212762704E1,-1.686460078E0,-2.072437999E0,-4.102662610E0,4.896017498E0
1.213762704E1,-2.572052756E0,-4.072603828E0,-3.870730462E0,6.179329384E0
1.214762604E1,-3.942882472E0,-5.410974773E0,-2.590597200E0,7.178869273E0
1.215762504E1,-5.296502663E0,-6.075283375E0,-1.333079215E0,8.169400758E0
1.216762404E1,-5.556883854E0,-5.784391413E0,-3.467800878E-2,8.021181007E0
1.217762304E1,-5.572652625E0,-4.834756814E0,8.913951623E-1,7.431279571E0
1.218762304E1,-5.742337069E0,-3.872134379E0,1.607970271E0,7.110093393E0
1.219762204E1,-5.791777616E0,-3.060115753E0,3.219423144E0,7.298882227E0
1.220762104E1,-5.323091122E0,-1.824596162E0,7.405541893E0,9.300887107E0
1.221762004E1,-5.335173808E0,-7.177036214E-1,9.732399262E0,1.112199503E1
1.222762004E1,-4.996432911E0,5.434986949E-1,7.937226874E0,9.394642256E0
1.223761904E1,-4.384052846E0,1.685478623E0,4.165198581E0,6.277709516E0
1.224761804E1,-4.320798252E0,2.644835388E0,2.553924633E0,5.673357278E0
1.225761704E1,-4.603864593E0,3.386488620E0,2.209166951E0,6.127339797E0
1.226761604E1,-4.969015317E0,3.845175206E0,2.400888966E0,6.726124695E0
1.227761604E1,-4.574673539E0,4.313033735E0,2.262791766E0,6.682074869E0
1.228761504E1,-4.195484819E0,4.522738861E0,2.294510572E0,6.581947922E0
1.229761404E1,-3.957170728E0,4.659618672E0,2.699126201E0,6.682554046E0
1.230761304E1,-4.473765507E0,4.240433536E0,4.599727396E0,7.691121277E0
1.231761204E1,-5.012040299E0,3.540838741E0,5.483028842E0,8.229319063E0
1.232761204E1,-4.037825174E0,3.159573383E0,3.748798474E0,6.351411347E0
1.233761104E1,-2.927453832E0,2.573744355E0,2.042697891E0,4.400768185E0
1.234761004E1,-2.112799867E0,1.807143978E0,1.217149394E0,3.034986867E0
1.235760904E1,-1.339550182E0,9.436248314E-1,6.294896024E-1,1.755300451E0
1.236760804E1,-6.940595278E-1,6.719854116E-2,7.355854849E-2,7.011741097E-1
1.237760804E1,-2.150107807E-1,-9.159283251E-1,-3.951647375E-1,1.020445737E0
1.238760704E1,1.808509449E-1,-1.763853532E0,-8.442291820E-1,1.963825160E0
1.239760604E1,4.789034803E-1,-2.484074380E0,-1.204177419E0,2.801788237E0
1.240760504E1,5.810611352E-1,-3.531546346E0,-1.884745885E0,4.044962137E0
1.241760404E1,4.876757656E-1,-5.122066771E0,-3.528112861E0,6.238667808E0
1.242760404E1,1.084815794E0,-5.603745194E0,-4.767265912E0,7.436774151E0
1.243760304E1,2.396153599E0,-4.081555331E0,-4.370139982E0,6.441953853E0
1.244760204E1,3.186547174E0,-3.140910825E0,-3.628325951E0,5.760568801E0
1.245760104E1,3.506718776E0,-2.692013063E0,-3.353399227E0,5.548810438E0
1.246760104E1,3.720129283E0,-2.866037310E0,-3.258717602E0,5.716010161E0
1.247760004E1,3.874256918E0,-3.475564519E0,-3.268417549E0,6.145890388E0
1.248759904E1,3.974867911E0,-4.354141415E0,-2.878068541E0,6.560594554E0
1.249759804E1,4.424143988E0,-5.083348264E0,-2.138556267E0,7.070141618E0
1.250759704E1,5.040294045E0,-5.532264152E0,-1.178502368E0,7.576237756E0
1.251759704E1,5.932859820E0,-5.916409264E0,-3.515313891E-1,8.386077661E0
1.252759604E1,7.708531744E0,-5.822257397E0,-2.378851980E-2,9.660264424E0
1.253759504E1,9.041713285E0,-5.436919454E0,3.678424895E-2,1.055054621E1
1.254759404E1,9.757423006E0,-4.911176999E0,7.359919578E-1,1.094845411E1
1.255759304E1,1.036924875E1,-3.705322087E0,1.679833721E0,1.113878687E1
1.256759304E1,1.073144985E1,-2.280721083E0,1.926147680E0,1.113892946E1
1.257759204E1,1.082683197E1,-1.088025915E0,1.738022872E0,1.101929283E1
1.258759104E1,1.055272970E1,-3.598107541E-1,7.448107284E-1,1.058509854E1
1.259759004E1,9.617651748E0,-9.353907824E-2,-7.623965219E-1,9.648275657E0
1.260758904E1,8.678956704E0,2.163177431E-1,-1.883357902E0,8.883587104E0
1.261758904E1,7.568853457E0,5.669881296E-1,-2.183612865E0,7.897922723E0
1.262758804E1,6.437413720E0,7.980244839E-1,-1.967365434E0,6.778470715E0
1.263758704E1,5.361488033E0,6.141026545E-1,-1.646102888E0,5.642014774E0
1.264758604E1,4.327633647E0,2.566050589E-2,-1.449910530E0,4.564133214E0
1.265758504E1,3.483661743E0,-1.042438683E0,-1.304096175E0,3.863061529E0
1.266758504E1,2.786690009E0,-2.336999364E0,-1.023394155E0,3.778166597E0
1.267758404E1,2.125963558E0,-3.716258134E0,-4.797219443E-1,4.308181602E0
1.268758304E1,1.446399423E0,-5.403448822E0,7.133334124E-1,5.638987056E0
1.269758204E1,6.031000949E-1,-7.487032784E0,1.850337360E0,7.735834666E0
1.270758204E1,-4.106809455E-1,-9.792265980E0,2.641422368E0,1.015057850E1
1.271758104E1,-1.416896274E0,-1.186511387E1,3.062119594E0,1.233552182E1
1.272758004E1,-2.400235540E0,-1.331278857E1,2.977654810E0,1.385127786E1
1.273757904E1,-3.328622527E0,-1.359042139E1,2.118599428E0,1.415159867E1
1.274757804E1,-3.804362518E0,-1.213329057E1,9.817013150E-1,1.275357407E1
1.275757804E1,-4.050388502E0,-9.349047033E0,-4.979656957E-1,1.020089689E1
1.276757704E1,-4.640744736E0,-6.103101504E0,-2.309369516E0,8.007343332E0
1.277757604E1,-5.359180722E0,-3.367023824E0,-5.095892880E0,8.125625618E0
1.278757504E1,-6.261930592E0,-1.290452428E0,-7.969038066E0,1.021678080E1
1.279757404E1,-7.253824773E0,6.152147949E-2,-1.030565444E1,1.260270892E1
1.280757404E1,-8.215907511E0,1.055800155E0,-1.214655790E1,1.470220116E1
1.281757304E1,-9.332566656E0,1.774379690E0,-1.220509905E1,1.546640445E1
1.282757204E1,-9.216302959E0,1.915698121E0,-7.048830163E0,1.175993819E1
1.283757104E1,-8.767337369E0,2.215458555E0,-3.241666245E0,9.606396889E0
1.284757004E1,-8.873325169E0,2.672818993E0,-1.618436641E0,9.407401240E0
1.285757004E1,-9.143449575E0,3.191678690E0,-2.994231959E-1,9.689124689E0
1.286756904E1,-9.194960622E0,3.930163901E0,9.493416542E-1,1.004463731E1
1.287756804E1,-8.936115494E0,4.381352018E0,2.031000682E0,1.015752772E1
1.288756704E1,-8.231614886E0,4.682026956E0,1.891538011E0,9.657058356E0
1.289756604E1,-8.020680090E0,4.848017129E0,1.491944409E0,9.490019879E0
1.290756604E1,-7.975214480E0,4.730465875E0,1.226082623E0,9.353321976E0
1.291756504E1,-7.763830617E0,4.471979767E0,9.869503605E-1,9.013863761E0
1.292756404E1,-7.345980985E0,4.036300805E0,1.099790513E0,8.453679672E0
1.293756304E1,-7.186272476E0,3.671304156E0,8.890919441E-1,8.118587980E0
1.294756204E1,-7.380888863E0,2.897084856E0,6.640460622E-1,7.956857309E0
1.295756204E1,-7.378678615E0,2.099484295E0,1.152515441E-1,7.672419131E0
1.296756104E1,-7.223899893E0,1.389854509E0,-6.508103049E-1,7.385118772E0
1.297756004E1,-6.843644350E0,6.041220421E-1,-1.545569955E0,7.041961226E0
1.298755904E1,-6.385371162E0,-7.000871301E-1,-2.396022329E0,6.855947043E0
1.299755804E1,-5.305142509E0,-2.511363920E0,-5.004250054E0,7.713235662E0
1.300755804E1,-2.811173471E0,-3.454898120E0,-5.049473004E0,6.733215793E0
1.301755704E1,-1.687571634E0,-3.527635143E0,-1.998066532E0,4.391398136E0
1.302755604E1,-3.064017016E-1,-4.752193544E0,-9.925758205E-1,4.864404613E0
1.303755504E1,2.380821907E0,-6.644300489E0,-9.250086124E-1,7.118334276E0
1.304755404E1,5.854654480E0,-8.386971897E0,-5.996880984E-1,1.024587246E1
1.305755404E1,1.045442982E1,-9.426118598E0,-1.927287887E0,1.420778848E1
1.306755304E1,1.211902336E1,-1.009642937E1,-1.556710070E0,1.585029840E1
1.307755204E1,1.214884065E1,-9.610529839E0,6.068205321E-1,1.550241414E1
1.308755075E1,1.050906855E1,-8.939812689E0,2.536895787E0,1.402842161E1
1.309754975E1,9.199396904E0,-8.776392367E0,4.302102950E0,1.342244598E1
1.310754975E1,8.333018469E0,-9.711966167E0,4.626333104E0,1.360751416E1
1.311754875E1,7.217733420E0,-1.131272273E1,4.225784506E0,1.406878196E1
1.312754775E1,7.180987762E0,-1.231671655E1,3.057514035E0,1.458137456E1
1.313754675E1,8.843987934E0,-1.128968938E1,1.220149454E0,1.439312244E1
1.314754575E1,1.077802643E1,-7.188586219E0,3.352996646E-1,1.295970877E1
1.315754575E1,8.895625865E0,-2.543302581E0,-2.181625396E-2,9.252082117E0
1.316754475E1,5.912269435E0,8.288814104E-1,-8.592179346E-1,6.031602583E0
1.317754375E1,3.539457629E0,3.355033523E0,-2.447757323E0,5.456695535E0
1.318754275E1,2.142604879E0,4.773564532E0,-4.288741477E0,6.765425151E0
1.319754275E1,1.483978455E0,5.863709478E0,-6.136067521E0,8.616066708E0
1.320754175E1,7.231937914E-1,7.136013318E0,-6.253367929E0,9.515792442E0
1.321754075E1,1.653308266E-1,8.132149070E0,-6.201824723E0,1.022848047E1
1.322753975E1,-1.158782195E-1,8.241108425E0,-6.653819756E0,1.059257349E1
1.323753875E1,-3.594760741E-1,7.255454977E0,-7.129009523E0,1.017809544E1
1.324753875E1,-4.419036153E-1,5.435837134E0,-6.888094298E0,8.785752513E0
1.325753775E1,-6.108973570E-1,3.575883443E0,-6.086468514E0,7.085565394E0
1.326753675E1,-1.099480684E0,1.519063942E0,-4.975748971E0,5.317376313E0
1.327753575E1,-1.998352607E0,-8.614135641E-1,-4.721937127E0,5.199243858E0
1.328753475E1,-3.487935473E0,-3.387501358E0,-6.909739521E0,8.448985712E0
1.329753475E1,-4.747148859E0,-5.385063422E0,-6.725092052E0,9.836726765E0
1.330753375E1,-5.356253605E0,-6.427676352E0,-5.175019741E0,9.837952291E0
1.331753275E1,-5.560209750E0,-6.097209849E0,-2.926379406E0,8.755318203E0
1.332753175E1,-5.412816646E0,-5.120188061E0,-1.229500467E0,7.551594615E0
1.333753075E1,-5.206532725E0,-3.971438227E0,-2.302727079E-1,6.552353022E0
1.334753075E1,-5.150968389E0,-2.968094612E0,3.537968197E-1,5.955437277E0
1.335752975E1,-5.295960626E0,-2.112249352E0,1.005238697E0,5.789585574E0
1.336752875E1,-6.096298268E0,-1.465800485E0,3.389071920E0,7.127358004E0
1.337752775E1,-6.483977437E0,-4.353982955E-1,7.208870795E0,9.705635127E0
1.338752675E1,-5.947421726E0,1.021059508E0,8.903678066E0,1.075592259E1
1.339752675E1,-5.043885990E0,2.128894621E0,8.190010192E0,9.851357528E0
1.340752575E1,-3.658072491E0,3.149568797E0,6.901024246E0,8.421722722E0
1.341752475E1,-2.778869358E0,4.004474410E0,5.421851764E0,7.290706877E0
1.342752375E1,-2.693331318E0,4.556365614E0,4.644761481E0,7.041896791E0
1.343752275E1,-2.526869274E0,4.707563501E0,3.723008745E0,6.512066996E0
1.344752275E1,-2.467088511E0,4.478419306E0,2.768059026E0,5.814199512E0
1.345752175E1,-2.546884001E0,3.883483239E0,2.074723091E0,5.086505292E0
1.346752075E1,-2.610169585E0,3.069136253E0,1.781349571E0,4.405200211E0
1.347751975E1,-2.700013223E0,2.151919786E0,1.564562296E0,3.790604879E0
1.348751875E1,-2.611304238E0,1.302046872E0,1.233347935E0,3.167867265E0
1.349751875E1,-2.329269930E0,5.176031309E-1,8.876225388E-1,2.545836833E0
1.350751775E1,-1.927634335E0,-1.968728274E-1,5.919037368E-1,2.026051103E0
1.351751675E1,-1.446314493E0,-8.084149861E-1,3.246163630E-1,1.688412327E0
1.352751575E1,-9.862824623E-1,-1.368403414E0,3.611353677E-2,1.687182618E0
1.353751475E1,-5.499741939E-1,-2.068797523E0,-4.359461065E-1,2.184592367E0
1.354751475E1,-3.619530277E-1,-2.837709305E0,-6.872682792E-1,2.942098193E0
1.355751375E1,-1.410952871E-1,-3.628838752E0,-1.281590388E0,3.851084586E0
1.356751275E1,3.284451199E-1,-4.220201585E0,-2.572790090E0,4.953506481E0
1.357751175E1,1.294403976E0,-3.695809252E0,-3.457706537E0,5.224004420E0
1.358751075E1,2.419518634E0,-2.604480245E0,-3.539107381E0,5.016240506E0
1.359751075E1,2.976699083E0,-2.024882010E0,-2.982506830E0,4.675064873E0
1.360750975E1,3.162393788E0,-1.580004208E0,-2.891709511E0,4.567179837E0
1.361750875E1,3.235905860E0,-1.193308541E0,-2.718582226E0,4.391555684E0
1.362750775E1,3.103383395E0,-1.118596328E0,-2.475390680E0,4.124294517E0
1.363750675E1,3.027545300E0,-1.223997653E0,-2.235335726E0,3.957388862E0
1.364750675E1,3.074393485E0,-1.465690557E0,-1.873696402E0,3.887271834E0
1.365750575E1,3.340922438E0,-1.927679651E0,-1.474202349E0,4.129283732E0
1.366750475E1,3.854228742E0,-2.749337411E0,-1.160927392E0,4.874596169E0
1.367750375E1,4.526300693E0,-3.725336521E0,-8.707606307E-1,5.926529696E0
1.368750275E1,5.564685209E0,-4.845600475E0,-4.709243698E-1,7.393736214E0
1.369750275E1,6.896044757E0,-5.352606112E0,-3.731178474E-1,8.737565017E0
1.370750175E1,8.222113745E0,-4.981058827E0,-8.162737902E-1,9.647818633E0
1.371750075E1,9.198686467E0,-4.478226932E0,-1.396181489E0,1.032568022E1
1.372749975E1,9.773319247E0,-4.162158614E0,-1.446475730E0,1.072071012E1
1.373749875E1,9.932995012E0,-3.720305577E0,-6.004549608E-1,1.062382274E1
1.374749875E1,9.638874217E0,-2.966143396E0,4.121453807E-2,1.008501866E1
1.375749775E1,9.412033825E0,-1.753287029E0,3.190679401E-1,9.579258869E0
1.376749675E1,9.345962627E0,-5.657859421E-1,4.220754147E-1,9.372581225E0
1.377749575E1,9.073698140E0,4.189126557E-1,1.189214028E-1,9.084141569E0
1.378749475E1,8.311044048E0,8.504383403E-1,-1.953997676E-1,8.356726608E0
1.379749475E1,7.711210939E0,1.475648366E0,-3.275680375E-1,7.857964944E0
1.380749375E1,7.176446230E0,2.156919156E0,-4.856616922E-1,7.509297438E0
1.381749275E1,6.532733860E0,2.415834450E0,-6.450602261E-1,6.994924622E0
1.382749175E1,5.914457463E0,2.281777090E0,-9.322123090E-1,6.407521640E0
1.383749075E1,5.324245362E0,1.811166862E0,-9.961352400E-1,5.711409589E0
1.384749075E1,4.813025637E0,8.836247975E-1,-7.373691233E-1,4.948709103E0
1.385748975E1,4.219686445E0,-5.634312683E-1,-6.214461726E-1,4.302255668E0
1.386748875E1,3.550392799E0,-2.287304463E0,-4.486639102E-1,4.247157878E0
1.387748775E1,2.802858730E0,-4.472553964E0,1.232458939E-1,5.279672866E0
1.388748675E1,1.785178620E0,-7.237034494E0,1.108806335E0,7.535979197E0
1.389748675E1,5.173392753E-1,-1.039565946E1,1.973880256E0,1.059403506E1
1.390748575E1,-9.231266861E-1,-1.356859607E1,2.051293298E0,1.375379098E1
1.391748475E1,-2.370837640E0,-1.675853872E1,1.815584434E0,1.702250974E1
1.392748375E1,-3.818689950E0,-1.880117112E1,1.431721743E0,1.923840575E1
1.393748275E1,-5.522037957E0,-1.847491403E1,4.902252613E-1,1.928874471E1
1.394748275E1,-6.548878607E0,-1.535773296E1,-2.153372381E-1,1.669712978E1
1.395748175E1,-6.275548757E0,-1.041510262E1,-2.242617702E0,1.236471629E1
1.396748075E1,-6.228779218E0,-5.530617576E0,-6.545763795E0,1.059398155E1
1.397747975E1,-8.151734319E0,-1.472966833E0,-1.539158132E1,1.747916415E1
1.398747875E1,-9.337937908E0,1.178811539E0,-1.364871930E1,1.657933109E1
1.399747875E1,-9.210680276E0,3.477237992E0,-6.712533987E0,1.191578481E1
1.400747775E1,-9.810424508E0,4.751540995E0,-4.089154957E0,1.164228324E1
1.401747675E1,-1.016739936E1,3.221003646E0,1.047013398E-1,1.066591940E1
1.402747575E1,-1.039739842E1,1.579870892E0,3.284817234E0,1.101779970E1
1.403747475E1,-1.004725662E1,1.039346091E0,3.831343617E0,1.080309214E1
1.404747375E1,-9.151791798E0,9.953861386E-1,3.249356210E0,9.762397372E0
1.405747375E1,-8.333778023E0,1.231780297E0,2.658038986E0,8.833703078E0
1.406747275E1,-7.571869451E0,1.456350215E0,2.294494784E0,8.044803866E0
1.407747175E1,-6.888692468E0,1.843462788E0,1.963431866E0,7.396452100E0
1.408747075E1,-6.288674587E0,2.245134344E0,1.542509522E0,6.853275998E0
1.409746975E1,-5.836449174E0,2.551709708E0,1.125169768E0,6.468490427E0
1.410746975E1,-5.424977685E0,2.955504972E0,7.334139204E-1,6.221196710E0
1.411746875E1,-5.047821751E0,3.488973938E0,3.087084281E-1,6.144000689E0
1.412746775E1,-4.729944011E0,3.896748818E0,-2.751344468E-1,6.134551382E0
1.413746675E1,-4.484741315E0,4.204196001E0,-1.045572352E0,6.235494385E0
1.414746575E1,-4.336508259E0,4.415760543E0,-1.752417548E0,6.432356669E0
1.415746575E1,-4.439369261E0,4.342777936E0,-2.315619313E0,6.627956882E0
1.416746475E1,-4.581765334E0,3.892202023E0,-2.833491123E0,6.646087729E0
1.417746375E1,-4.658261825E0,3.261572798E0,-3.260041997E0,6.554779490E0
1.418746275E1,-4.603860208E0,2.250733638E0,-4.322571420E0,6.704174401E0
1.419746175E1,-3.404642470E0,1.281000988E0,-6.307734171E0,7.281487778E0
1.420746175E1,-1.226473656E0,5.135036480E-1,-6.531783103E0,6.665741829E0
1.421746075E1,-4.024384180E-1,-5.784948653E-1,-3.307448882E0,3.381690568E0
1.422745975E1,-3.114186126E-1,-1.834012519E0,-1.148781994E0,2.186385954E0
1.423745875E1,1.416001211E-1,-2.919605992E0,-3.766232532E-1,2.947201184E0
1.424745775E1,2.240503934E0,-4.059689083E0,5.812022723E-1,4.673192636E0
1.425745775E1,6.883579078E0,-4.828256464E0,2.195732388E0,8.690049605E0
1.426745675E1,1.163548903E1,-5.576940388E0,2.456317647E0,1.313470081E1
1.427745575E1,1.211103373E1,-7.195901086E0,6.622158837E-1,1.410307272E1
1.428745475E1,1.018206418E1,-8.245150605E0,7.958761438E-1,1.312594219E1
1.429745375E1,7.765165536E0,-8.216900952E0,2.480702875E0,1.157450404E1
1.430745375E1,5.368115852E0,-7.769245139E0,4.860154195E0,1.062068438E1
1.431745275E1,4.055881376E0,-7.848094257E0,5.093496691E0,1.019737543E1
1.432745175E1,4.493751875E0,-8.758073040E0,3.263677211E0,1.037059488E1
1.433745075E1,6.498200204E0,-9.643015215E0,1.335603312E0,1.170462236E1
1.434744975E1,9.413578659E0,-9.581134132E0,-4.667519429E-1,1.343992008E1
1.435744975E1,1.127465618E1,-7.367616268E0,-1.199202242E0,1.352175017E1
1.436744875E1,9.783841311E0,-2.717059026E0,2.019014329E-1,1.015611760E1
1.437744775E1,5.911287687E0,1.068365237E0,2.586996777E0,6.540434139E0
1.438744675E1,3.395114433E0,3.046585296E0,4.361692509E-1,4.582436862E0
1.439744575E1,2.164206248E0,3.531444604E0,-3.874312174E0,5.671435841E0
1.440744575E1,1.353918253E0,4.296669717E0,-6.121390425E0,7.600387229E0
1.441744475E1,5.802674487E-1,5.535091281E0,-6.190161867E0,8.324184629E0
1.442744375E1,-5.176452309E-2,6.238419523E0,-6.352815034E0,8.903865260E0
1.443744275E1,-6.768236902E-1,6.213750705E0,-6.468169490E0,8.994776521E0
1.444744175E1,-1.389486573E0,4.652952846E0,-6.127023048E0,7.817995558E0
1.445744175E1,-2.570620188E0,2.348471017E0,-6.468468282E0,7.346052422E0
1.446744075E1,-4.880065134E0,-1.047892381E0,-1.060921732E1,1.172470069E1
1.447743975E1,-6.093727832E0,-3.953841031E0,-1.096297971E1,1.315117112E1
1.448743875E1,-6.235909898E0,-5.542389776E0,-9.231904500E0,1.244317955E1
1.449743775E1,-5.884036739E0,-5.963761185E0,-6.755463075E0,1.076218459E1
1.450743775E1,-5.047035885E0,-5.622385533E0,-4.531623121E0,8.810187195E0
1.451743675E1,-4.604756001E0,-4.847071635E0,-3.071144479E0,7.357296356E0
1.452743575E1,-4.632774397E0,-3.738148355E0,-1.812369050E0,6.222622704E0
1.453743475E1,-4.839328459E0,-3.107461243E0,-3.914646560E-1,5.764430578E0
1.454743375E1,-4.877600825E0,-2.632678442E0,1.050724114E0,5.641454311E0
1.455743275E1,-4.548363407E0,-1.955408317E0,4.164054866E0,6.469202756E0
1.456743275E1,-4.048987217E0,-4.152961528E-1,9.242118416E0,1.009868908E1
1.457743175E1,-4.587000346E0,3.383222365E-1,1.022735320E1,1.121399963E1
1.458743075E1,-4.968951582E0,3.514077204E-1,8.223409488E0,9.614490669E0
1.459742975E1,-5.074316654E0,5.218090332E-1,7.321722057E0,8.923485197E0
1.460742875E1,-4.140343237E0,1.321997572E0,6.863261758E0,8.123698767E0
1.461742875E1,-2.833208410E0,2.384650079E0,5.506569732E0,6.635957814E0
1.462742775E1,-2.266956445E0,3.090717741E0,4.460954257E0,5.881474353E0
1.463742675E1,-1.690000275E0,3.819448042E0,3.710897992E0,5.587042883E0
1.464742575E1,-1.397325789E0,4.154788198E0,2.755224388E0,5.177455530E0
1.465742475E1,-1.617066492E0,3.957497880E0,1.985379975E0,4.713642663E0
1.466742475E1,-1.943730112E0,3.360431088E0,1.734411632E0,4.251913399E0
1.467742375E1,-2.025555024E0,2.623870196E0,1.645433382E0,3.700678178E0
1.468742275E1,-1.953277007E0,1.805976874E0,1.544236205E0,3.075956598E0
1.469742175E1,-1.583811476E0,1.114071168E0,1.143611886E0,2.248880056E0
1.470742075E1,-1.129950597E0,4.743828517E-1,5.573401872E-1,1.346274685E0
1.471742075E1,-7.346572577E-1,-2.428418827E-1,7.694935799E-2,7.775697204E-1
1.472741975E1,-3.657011660E-1,-9.671674758E-1,-2.931383892E-1,1.074746661E0
1.473741875E1,-2.501948660E-2,-1.649218869E0,-5.563853735E-1,1.740722131E0
1.474741775E1,3.702062264E-1,-2.174208203E0,-8.554241149E-1,2.365583306E0
1.475741675E1,7.230212255E-1,-2.474492548E0,-1.168542075E0,2.830435239E0
1.476741675E1,1.118935101E0,-2.412307409E0,-1.542254730E0,3.074051471E0
1.477741575E1,1.574047650E0,-2.088967493E0,-2.221095417E0,3.431424783E0
1.478741475E1,2.015809470E0,-1.734655461E0,-3.145206774E0,4.118840011E0
1.479741375E1,2.476177423E0,-1.397747081E0,-3.706956384E0,4.671902949E0
1.480741275E1,2.876330456E0,-1.189417219E0,-3.665068685E0,4.808400844E0
1.481741275E1,3.143279825E0,-1.235222552E0,-3.484005851E0,4.852244798E0
1.482741175E1,3.381276997E0,-1.629875110E0,-3.561743122E0,5.174508776E0
1.483741075E1,3.587939233E0,-2.191479124E0,-3.477530645E0,5.456107410E0
1.484740975E1,3.819916404E0,-2.776192503E0,-3.325241960E0,5.775486147E0
1.485740875E1,4.099829634E0,-3.269352518E0,-3.145271679E0,6.114736531E0
1.486740875E1,4.503756461E0,-3.612166001E0,-2.854434388E0,6.440447279E0
1.487740775E1,5.041385136E0,-3.654537849E0,-2.493163292E0,6.707240429E0
1.488740675E1,5.659717666E0,-3.263974249E0,-2.058942918E0,6.850195464E0
1.489740575E1,6.149619028E0,-2.644188101E0,-1.587109745E0,6.879568464E0
1.490740475E1,6.473582842E0,-2.028671005E0,-1.254575082E0,6.899039027E0
1.491740475E1,6.622977448E0,-1.782907269E0,-1.027260773E0,6.935261588E0
1.492740375E1,6.724278120E0,-1.961872414E0,-7.969880649E-1,7.049826209E0
1.493740275E1,6.846272673E0,-2.082070118E0,-5.477725710E-1,7.176804322E0
1.494740175E1,7.091243527E0,-1.876510082E0,-1.847269911E-1,7.337652820E0
1.495740075E1,7.522964509E0,-1.270623935E0,2.714295048E-1,7.634340453E0
1.496740075E1,8.222785006E0,-2.895318997E-1,8.613159156E-1,8.272840327E0
1.497739975E1,9.247670932E0,5.427186763E-1,1.054823743E0,9.323444340E0
1.498739875E1,9.672885132E0,7.642872190E-1,9.637584760E-1,9.750778027E0
1.499739775E1,9.215409504E0,3.583629835E-1,7.855616554E-1,9.255771360E0
1.500739675E1,8.094248003E0,-2.001244640E-1,6.326347467E-1,8.121399341E0
1.501739675E1,6.455251236E0,-7.144186556E-1,5.352277353E-1,6.516681001E0
1.502739575E1,4.817104947E0,-1.265248005E0,3.778026366E-1,4.994806044E0
1.503739475E1,3.798444259E0,-1.915630878E0,2.803470933E-1,4.263380694E0
1.504739375E1,3.082860838E0,-2.933041724E0,2.916906917E-1,4.265190284E0
1.505739275E1,2.385053098E0,-4.223685356E0,4.994011872E-1,4.876207318E0
1.506739275E1,1.630807741E0,-5.702206458E0,9.936454955E-1,6.013486822E0
1.507739175E1,8.508084691E-1,-7.316826768E0,1.739868253E0,7.568815663E0
1.508739092E1,9.035689557E-2,-8.970287792E0,2.369219862E0,9.278331218E0
1.509738992E1,-6.371545713E-1,-1.052947650E1,3.020601439E0,1.097268765E1
1.510738892E1,-1.487981313E0,-1.172090516E1,3.980970942E0,1.246763152E1
1.511738892E1,-2.316129482E0,-1.211877778E1,4.466437191E0,1.312167260E1
1.512738792E1,-3.015871042E0,-1.112853660E1,3.961405574E0,1.219149454E1
1.513738692E1,-3.284000086E0,-8.979698886E0,3.115144485E0,1.005603171E1
1.514738592E1,-3.736669010E0,-6.566179934E0,1.652326664E0,7.733537199E0
1.515738492E1,-4.200610489E0,-4.144939148E0,-4.085478812E-1,5.915450988E0
1.516738492E1,-5.033601322E0,-1.801669815E0,-3.250834386E0,6.257082435E0
1.517738392E1,-6.240301157E0,3.379930383E-1,-6.793805022E0,9.231001273E0
1.518738292E1,-7.435562668E0,1.540540180E0,-8.376321194E0,1.130591053E1
1.519738192E1,-8.447191202E0,2.370119163E0,-9.658912041E0,1.304864307E1
1.520738092E1,-9.693373775E0,2.947773199E0,-1.143508858E1,1.527783076E1
1.521738092E1,-1.005716999E1,2.848157694E0,-6.930335169E0,1.254145988E1
1.522737992E1,-9.868343518E0,2.277179425E0,-2.011076733E0,1.032541426E1
1.523737892E1,-9.676426790E0,1.893093955E0,1.716831686E-1,9.861364777E0
1.524737792E1,-9.040281887E0,2.237647569E0,1.356941848E0,9.411432113E0
1.525737692E1,-8.177041068E0,2.835896668E0,1.877670023E0,8.856181754E0
1.526737692E1,-7.521200988E0,3.076655772E0,1.269097227E0,8.224650924E0
1.527737592E1,-7.044002702E0,3.169838755E0,3.177178180E-1,7.730898810E0
1.528737492E1,-6.613878595E0,3.229059940E0,-3.753099686E-1,7.369604857E0
1.529737392E1,-6.258754385E0,3.286053336E0,-9.477868795E-1,7.132212345E0
1.530737292E1,-6.001775689E0,3.350163962E0,-1.262255838E0,6.988433286E0
1.531737292E1,-5.912722009E0,3.440885267E0,-1.445141834E0,6.992024593E0
1.532737192E1,-6.094505512E0,3.309061545E0,-1.527986354E0,7.101241303E0
1.533737092E1,-6.488780340E0,2.800773613E0,-1.427396557E0,7.210136203E0
1.534736992E1,-6.768182523E0,2.115213890E0,-1.359574264E0,7.220170819E0
1.535736892E1,-6.867007484E0,1.427390710E0,-1.198983849E0,7.115532187E0
1.536736892E1,-6.796654955E0,6.923389846E-1,-1.192453678E0,6.935113382E0
1.537736792E1,-6.287840774E0,-1.846685189E-1,-2.982023265E0,6.961573587E0
1.538736692E1,-3.972899154E0,-1.239467631E0,-7.588593657E0,8.654880784E0
1.539736592E1,-1.781098725E0,-2.101412122E0,-5.530341003E0,6.178423519E0
1.540736492E1,-1.185332062E0,-2.845056331E0,-1.986942351E-1,3.088500773E0
1.541736492E1,5.781031018E-1,-3.586770959E0,1.163126237E0,3.814707296E0
1.542736392E1,4.006988713E0,-4.591682796E0,1.346488781E0,6.241197120E0
1.543736292E1,8.255116600E0,-5.711706430E0,1.544139580E0,1.015652044E1
1.544736192E1,1.140549114E1,-6.676946663E0,1.269993020E0,1.327703759E1
1.545736092E1,1.163038909E1,-7.872798159E0,1.174614993E0,1.409349572E1
1.546736092E1,9.997497987E0,-8.697218728E0,2.632232884E0,1.351000479E1
1.547735992E1,7.243931285E0,-8.215900494E0,3.610381431E0,1.153301415E1
1.548735892E1,5.844646971E0,-5.910525210E0,4.368577021E0,9.390349922E0
1.549735792E1,5.521198881E0,-3.662433929E0,4.655309274E0,8.097466505E0
1.550735792E1,5.190975623E0,-4.206716736E0,3.795893703E0,7.684497552E0
1.551735692E1,5.770072167E0,-5.306617761E0,1.842977323E0,8.052980212E0
1.552735592E1,7.478061985E0,-5.719677354E0,1.070959062E0,9.475393047E0
1.553735492E1,1.020353516E1,-6.521362780E0,-1.293173137E-1,1.211020335E1
1.554735392E1,1.174072137E1,-6.425593573E0,-1.222999533E0,1.343981097E1
1.555735392E1,1.006170860E1,-3.947361732E0,-4.863506404E-1,1.081925051E1
1.556735292E1,6.702386729E0,-5.720021170E-1,6.194934949E-1,6.755216242E0
1.557735192E1,4.468486348E0,2.026082443E0,-2.236808786E0,5.392188225E0
1.558735092E1,2.765618106E0,3.602674216E0,-6.030598953E0,7.549571428E0
1.559734992E1,1.506318766E0,4.934658247E0,-6.653825018E0,8.419812089E0
1.560734992E1,7.507627554E-1,5.970099567E0,-6.449492313E0,8.820526325E0
1.561734892E1,-2.756579918E-1,6.193662595E0,-6.960371731E0,9.321170436E0
1.562734792E1,-2.775620353E0,4.562099978E0,-1.192331004E1,1.306453776E1
1.563734692E1,-5.517180675E0,5.296951729E-1,-1.384224225E1,1.491065157E1
1.564734592E1,-5.216338506E0,-1.530998109E0,-1.074833778E1,1.204495362E1
1.565734592E1,-4.184171627E0,-1.765063321E0,-7.890602345E0,9.104084034E0
1.566734492E1,-3.744049950E0,-2.674226418E0,-5.686075745E0,7.314427820E0
1.567734392E1,-4.168944892E0,-3.852588306E0,-4.337410484E0,7.143925243E0
1.568734292E1,-4.450019087E0,-4.327187505E0,-2.440777502E0,6.669678882E0
1.569734192E1,-4.619235461E0,-4.127934276E0,5.760073136E-1,6.221652679E0
1.570734192E1,-5.653279881E0,-3.998679235E0,3.239579081E0,7.644859820E0
1.571734092E1,-6.790449890E0,-3.687144848E0,5.161572315E0,9.292312715E0
1.572733992E1,-7.271179309E0,-3.063420015E0,5.933455651E0,9.872207793E0
1.573733892E1,-7.444755660E0,-2.218200899E0,5.850509389E0,9.724878518E0
1.574733792E1,-7.659946645E0,-1.272640640E0,5.532213281E0,9.534137643E0
1.575733792E1,-7.170325364E0,-1.257163060E-1,5.056416573E0,8.774777432E0
1.576733692E1,-6.636651746E0,8.842036718E-1,5.204187407E0,8.480007612E0
1.577733592E1,-6.123411223E0,1.837752982E0,5.021663647E0,8.129612956E0
1.578733492E1,-5.320209614E0,2.760470510E0,3.916038197E0,7.159621703E0
1.579733392E1,-4.517245987E0,3.702781472E0,2.457663091E0,6.336892756E0
1.580733392E1,-3.293604138E0,4.194332333E0,1.300141264E0,5.489136475E0
1.581733292E1,-2.710270994E0,4.288617516E0,9.528998311E-1,5.161959623E0
1.582733192E1,-2.916525386E0,3.582358650E0,9.837220397E-1,4.723041698E0
1.583733092E1,-2.791621843E0,2.662736639E0,7.313364047E-1,3.926598001E0
1.584732992E1,-2.407356133E0,1.982543491E0,1.486607802E-1,3.122169481E0
1.585732992E1,-2.032826475E0,1.373385826E0,-4.753985131E-1,2.498914935E0
1.586732892E1,-1.699281560E0,7.363334352E-1,-1.036666458E0,2.122362385E0
1.587732792E1,-1.436777538E0,-2.340874314E-2,-1.903911304E0,2.385320925E0
1.588732692E1,-1.126111681E0,-1.135280188E0,-3.447517179E0,3.800310951E0
1.589732692E1,-6.255553034E-1,-2.247969659E0,-4.834200743E0,5.367884486E0
1.590732592E1,3.330595232E-1,-2.445497375E0,-5.465355633E0,5.996790662E0
1.591732492E1,1.439826568E0,-1.800487508E0,-5.363807623E0,5.838260703E0
1.592732392E1,2.218096527E0,-1.147045956E0,-4.890052178E0,5.490744661E0
1.593732292E1,2.569343741E0,-9.307165182E-1,-4.116871344E0,4.941294381E0
1.594732292E1,2.715934022E0,-1.001356730E0,-3.391047109E0,4.458499009E0
1.595732192E1,2.724893711E0,-1.248599812E0,-2.907075409E0,4.175540044E0
1.596732092E1,2.824875836E0,-1.550276379E0,-2.540899376E0,4.103589889E0
1.597731992E1,3.081346993E0,-1.842376961E0,-2.041858231E0,4.130161885E0
1.598731892E1,3.413311260E0,-2.027520273E0,-1.709645311E0,4.322547780E0
1.599731892E1,3.758948656E0,-2.214513060E0,-1.237400933E0,4.534856575E0
1.600731792E1,4.237687683E0,-2.325714823E0,-4.513711345E-1,4.854964700E0
1.601731692E1,4.561329023E0,-2.229135193E0,-1.641816294E-1,5.079539523E0
1.602731592E1,4.701457254E0,-2.162411445E0,-2.985648246E-1,5.183518547E0
1.603731492E1,4.860985084E0,-2.190244777E0,-6.633034658E-1,5.372738562E0
1.604731492E1,5.024296063E0,-2.417947049E0,-1.103818660E0,5.684050888E0
1.605731392E1,5.243790014E0,-3.114334645E0,-1.293648808E0,6.234576267E0
1.606731292E1,5.866638933E0,-4.194375603E0,-1.113094975E0,7.297206280E0
1.607731192E1,7.230484443E0,-4.820985451E0,-9.645258500E-1,8.743690074E0
1.608731075E1,8.687591287E0,-4.274251492E0,-8.834429491E-1,9.722342292E0
1.609731075E1,9.807752330E0,-3.968912230E0,-3.973767757E-2,1.058044655E1
1.610730975E1,1.035458394E1,-4.125029379E0,6.846531120E-1,1.116700612E1
1.611730875E1,1.053967170E1,-4.412710635E0,1.451438554E0,1.151795853E1
1.612730775E1,1.033716157E1,-4.190324652E0,1.308965151E0,1.123072214E1
1.613730675E1,9.863689134E0,-3.302239598E0,5.336372195E-1,1.041546535E1
1.614730675E1,8.924778913E0,-2.315436003E0,-2.771691316E-1,9.224410293E0
1.615730575E1,7.671872626E0,-1.585422823E0,-8.582718551E-1,7.880851838E0
1.616730475E1,6.499410578E0,-1.014700661E0,-1.049486917E0,6.661334557E0
1.617730375E1,5.530608805E0,-5.086937284E-1,-8.169772102E-1,5.613720231E0
1.618730275E1,4.727924091E0,-7.787438750E-2,-6.937833931E-1,4.779190938E0
1.619730275E1,4.070478658E0,4.002992141E-1,-6.985703623E-1,4.149341697E0
1.620730175E1,3.568423273E0,9.932752937E-1,-5.977246034E-1,3.752001488E0
1.621730075E1,3.161724282E0,1.595947811E0,-4.537375758E-1,3.570634066E0
1.622729975E1,2.833797810E0,1.842566995E0,-2.801787666E-1,3.391749298E0
1.623729975E1,2.613754513E0,1.506645625E0,-6.933920681E-2,3.017698067E0
1.624729875E1,2.379569287E0,3.786405426E-1,6.979412019E-2,2.410516516E0
1.625729775E1,2.013211260E0,-1.403324155E0,3.216073859E-1,2.475029206E0
1.626729675E1,1.442814934E0,-3.512040035E0,8.969155186E-1,3.901358428E0
1.627729575E1,6.945426540E-1,-5.833720863E0,1.514238235E0,6.066927232E0
1.628729575E1,-1.421713575E-1,-8.417391452E0,2.159203663E0,8.691078875E0
1.629729475E1,-1.163300923E0,-1.131650939E1,3.524860640E0,1.190971436E1
1.630729375E1,-1.799966521E0,-1.381024746E1,3.811257262E0,1.443913073E1
1.631729275E1,-2.769623741E0,-1.579159987E1,3.675355107E0,1.644851596E1
1.632729175E1,-4.240352259E0,-1.618307447E1,3.408574723E0,1.707310365E1
1.633729175E1,-5.344267398E0,-1.386532238E1,2.650799548E0,1.509420740E1
1.634729075E1,-5.103682541E0,-9.525678554E0,7.378771001E-1,1.083192458E1
1.635728975E1,-5.341809229E0,-5.566937556E0,-1.753351348E0,7.912013684E0
1.636728875E1,-6.245533830E0,-2.863258129E0,-4.854828551E0,8.412746293E0
1.637728775E1,-6.885523862E0,-8.735517991E-1,-8.460827494E0,1.094345163E1
1.638728775E1,-8.023354021E0,1.636765469E0,-1.665377065E1,1.855805183E1
1.639728675E1,-9.266193742E0,3.729906705E0,-1.877236189E1,2.126443325E1
1.640728575E1,-8.657237806E0,3.359533541E0,-6.588974719E0,1.138634357E1
1.641728475E1,-8.281329083E0,3.207183752E0,-2.707075783E0,9.284109989E0
1.642728375E1,-8.246036459E0,3.288743055E0,-9.669908899E-1,8.930174665E0
1.643728375E1,-8.245618967E0,3.574815157E0,-4.885816455E-2,8.987320106E0
1.644728275E1,-8.024555039E0,4.211849422E0,4.650944035E-1,9.074660982E0
1.645728175E1,-7.622246137E0,4.610621343E0,1.598446911E0,9.050497107E0
1.646728075E1,-7.204546194E0,4.600254815E0,2.052689175E0,8.790981917E0
1.647727975E1,-6.856945596E0,4.393817697E0,1.896521154E0,8.361825718E0
1.648727975E1,-6.498664473E0,4.259238181E0,1.675586303E0,7.948669026E0
1.649727875E1,-6.366284096E0,4.029173634E0,1.455603526E0,7.673499527E0
1.650727775E1,-6.364053383E0,3.492989221E0,1.198241106E0,7.357848253E0
1.651727675E1,-6.342549663E0,2.728689723E0,8.344970763E-1,6.954859394E0
1.652727575E1,-6.287905093E0,1.973700162E0,4.064393753E-1,6.602911158E0
1.653727575E1,-6.146270328E0,1.477301373E0,7.271188080E-2,6.321735941E0
1.654727475E1,-5.917430187E0,1.201795190E0,-3.875821048E-1,6.050662079E0
