"Time (s)","Linear Acceleration x (m/s^2)","Linear Acceleration y (m/s^2)","Linear Acceleration z (m/s^2)","Absolute acceleration (m/s^2)"
6.462208345E-3,-1.849271412E0,-6.299809147E-1,-1.612323523E0,2.533035304E0
1.646220835E-2,-1.747691536E0,-5.460711774E-1,-1.901873549E0,2.640026976E0
2.646120836E-2,-1.520384535E0,-2.345426372E-1,-1.947195902E0,2.481562263E0
3.646120836E-2,-7.467461568E-1,6.098132832E-1,-2.746436607E0,2.910741504E0
4.646020837E-2,-1.001424266E0,9.983331352E-1,-2.299364346E0,2.699369557E0
5.646020838E-2,-2.352650314E0,7.100732973E-1,-2.594826491E0,3.573834371E0
6.645920838E-2,-3.743530717E0,9.952706560E-2,-3.194719827E0,4.922414310E0
7.645920839E-2,-5.123473611E0,-2.116997583E-1,-3.236913920E0,6.064025920E0
8.645820839E-2,-5.282902624E0,-3.561617991E-1,-3.365552664E0,6.273982475E0
9.645820840E-2,-4.894712409E0,-7.945892447E-1,-3.854283414E0,6.280532005E0
1.064572084E-1,-4.661967790E0,-1.481327474E0,-3.462877815E0,5.993312734E0
1.164572084E-1,-1.771003215E0,-2.076185480E0,-9.939687735E-1,2.904302404E0
1.264562084E-1,1.209470684E0,-2.244482964E0,1.084672537E0,2.770746763E0
1.364562083E-1,1.948893203E0,-2.038806277E0,3.730425938E0,4.676643393E0
1.464552083E-1,1.665967926E0,-2.139878469E0,7.256951864E0,7.747120714E0
1.564552083E-1,1.373113931E0,-2.900406367E0,7.953424830E0,8.576407493E0
1.664552083E-1,1.477531608E0,-2.875953019E0,3.038682784E0,4.437093472E0
1.764542083E-1,8.718556680E-1,-1.970492964E0,-1.047352098E0,2.395813274E0
1.864542083E-1,1.269542785E0,-7.411003777E-1,-1.946446289E0,2.439184661E0
1.964532083E-1,2.124377939E0,4.357972218E-1,3.381772256E-1,2.194826800E0
2.064532083E-1,3.257713636E0,1.284571883E0,1.898099172E0,3.983165013E0
2.164522083E-1,4.211022626E0,2.090816675E0,2.099105980E0,5.148832085E0
2.264522084E-1,3.596708302E0,4.418722450E0,-6.412296420E-1,5.733462667E0
2.364512084E-1,2.440937570E0,6.302081083E0,-2.982069458E0,7.386957455E0
2.464512084E-1,1.110016270E0,6.038012638E0,-1.874744807E0,6.419065417E0
2.564502084E-1,-1.019998473E1,-3.016280347E-1,9.953849691E-1,1.025287565E1
2.664502084E-1,-5.963510925E0,-5.041849989E0,4.478266109E0,9.002143145E0
2.764492084E-1,-1.252630298E0,-4.694899601E0,5.942190807E0,7.675988309E0
2.864492084E-1,-1.698250988E0,-2.157814949E0,6.000700386E0,6.599138345E0
2.964482084E-1,-7.451130295E-1,3.227553113E0,1.960290742E0,3.849030048E0
3.064482084E-1,7.844574818E-1,-1.479734692E0,-5.242297804E-1,1.754937367E0
3.164472084E-1,8.978405482E-1,-4.081269110E0,-1.756726361E0,4.533096370E0
3.264472084E-1,-1.941035861E-1,-1.458814816E0,-4.839022942E0,5.057861199E0
3.364462084E-1,-7.092538100E-1,-1.572744597E0,-3.159848202E0,3.600167663E0
3.464462083E-1,-1.318693602E0,-1.958017344E0,-9.524395090E-1,2.545569829E0
3.564462083E-1,-2.664711828E0,-1.690731761E0,-9.831110787E-1,3.305415316E0
3.664452083E-1,-3.808890602E0,-1.488459323E0,-3.088086494E0,5.124396254E0
3.764452083E-1,2.295986994E0,9.665704751E-1,-3.079788126E0,3.961175288E0
3.864442083E-1,-4.960530422E0,-2.967937322E0,-2.820023232E0,6.431799518E0
3.964442083E-1,-9.001554608E0,-6.306337856E0,-4.299361190E0,1.180179601E1
4.064432083E-1,-7.749395596E0,-5.428385442E0,-5.294627461E0,1.084221290E1
4.164432083E-1,-9.272532123E-1,-3.415007830E0,-3.981562096E0,5.326810840E0
4.264422084E-1,-1.331235588E-2,-8.339012450E-1,-8.769950489E0,8.809517586E0
4.364422084E-1,-4.199475544E0,6.901483253E-1,-9.038093859E0,9.989946955E0
4.464412084E-1,-2.367234732E0,8.037565094E-1,-8.157836473E0,8.532298678E0
4.564412084E-1,-1.989754862E0,-6.873032894E-1,-7.592527079E0,7.878957905E0
4.664402084E-1,-2.310931892E0,-3.150570133E0,-5.830777960E0,7.018865292E0
4.764402084E-1,-1.059744102E0,-4.142553777E0,-6.689410588E0,7.939270960E0
4.864392084E-1,3.197137651E0,-3.017638071E0,-8.004596738E0,9.132436566E0
4.964392084E-1,7.218905786E0,-6.831259654E-1,-4.958755792E0,8.784561506E0
5.064382084E-1,1.070005147E1,7.129703003E-1,-1.429599203E0,1.081864973E1
5.164382084E-1,1.292378033E1,4.303351915E-1,2.023824833E0,1.308835946E1
5.264372084E-1,1.489171221E1,-8.283867359E-2,7.070124553E0,1.648504219E1
5.364372084E-1,1.448980969E1,-2.496714306E-1,9.687638242E0,1.743178865E1
5.464372083E-1,1.201722801E1,-3.987605193E-1,1.005263138E1,1.567252937E1
5.564362083E-1,6.054873084E0,2.648332608E-1,8.052738034E0,1.007860182E1
5.664362083E-1,5.586666062E0,2.243319953E0,4.975854220E0,7.810406348E0
5.764352083E-1,6.974695655E0,4.377430582E0,1.843546404E0,8.438420547E0
5.864352083E-1,6.758242257E0,5.462029737E0,1.625830007E-1,8.691032187E0
5.964342083E-1,5.697989447E0,4.898337975E0,1.309542418E-2,7.514051513E0
6.064342083E-1,6.273865929E0,5.817171489E0,6.780150604E-1,8.582574337E0
6.164332083E-1,7.170323026E0,6.824383621E0,-1.890942764E-1,9.900580829E0
6.264332084E-1,6.557902615E0,6.895165336E0,-1.820484985E0,9.688320665E0
6.364322084E-1,5.309027984E0,5.737741742E0,-3.422172423E0,8.533388689E0
6.464322084E-1,1.723681991E0,3.554037661E0,-3.869744622E0,5.529664252E0
6.564312084E-1,-2.752965608E0,9.288477480E-2,-3.142622305E0,4.178937924E0
6.664312084E-1,-5.640116045E0,-2.971719886E0,-2.606304576E0,6.887296394E0
6.764302084E-1,-7.220327829E0,-4.959435824E0,-4.729955413E0,9.954979451E0
6.864302917E-1,-5.556641779E0,-6.331568592E0,-4.847939361E0,9.719441586E0
6.964292917E-1,-2.652925011E0,-3.055944642E0,-6.955559472E0,8.047149579E0
7.064292917E-1,-1.352890166E0,2.184416272E0,-9.111878704E0,9.467223445E0
7.164282918E-1,-3.940005934E-1,5.228641047E0,-7.291237598E0,8.980872418E0
7.264282916E-1,1.299888080E0,4.752993151E0,-2.746586881E0,5.641311231E0
7.364282917E-1,-7.999797928E-1,3.581848773E0,-9.855750954E-1,3.800127178E0
7.464272917E-1,-3.388721087E0,2.432679693E0,-6.198902285E-1,4.217300676E0
7.564272917E-1,-5.278234792E0,7.503392708E-1,-1.294975834E0,5.486322443E0
7.664262917E-1,-5.953875298E0,-4.781671697E-1,-3.602660183E0,6.975416496E0
7.764262917E-1,-7.883172289E0,-1.087969782E0,-7.062577552E0,1.063992882E1
7.864252917E-1,-8.229282432E0,-1.400180692E0,-6.147394162E0,1.036687273E1
7.964252917E-1,-6.204286986E0,-1.503646004E0,-1.955655069E0,6.676729368E0
8.064242917E-1,3.262477362E-1,1.259022474E0,2.818106514E-1,1.330786391E0
8.164242917E-1,4.577746543E0,5.590619949E0,-4.449286723E-1,7.239389225E0
8.264232917E-1,5.138615561E0,6.093999728E0,-6.034086818E-1,7.994141893E0
8.364232917E-1,2.341964235E0,2.509235533E0,-2.144713970E0,4.047327199E0
8.464222917E-1,-2.085234046E-2,-6.727397025E-2,1.400789972E0,1.402559501E0
8.564222917E-1,-2.057617062E0,-1.174528454E0,6.723036171E0,7.128290147E0
8.664212917E-1,-3.639766029E0,-1.924599338E0,7.242588764E0,8.331090646E0
8.764212917E-1,-4.164281738E0,-2.340875484E0,6.321999038E0,7.923926569E0
8.864202917E-1,-5.808910543E-1,5.482156438E-1,2.302762163E-1,8.312652674E-1
8.964202917E-1,3.036486570E0,5.619856612E0,-7.087935172E0,9.541586034E0
9.064192917E-1,8.554886389E0,6.244895314E0,-9.289960919E0,1.408858305E1
9.164192916E-1,1.130933368E1,4.339550273E0,-5.684746088E0,1.338092160E1
9.264192916E-1,9.067787189E0,1.582959391E0,1.456732038E0,9.319473868E0
9.364182916E-1,7.452269917E0,-1.198312004E0,3.327239953E0,8.248806234E0
9.464182917E-1,4.705523407E0,-3.622961423E0,4.700174375E0,7.573601466E0
9.564172917E-1,2.887936302E0,-4.778072151E0,5.308496472E0,7.703913574E0
9.664172917E-1,2.131611237E0,-4.469783845E0,2.764170628E0,5.671276166E0
9.764162917E-1,1.941980186E0,-4.428059869E0,-1.246259026E0,4.993211672E0
9.864162917E-1,9.149869233E-1,-2.223803117E0,-6.094016100E0,6.551300146E0
9.964152917E-1,8.362108952E-1,-6.489011890E-1,-1.089137354E1,1.094268427E1
1.006415292E0,7.250237507E-1,-1.106998083E0,-1.214635325E1,1.221822415E1
1.016414292E0,-1.166886728E0,-1.790330309E0,-9.014439533E0,9.264287741E0
1.026414292E0,-1.401041402E0,-3.539345947E0,-6.666888868E0,7.677062844E0
1.036413292E0,-1.639691416E0,-7.216655193E0,-2.927679827E0,7.958643684E0
1.046413292E0,-3.893919935E0,-1.115684648E1,1.213707869E0,1.187901186E1
1.056412292E0,-2.655566198E0,-1.256830236E1,-5.262574486E-1,1.285656264E1
1.066412292E0,-2.584423710E0,-1.319885908E1,1.501334015E-1,1.345034078E1
1.076411292E0,-9.103027189E-1,-1.329531943E1,3.788799276E0,1.385457216E1
1.086411292E0,2.348165792E-1,-1.109202074E1,5.536901579E0,1.239940894E1
1.096410292E0,-5.011882424E-1,-8.318187007E0,6.013991107E0,1.027674626E1
1.106410292E0,-1.535929066E-1,-6.297868164E0,3.227613924E0,7.078433855E0
1.116410292E0,2.440934207E0,-4.707634252E0,-2.174763688E-1,5.307285184E0
1.126409292E0,6.138900497E0,-2.909823892E0,-3.573567946E0,7.676168462E0
1.136409292E0,1.187807130E1,-8.340480101E-1,-7.136223818E0,1.388199929E1
1.146408292E0,1.797023149E1,1.840331604E0,-8.706302962E0,2.005282403E1
1.156408292E0,2.095166828E1,4.695343990E0,-1.045449999E1,2.388127361E1
1.166407292E0,2.073008454E1,7.619633017E0,-7.428277037E0,2.330181349E1
1.176407292E0,1.402384274E1,7.843658559E0,-3.519607501E0,1.644927906E1
1.186406292E0,7.023957278E0,7.384391930E0,1.168846714E-1,1.019209900E1
1.196406292E0,2.932219605E0,6.480547460E0,9.350272317E-1,7.174237459E0
1.206405292E0,9.843156052E-1,5.064706171E0,8.742338768E-1,5.233011626E0
1.216405292E0,7.374590242E-1,3.398206733E0,-1.489759451E-1,3.480495459E0
1.226404292E0,2.020844507E-1,2.598991171E0,-2.949385276E-1,2.623467546E0
1.236404292E0,-9.896289700E-1,2.032866675E0,3.798202184E-1,2.292635125E0
1.246403292E0,-2.474957401E0,1.692216662E0,1.252365712E0,3.249220098E0
1.256403292E0,-3.530417833E0,1.585134117E0,2.107866279E0,4.406767579E0
1.266402292E0,-4.556238145E0,1.567347471E0,2.769309453E0,5.557423771E0
1.276402292E0,-5.568788785E0,1.321537688E0,2.831551017E0,6.385573706E0
1.286401292E0,-5.892147996E0,1.339437623E0,2.115201026E0,6.401997855E0
1.296401292E0,-5.771949708E0,1.384715099E0,1.390344506E0,6.096383943E0
1.306400292E0,-5.594723525E0,1.365127511E0,7.058577472E-1,5.801959979E0
1.316400292E0,-5.637981226E0,1.750828859E0,8.367406529E-1,5.962580727E0
1.326399292E0,-6.072693059E0,2.020689410E0,1.588706619E0,6.594298704E0
1.336399292E0,-6.421769494E0,2.112637607E0,2.101991289E0,7.079599457E0
1.346399292E0,-6.749633986E0,1.675581480E0,1.888968160E0,7.206478540E0
1.356398292E0,-6.662689397E0,1.097194642E0,7.700964278E-1,6.796198540E0
1.366398292E0,-5.821565672E0,1.296266899E0,1.046479109E0,6.055250058E0
1.376397292E0,-4.780019274E0,1.588025565E0,1.783572390E0,5.343364102E0
1.386397292E0,-4.161155816E0,1.381081347E0,2.202128073E0,4.906319544E0
1.396396292E0,-3.281781360E0,4.110259312E-1,2.740656342E0,4.295372905E0
1.406396292E0,-1.474063770E0,-1.088464749E0,2.494583873E0,3.095249296E0
1.416395292E0,1.349589998E-1,-2.090945606E0,1.000869657E0,2.322069665E0
1.426395292E0,7.439973807E-1,-1.965727483E0,1.666456461E-5,2.101812703E0
1.436394292E0,9.076966149E-1,-1.510828431E0,-1.502896391E0,2.316292998E0
1.446394292E0,-7.316550779E-1,-1.387608594E-1,-2.352216159E0,2.467284861E0
1.456393292E0,-3.654383483E0,2.040018404E0,-1.906770300E0,4.599126733E0
1.466393292E0,-4.096476840E0,3.449440621E0,-1.551408985E0,5.575538802E0
1.476392292E0,-2.707904626E0,3.131591533E0,-1.960518783E0,4.580747416E0
1.486392292E0,-8.515791321E-1,2.710376828E0,-2.158781202E0,3.568145996E0
1.496391292E0,1.223877200E0,3.101265534E0,-3.087950546E0,4.544354947E0
1.506391292E0,3.539258239E0,4.219860400E0,-4.798808424E0,7.304938943E0
1.516390292E0,6.710158848E0,4.780163700E0,-5.705390852E0,1.002136126E1
1.526390292E0,8.562395384E0,4.090825799E0,-5.711988266E0,1.107593248E1
1.536389292E0,7.788853192E0,2.675598174E0,-4.859764186E0,9.562550265E0
1.546389292E0,5.820683327E0,1.103058376E0,-4.473539512E0,7.423587269E0
1.556389292E0,4.421907136E0,8.035435246E-1,-5.019755116E0,6.737721153E0
1.566388292E0,4.865420197E0,8.916301473E-1,-7.767207384E0,9.208519347E0
1.576388292E0,5.925444381E0,-9.226040181E-2,-1.241545147E1,1.375728310E1
1.586387292E0,5.322384194E0,-1.273605722E0,-1.091056527E1,1.220615744E1
1.596387292E0,3.427327328E0,-1.754806135E0,-5.756880848E0,6.925864155E0
1.606386292E0,1.107218231E0,-1.504202951E0,-1.834072452E0,2.617705195E0
1.616386292E0,-1.139894811E0,-7.220551193E-1,7.193420112E-1,1.529109775E0
1.626385292E0,-3.225920570E0,-8.614031853E-1,1.302642703E-2,3.338974193E0
1.636385292E0,-4.782247063E0,-1.979091148E0,-1.564596502E0,5.406907708E0
1.646384292E0,-5.481013892E0,-2.368019136E0,-7.244805443E-1,6.014474205E0
1.656384292E0,-5.040808015E0,-1.815556367E0,7.054990205E-1,5.404046561E0
1.666383292E0,-3.741164349E0,-1.222593298E0,1.044434338E0,4.072086461E0
1.676383292E0,-1.706754302E0,-7.741659437E-1,7.674493933E-1,2.025172024E0
1.686381917E0,9.311585677E-1,2.570004769E-2,7.526956987E-1,1.197609112E0
1.696381917E0,3.446100984E0,1.039924161E0,9.542726111E-1,3.723934810E0
1.706380917E0,4.546533521E0,1.059589444E0,1.361431779E0,4.862837992E0
1.716380917E0,4.256042678E0,4.455465037E-1,1.922873532E0,4.691466038E0
1.726379917E0,3.924867493E0,-2.855329889E-1,2.549255632E0,4.688797095E0
1.736379917E0,3.676436257E0,-1.116676979E0,3.133155663E0,4.957803489E0
1.746378917E0,3.524526764E0,-1.779561200E0,3.448359471E0,5.242166538E0
1.756378917E0,3.289922438E0,-2.165785143E0,3.348748644E0,5.169945107E0
1.766377917E0,2.940671756E0,-2.247473377E0,3.166480699E0,4.870861009E0
1.776377917E0,2.543310767E0,-2.189049898E0,3.309284908E0,4.712932815E0
1.786376917E0,2.049311092E0,-1.934289928E0,3.678112361E0,4.633536880E0
1.796376917E0,1.367539195E0,-1.444329363E0,4.012413175E0,4.478360219E0
1.806376917E0,5.821832889E-1,-7.089238809E-1,4.245018630E0,4.343005137E0
1.816375917E0,-3.369229978E-1,1.021249835E-1,4.351013447E0,4.365233629E0
1.826375917E0,-1.376656759E0,6.219803157E-1,4.392136622E0,4.644664407E0
1.836374917E0,-2.360618607E0,9.670886846E-1,4.518769771E0,5.189129116E0
1.846374917E0,-3.105434598E0,1.305950619E0,4.808922353E0,5.871538577E0
1.856373917E0,-3.763325297E0,1.295407358E0,5.033179153E0,6.416665014E0
1.866373917E0,-4.358910989E0,1.044607123E0,5.010818816E0,6.723065837E0
1.876372917E0,-4.676828197E0,8.148054081E-1,4.780184458E0,6.736972115E0
1.886372917E0,-4.635034053E0,7.431800862E-1,4.420528070E0,6.448017194E0
1.896371917E0,-4.327649435E0,8.918503681E-1,4.102759966E0,6.029642282E0
1.906371917E0,-4.081304485E0,9.157985169E-1,3.858559775E0,5.690713203E0
1.916370917E0,-3.866343296E0,1.098276961E0,3.534626367E0,5.352420604E0
1.926370917E0,-3.784660617E0,1.003649424E0,2.810076241E0,4.819491325E0
1.936369917E0,-3.591781438E0,7.814480661E-1,1.865651218E0,4.122160774E0
1.946369917E0,-3.326604361E0,4.704875828E-1,8.837741938E-1,3.474005176E0
1.956368917E0,-3.113633564E0,7.612168461E-2,5.802469835E-2,3.115104388E0
1.966368917E0,-2.739107122E0,-1.570636676E-1,-5.144918275E-1,2.791429502E0
1.976367917E0,-2.048187842E0,5.505124301E-2,-1.214687716E0,2.381925759E0
1.986367917E0,-1.221716654E0,7.159697758E-1,-2.552606671E0,2.919076073E0
1.996366917E0,-5.251501322E-1,1.282902942E0,-3.603689585E0,3.861113990E0
2.006366917E0,1.176459789E-2,1.585888261E0,-3.996857243E0,4.300005558E0
2.016365917E0,6.472575366E-1,1.592868521E0,-3.507834425E0,3.906542563E0
2.026365917E0,1.178119814E0,1.208973963E0,-2.498861696E0,3.015608415E0
2.036364917E0,1.383175235E0,2.826329161E-1,-1.622147138E0,2.150445636E0
2.046364917E0,1.443182285E0,-1.152880015E0,-1.368329154E0,2.298745769E0
2.056364917E0,1.435887299E0,-2.886953093E0,-2.622002011E0,4.155859122E0
2.066363917E0,1.258484530E0,-4.630152213E0,-5.176071070E0,7.057889526E0
2.076363917E0,7.128592032E-1,-6.175831511E0,-7.010350807E0,9.369849600E0
2.086362917E0,3.660017860E-1,-7.181223405E0,-8.020040989E0,1.077148942E1
2.096362917E0,5.418766773E-1,-7.623301560E0,-9.320756450E0,1.205341685E1
2.106361917E0,8.207496876E-1,-7.833103166E0,-1.060153174E1,1.320695311E1
2.116361917E0,1.006820369E0,-7.245378470E0,-1.092926583E1,1.315135157E1
2.126360917E0,5.913207328E-1,-5.180132546E0,-1.038082624E1,1.161658241E1
2.136360917E0,-1.407624782E0,-3.630871829E0,-8.922989665E0,9.735727108E0
2.146359917E0,-3.546411138E0,-3.565307584E0,-7.254838096E0,8.827294372E0
2.156359917E0,-3.121258918E0,-3.967132629E0,-6.105399460E0,7.921887470E0
2.166358917E0,-4.034765911E-1,-3.061676668E0,-5.347271698E0,6.174947124E0
2.176358917E0,3.005499251E0,-1.869968802E-2,-3.907718194E0,4.929871896E0
2.186357917E0,5.656135077E0,2.375630164E0,2.735891739E-1,6.140874019E0
2.196357917E0,6.924535316E0,2.187758248E0,5.486671658E0,9.101595540E0
2.206356917E0,4.999326113E0,-1.584693383E-1,6.237966363E0,7.995661228E0
2.216356917E0,2.793877407E0,-1.427574459E0,3.466382343E0,4.675417238E0
2.226355917E0,2.750890431E0,-1.098517866E-1,1.375384405E0,3.077523004E0
2.236355917E0,2.884310444E0,1.118344898E0,8.062023997E-1,3.196858514E0
2.246354917E0,2.603670990E0,1.515030386E0,1.139988366E0,3.220868388E0
2.256354917E0,2.504258968E0,1.596660002E0,1.884132220E0,3.517185006E0
2.266353917E0,2.863210182E0,1.734273930E0,2.673070423E0,4.283804862E0
2.276353917E0,3.497388666E0,2.031339528E0,3.384052085E0,5.273507019E0
2.286352917E0,4.021212650E0,2.336989132E0,3.963599449E0,6.110792909E0
2.296352917E0,4.411428341E0,2.600761123E0,4.458084444E0,6.789637349E0
2.306351917E0,4.669221554E0,2.955791486E0,4.975179452E0,7.435774593E0
2.316351917E0,4.476811321E0,3.219497988E0,5.334459279E0,7.672252779E0
2.326351917E0,3.585159466E0,3.222753426E0,5.237863276E0,7.118617825E0
2.336350917E0,2.089629398E0,2.874147983E0,4.924846619E0,6.073005177E0
2.346350917E0,5.197174841E-1,2.370305105E0,4.573606714E0,5.177483069E0
2.356349917E0,-1.004672686E0,1.859924747E0,4.002686040E0,4.526608311E0
2.366349917E0,-2.203962929E0,1.462707016E0,3.431487330E0,4.332674659E0
2.376348917E0,-3.083973563E0,1.238728835E0,2.898613611E0,4.409909628E0
2.386348917E0,-3.748140662E0,1.084417087E0,2.471817739E0,4.618917814E0
2.396347917E0,-4.287850946E0,6.299368414E-1,1.878820317E0,4.723605820E0
2.406347917E0,-4.886812236E0,-1.501469962E-2,1.135990333E0,5.017133973E0
2.416346917E0,-5.287642962E0,-7.976593984E-1,1.687591222E-1,5.350131610E0
2.426346917E0,-5.383851879E0,-1.731425751E0,-1.039215990E0,5.750101395E0
2.436345917E0,-5.300976952E0,-2.605164953E0,-1.798098335E0,6.174171905E0
2.446345917E0,-4.855155995E0,-3.230532269E0,-2.254431709E0,6.252306839E0
2.456344917E0,-4.130754973E0,-3.895509208E0,-2.283571601E0,6.119871558E0
2.466344917E0,-3.439522281E0,-4.296734913E0,-9.350335175E-1,5.582699358E0
2.476343917E0,-3.233564635E0,-4.259681108E0,1.429146044E0,5.535637434E0
2.486343917E0,-3.281205994E0,-3.787551481E0,3.722599440E0,6.242564023E0
2.496342917E0,-3.179947422E0,-3.035698073E0,5.381158066E0,6.948697038E0
2.506342917E0,-3.012040531E0,-2.235141306E0,6.184553218E0,7.233045232E0
2.516341917E0,-2.880615004E0,-1.350521605E0,6.224413687E0,6.990363163E0
2.526341917E0,-2.806178194E0,-5.551724051E-1,5.447701719E0,6.153072930E0
2.536340917E0,-2.874573660E0,-1.219628777E-1,3.996766611E0,4.924651461E0
2.546340917E0,-2.835370418E0,1.897980985E-1,2.258974996E0,3.630195141E0
2.556339917E0,-2.698488269E0,4.305735752E-1,6.351564315E-1,2.805468987E0
2.566339917E0,-2.339183300E0,8.045441294E-1,-3.442972139E-1,2.497520838E0
2.576338917E0,-1.577079431E0,1.269275275E0,-6.257184407E-1,2.118906043E0
2.586338917E0,-5.048427522E-1,1.672105164E0,-8.822322831E-1,1.956817744E0
2.596337917E0,5.314160085E-1,1.930487484E0,-1.999812365E0,2.829917736E0
2.606337917E0,1.615144220E0,2.360445237E0,-4.630112160E0,5.442272612E0
2.616337917E0,3.691426764E0,3.708005374E0,-1.026639974E1,1.152279910E1
2.626336917E0,6.968258455E0,5.572231625E0,-1.699958785E1,1.919875981E1
2.636336917E0,8.087573991E0,5.532012722E0,-1.324742839E1,1.647745056E1
2.646335917E0,6.346748548E0,4.037668177E0,-8.652227912E0,1.146494785E1
2.656335917E0,3.814421191E0,3.002066351E0,-9.762310694E0,1.090251904E1
2.666334917E0,5.532828408E-1,1.881291642E0,-1.251368118E1,1.266639636E1
2.676334917E0,-3.021196101E0,1.176858862E-1,-1.243073141E1,1.279314501E1
2.686333542E0,-5.085762579E0,-1.242897023E0,-1.017384182E1,1.144188933E1
2.696333542E0,-3.845470490E0,-7.026471142E-1,-6.993693259E0,8.012059764E0
2.706332542E0,1.609832025E-1,1.082602111E0,-3.131726019E0,3.317476568E0
2.716332542E0,2.159959708E0,7.250037239E-1,1.129642888E0,2.543059062E0
2.726331542E0,1.251764910E0,-7.695556334E-1,6.520085163E0,6.683609938E0
2.736331542E0,2.174494717E0,-1.442107129E0,7.890387168E0,8.310614292E0
2.746330542E0,4.815132973E0,-1.524043285E0,7.805307841E0,9.296829781E0
2.756330542E0,6.617396865E0,-1.833329564E0,7.446005210E0,1.012887122E1
2.766329542E0,6.688247577E0,-2.905091448E0,6.652212356E0,9.870366822E0
2.776329542E0,5.678818181E0,-3.895301924E0,5.719919429E0,8.952085303E0
2.786328542E0,4.271401559E0,-4.605566718E0,4.856993190E0,7.940182549E0
2.796328542E0,2.979248761E0,-4.777760787E0,4.337900773E0,7.107763673E0
2.806327542E0,2.582271350E0,-4.344539410E0,3.841677694E0,6.348356914E0
2.816327542E0,3.588112310E0,-3.381711152E0,3.436449862E0,6.009967381E0
2.826326542E0,5.311904229E0,-2.292113214E0,3.414350603E0,6.717730239E0
2.836326542E0,6.658737849E0,-1.416460656E0,4.012979186E0,7.902477616E0
2.846325542E0,7.124660949E0,-9.394904114E-1,4.651441340E0,8.560335415E0
2.856325542E0,6.401323535E0,-8.639695282E-1,4.223343001E0,7.717513360E0
2.866324542E0,5.086463075E0,-5.493811400E-1,3.257536173E0,6.065102486E0
2.876324542E0,3.407826279E0,-6.518812224E-2,2.219141132E0,4.067200119E0
2.886323542E0,1.615556449E0,1.880908942E-1,1.198168235E0,2.020150475E0
2.896323542E0,-7.783053339E-2,3.282059687E-1,3.969313275E-1,5.208946425E-1
2.906322542E0,-1.712062989E0,3.223503477E-1,-1.260519179E-1,1.746699319E0
2.916322542E0,-3.213934947E0,1.113578832E-1,-2.735754329E-1,3.227479193E0
2.926321542E0,-4.265473652E0,-8.010780461E-2,-1.738973629E-1,4.269768498E0
2.936321542E0,-4.836445490E0,-1.650304259E-1,-2.714220861E-2,4.839336392E0
2.946320542E0,-5.070269796E0,-8.246671759E-2,1.766859001E-1,5.074017587E0
2.956320542E0,-4.982570332E0,3.019396182E-1,4.729023367E-1,5.014061355E0
2.966320542E0,-5.055129601E0,6.360728364E-1,7.131907403E-1,5.144663737E0
2.976319542E0,-5.177945103E0,8.972675210E-1,7.504375041E-1,5.308423584E0
2.986319542E0,-5.251649841E0,1.327845226E0,1.017052996E0,5.511569268E0
2.996318542E0,-5.212408007E0,2.045697513E0,1.274297740E0,5.742639661E0
3.006318542E0,-5.166329024E0,2.686733027E0,1.413502403E0,5.992284956E0
3.016317542E0,-5.046115533E0,3.111517749E0,1.884473405E0,6.220616102E0
3.026317542E0,-4.869838938E0,3.357908599E0,2.511264517E0,6.426299940E0
3.036316542E0,-4.638462276E0,3.459736106E0,2.946937047E0,6.493808141E0
3.046316542E0,-4.488983470E0,3.215218411E0,2.666283560E0,6.131693897E0
3.056315542E0,-4.408573730E0,2.518478812E0,1.629868094E0,5.332422326E0
3.066315542E0,-4.131702222E0,1.832015256E0,3.576298888E-1,4.533777926E0
3.076314542E0,-3.731332256E0,1.279360844E0,-8.433719802E-1,4.033717996E0
3.086314542E0,-3.195503354E0,8.713900834E-1,-1.830861454E0,3.784523223E0
3.096313542E0,-2.561052974E0,5.621732399E-1,-2.476389384E0,3.606596106E0
3.106313542E0,-1.848866200E0,3.508444874E-1,-2.923888493E0,3.477142792E0
3.116312542E0,-1.072564123E0,2.811724278E-1,-3.290493419E0,3.472290119E0
3.126312542E0,-3.177833068E-1,1.726185769E-1,-3.876163695E0,3.892997353E0
3.136311542E0,3.888883728E-1,-1.031532164E-1,-4.567929068E0,4.585613451E0
3.146311542E0,1.001214058E0,-6.354308121E-1,-4.811810585E0,4.955776732E0
3.156310542E0,1.616534103E0,-1.291762497E0,-3.903931830E0,4.418429199E0
3.166310542E0,2.148916656E0,-2.043704343E0,-2.617789092E0,3.955678193E0
3.176309542E0,2.537671128E0,-3.061930144E0,-1.867921838E0,4.393668508E0
3.186309542E0,2.843369409E0,-4.030736887E0,-1.936202552E0,5.299100846E0
3.196308542E0,3.012595432E0,-4.651560331E0,-2.916752843E0,6.262602646E0
3.206308542E0,3.172484620E0,-4.913070327E0,-4.567290552E0,7.420448887E0
3.216307542E0,2.989649788E0,-5.114254891E0,-6.173931166E0,8.556344721E0
3.226307542E0,2.196349270E0,-5.356679868E0,-6.975869191E0,9.065358255E0
3.236306542E0,8.871021366E-1,-5.557645161E0,-6.707509475E0,8.755858227E0
3.246306542E0,-6.187617159E-1,-5.578822022E0,-6.206895429E0,8.368492820E0
3.256305542E0,-1.968640566E0,-5.560017961E0,-5.770660397E0,8.251658429E0
3.266305542E0,-1.812452665E0,-5.030566617E0,-3.771499704E0,6.543377963E0
3.276304542E0,2.120465274E0,-1.670440900E0,1.773485066E0,3.229859913E0
3.286304542E0,4.389239327E0,-6.325152442E-2,1.834927315E0,4.757770578E0
3.296303542E0,2.517613424E0,-1.313909411E0,-2.763682093E0,3.962659965E0
3.306303542E0,1.564244208E0,-1.084627075E0,-4.414554262E0,4.807448925E0
3.316303542E0,2.370638981E0,-2.835694939E-1,-3.432797399E0,4.181439802E0
3.326302542E0,2.944881166E0,5.968755877E-1,-1.648539130E0,3.427282716E0
3.336302542E0,2.785065653E0,1.762428273E0,-5.822961402E-1,3.346910949E0
3.346301542E0,2.555748380E0,2.999461416E0,-3.246681109E-1,3.953988866E0
3.356301542E0,2.730421084E0,3.363201499E0,-1.644649270E-1,4.335132331E0
3.366300542E0,3.333671890E0,2.907108738E0,3.009573591E-1,4.433421345E0
3.376300542E0,4.439191505E0,2.325044294E0,1.109885146E0,5.132650117E0
3.386299542E0,5.849177393E0,1.911776247E0,2.132811378E0,6.512806536E0
3.396299542E0,7.060211769E0,1.610154060E0,3.324676242E0,7.968228061E0
3.406298542E0,7.821347923E0,1.837600955E0,4.506782395E0,9.212021937E0
3.416298542E0,7.988979995E0,2.441203179E0,5.781236840E0,1.015903409E1
3.426297542E0,7.305589004E0,3.093330277E0,6.979064695E0,1.056634596E1
3.436297542E0,5.848298557E0,3.712228818E0,7.621107684E0,1.029876309E1
3.446296542E0,3.699542114E0,3.841723302E0,7.521482824E0,9.220528925E0
3.456296542E0,1.272538898E0,3.598219222E0,6.558287362E0,7.587995120E0
3.466295542E0,-8.955513632E-1,3.224929467E0,5.057097774E0,6.064356536E0
3.476295542E0,-2.662933105E0,2.820712326E0,3.299942812E0,5.092862978E0
3.486294542E0,-3.960598658E0,2.443682691E0,1.677051762E0,4.946759489E0
3.496294542E0,-4.844607033E0,2.011921656E0,2.885894747E-1,5.253696788E0
3.506293542E0,-5.447457306E0,1.457394674E0,-7.229626071E-1,5.685197030E0
3.516293542E0,-5.926392215E0,1.105862627E0,-1.363422171E0,6.180936567E0
3.526292542E0,-6.281935671E0,5.266231189E-1,-1.424448391E0,6.462901895E0
3.536292542E0,-6.462622236E0,-4.448050037E-2,-1.358220488E0,6.603955449E0
3.546291542E0,-6.508444526E0,-6.330276795E-1,-1.352464489E0,6.677554521E0
3.556291542E0,-6.366343153E0,-1.341446580E0,-1.206577920E0,6.617071432E0
3.566290542E0,-6.020185062E0,-2.030441835E0,-8.071239209E-1,6.404433718E0
3.576290542E0,-5.588102723E0,-2.641667951E0,-1.080632696E-1,6.181988295E0
3.586289542E0,-5.084341121E0,-3.189849681E0,9.934387234E-1,6.083797015E0
3.596289542E0,-4.645487121E0,-3.542334751E0,2.283066694E0,6.272246775E0
3.606288542E0,-4.220346596E0,-3.685598844E0,3.535385628E0,6.625248355E0
3.616288542E0,-3.810728089E0,-3.536116237E0,4.536480403E0,6.899668185E0
3.626287542E0,-3.426603443E0,-3.140794173E0,4.950527591E0,6.790723277E0
3.636287542E0,-3.145182801E0,-2.577071129E0,4.867716399E0,6.342565206E0
3.646286542E0,-2.929456796E0,-1.972087499E0,4.296428812E0,5.561487819E0
3.656286542E0,-2.710396709E0,-1.462772358E0,3.158807398E0,4.411804333E0
3.666285542E0,-2.323887568E0,-9.337224256E-1,1.797740193E0,3.082881898E0
3.676285542E0,-1.854479527E0,-5.593404101E-1,2.570620188E-1,1.953979758E0
3.686284542E0,-1.254721262E0,-3.031111079E-1,-1.480116515E0,1.963911070E0
3.696284417E0,-4.995937067E-1,-1.156031080E-2,-2.912495778E0,2.955056542E0
3.706284417E0,4.719860780E-1,3.799935883E-1,-3.749463010E0,3.798109905E0
3.716283417E0,1.970494718E0,1.169821007E0,-3.986875168E0,4.598532834E0
3.726283417E0,4.217572092E0,2.532036751E0,-4.475394833E0,6.650434826E0
3.736282417E0,6.791713473E0,3.822769553E0,-6.302885660E0,1.002333810E1
3.746282417E0,8.710308890E0,4.322486051E0,-9.313628694E0,1.346465915E1
3.756281417E0,8.234519783E0,3.664668151E0,-8.809422119E0,1.260329428E1
3.766281417E0,5.710690768E0,2.629090590E0,-6.586959769E0,9.105610654E0
3.776280417E0,3.066983893E0,1.971287600E0,-8.548032283E0,9.293073814E0
3.786280417E0,1.973801903E0,2.370504203E0,-1.416515825E1,1.449713393E1
3.796279417E0,3.830368887E0,4.426937495E0,-1.720150156E1,1.817033729E1
3.806279417E0,7.634511842E0,7.494278653E0,-1.454392216E1,1.805479591E1
3.816278417E0,9.455304390E0,7.315926297E0,-1.222428845E1,1.709850247E1
3.826278417E0,4.393233560E0,2.272814771E0,-4.568254173E0,6.733137031E0
3.836277417E0,-1.579047019E0,-1.085021762E-1,4.442421800E0,4.715959463E0
3.846277417E0,-1.656676993E0,8.130275622E-2,6.206426482E0,6.424244584E0
3.856276417E0,-1.202899729E0,-5.267553391E-1,6.785548754E0,6.911447810E0
3.866276417E0,-1.881284918E0,-1.604918609E0,8.110415554E0,8.479023360E0
3.876275417E0,-2.410823970E0,-2.463732209E0,8.750157664E0,9.404642883E0
3.886275417E0,-2.807331265E0,-3.130457758E0,8.682473804E0,9.647083806E0
3.896274417E0,-2.983752871E0,-3.956593316E0,8.299392301E0,9.666298383E0
3.906274417E0,-2.768724439E0,-4.888259129E0,7.670749961E0,9.507960733E0
3.916273417E0,-1.157804248E0,-5.104398240E0,7.181376602E0,8.886369448E0
3.926273417E0,2.449962893E0,-4.380112408E0,7.001613897E0,8.614540037E0
3.936272417E0,6.494040495E0,-3.599542155E0,6.779868184E0,1.005464461E1
3.946272417E0,9.886799669E0,-3.026816153E0,6.405480321E0,1.216308357E1
3.956271417E0,1.172656994E1,-2.846610521E0,5.841525142E0,1.340667931E1
3.966271417E0,1.094628240E1,-3.483459429E0,4.041411564E0,1.217738048E1
3.976270417E0,8.124360579E0,-4.285810268E0,1.757117540E0,9.352051460E0
3.986270417E0,5.720783647E0,-3.489174498E0,7.018760857E-1,6.737531763E0
3.996269417E0,3.400644144E0,-2.046989309E0,-1.904218867E-2,3.969245323E0
4.006269417E0,1.519655680E0,-1.006813060E0,-5.231163244E-1,1.896490604E0
4.016268417E0,5.028605461E-4,-2.786559324E-1,-1.166069287E0,1.198902400E0
4.026268417E0,-1.496987194E0,6.398944303E-2,-1.714885440E0,2.277256547E0
4.036267417E0,-3.025748743E0,3.486548513E-2,-2.019614838E0,3.638023523E0
4.046267417E0,-4.542397200E0,-2.362937321E-1,-2.217692776E0,5.060372348E0
4.056266417E0,-5.680261273E0,-4.772892103E-1,-2.095597066E0,6.073277549E0
4.066266417E0,-6.493223054E0,-6.991202930E-1,-1.796758153E0,6.773407907E0
4.076265417E0,-6.821606194E0,-8.285568899E-1,-1.265137492E0,6.987230528E0
4.086265417E0,-6.371037297E0,-5.123844910E-1,-1.289083010E-1,6.392907903E0
4.096264417E0,-5.834796166E0,-2.918798491E-2,2.776872315E-1,5.841473140E0
4.106264417E0,-5.591576554E0,4.103036539E-1,7.372286439E-1,5.654872546E0
4.116263417E0,-5.504151324E0,7.379285556E-1,1.226174571E0,5.687154335E0
4.126263417E0,-5.366939977E0,1.022467372E0,1.552522295E0,5.679771977E0
4.136262417E0,-4.993778275E0,1.551818874E0,1.827028019E0,5.539313555E0
4.146262417E0,-4.585903409E0,2.046033874E0,1.729975934E0,5.311269285E0
4.156262417E0,-4.233713331E0,2.256947766E0,1.319053499E0,4.975745564E0
4.166261417E0,-3.680442769E0,2.385290349E0,1.051470877E0,4.510084260E0
4.176261417E0,-2.799835135E0,2.584219642E0,1.104622213E0,3.967046531E0
4.186260417E0,-2.004944758E0,2.474016584E0,1.059848768E0,3.356164619E0
4.196260417E0,-1.472872108E0,1.972291129E0,9.456222403E-1,2.636946333E0
4.206259417E0,-8.866711968E-1,1.757030416E0,7.783005099E-1,2.116386869E0
4.216259417E0,-5.021612191E-1,1.507630296E0,3.742308649E-1,1.632532922E0
4.226258417E0,-2.676001632E-1,1.310832021E0,-3.205852926E-1,1.375741751E0
4.236258417E0,1.029490024E-1,1.220377641E0,-1.165141919E0,1.690406985E0
4.246257417E0,4.267526025E-1,1.007640879E0,-2.164047350E0,2.424986363E0
4.256257417E0,6.259625620E-1,6.937651205E-1,-3.368703729E0,3.495898166E0
4.266256417E0,7.586241907E-1,8.842978120E-2,-4.314732643E0,4.381808790E0
4.276256417E0,9.068283033E-1,-5.681242436E-1,-4.458511291E0,4.585130931E0
4.286255417E0,1.229634368E0,-1.254498630E0,-3.722511731E0,4.116170682E0
4.296255417E0,1.792713634E0,-2.036366234E0,-3.006783299E0,4.049858692E0
4.306254417E0,2.194806190E0,-3.001426665E0,-2.755253624E0,4.627867626E0
4.316254417E0,2.384983955E0,-3.774270115E0,-2.884832308E0,5.315592235E0
4.326253417E0,2.513952482E0,-4.340772926E0,-3.725586197E0,6.248380525E0
4.336253417E0,2.623066789E0,-4.748172414E0,-5.392463658E0,7.648809381E0
4.346252417E0,2.586758503E0,-4.810172195E0,-7.234290980E0,9.064438322E0
4.356252417E0,1.708938237E0,-4.735095701E0,-7.995576239E0,9.448324750E0
4.366251417E0,3.283147269E-1,-4.557236264E0,-6.692401439E0,8.103359177E0
4.376251417E0,4.252457750E-1,-2.954355702E0,2.868464197E0,4.139702699E0
4.386250417E0,1.261115777E0,-2.496389201E0,1.058770424E1,1.095088367E1
4.396250417E0,-5.563999915E-1,-8.338109640E0,-3.630303479E0,9.111133665E0
4.406249417E0,1.831913368E0,-5.585864993E0,-1.404490675E1,1.522554432E1
4.416249417E0,4.646105756E0,-2.482602051E-1,-1.196054394E1,1.283364886E1
4.426248417E0,3.811826781E0,-1.138695547E-1,-6.809277924E0,7.804438195E0
4.436248417E0,2.493946819E0,-5.953649595E-1,-3.044165719E0,3.980097372E0
4.446247417E0,2.180475249E0,3.590152404E-1,-1.304145584E0,2.565961799E0
4.456247417E0,2.305662966E0,1.819916928E0,8.081436753E-2,2.938487758E0
4.466246417E0,2.059543135E0,2.961055149E0,1.180715393E0,3.795214666E0
4.476246417E0,1.742362091E0,3.417010209E0,1.666158253E0,4.181849800E0
4.486245417E0,1.928716362E0,3.154930694E0,1.740606172E0,4.086960281E0
4.496245417E0,2.771188456E0,2.714849948E0,1.789371951E0,4.272206418E0
4.506244417E0,3.942770498E0,2.391414869E0,2.342868507E0,5.172362818E0
4.516244417E0,5.232361631E0,2.295745796E0,3.481911964E0,6.691170893E0
4.526243417E0,6.155862685E0,2.428440023E0,4.919214581E0,8.245643604E0
4.536243417E0,6.571244207E0,2.832154157E0,6.335242982E0,9.557073362E0
4.546242417E0,6.756544810E0,3.682424098E0,7.310881319E0,1.061414767E1
4.556242417E0,6.445291674E0,4.429342163E0,7.782427102E0,1.103299725E1
4.566241417E0,5.133025623E0,4.533911721E0,7.876496522E0,1.043760054E1
4.576241417E0,2.900185634E0,3.958267666E0,6.949906384E0,8.507652930E0
4.586240417E0,5.596539670E-1,3.275960457E0,5.820514927E0,6.702501286E0
4.596240417E0,-1.501570242E0,2.773685802E0,4.388941411E0,5.404706544E0
4.606239417E0,-2.921832027E0,2.632921101E0,2.584088080E0,4.706047931E0
4.616239417E0,-3.995037589E0,2.585197589E0,7.767907588E-1,4.821511775E0
4.626238417E0,-4.933072482E0,2.416230306E0,-6.407191070E-1,5.530270697E0
4.636238417E0,-5.801281096E0,1.758800807E0,-1.466114627E0,6.236804849E0
4.646238417E0,-6.095759740E0,1.039089398E0,-1.405578403E0,6.341422887E0
4.656237417E0,-5.982270547E0,4.423331664E-1,-1.005380638E0,6.082270115E0
4.666236417E0,-5.856575291E0,-1.970869817E-1,-1.030927123E0,5.949884717E0
4.676236417E0,-5.600272533E0,-9.611734951E-1,-1.505199755E0,5.878140287E0
4.686236417E0,-5.342236660E0,-1.748724592E0,-2.149230798E0,6.018033172E0
4.696235917E0,-4.825122941E0,-2.454124941E0,-2.565675198E0,5.990595116E0
4.706235917E0,-3.945197677E0,-2.819318057E0,-2.000650563E0,5.245544938E0
4.716234917E0,-3.409949988E0,-2.996693636E0,-3.736078441E-1,4.554943962E0
4.726234917E0,-3.394049070E0,-3.005560939E0,1.612263004E0,4.811689687E0
4.736233917E0,-3.459448423E0,-2.781309986E0,3.443772330E0,5.618099010E0
4.746233917E0,-3.469412663E0,-2.265569778E0,4.778743411E0,6.325031165E0
4.756232917E0,-3.486639730E0,-1.791902333E0,5.241520125E0,6.545311589E0
4.766232917E0,-3.503918837E0,-1.288776616E0,4.900214639E0,6.160397380E0
4.776231917E0,-3.559558017E0,-8.424484125E-1,4.012933577E0,5.429899493E0
4.786231917E0,-3.521478610E0,-5.699843891E-1,2.908320866E0,4.602610570E0
4.796230917E0,-3.214365887E0,-3.308908640E-1,1.862034861E0,3.729451789E0
4.806230917E0,-2.481819693E0,-2.408190385E-2,9.357264125E-1,2.652469198E0
4.816229917E0,-1.444794948E0,2.958750323E-1,1.078577399E-2,1.474818907E0
4.826229917E0,-2.276157331E-1,5.067613699E-1,-1.037236415E0,1.176637323E0
4.836228917E0,1.119924815E0,5.231497997E-1,-2.420141216E0,2.717535798E0
4.846228917E0,2.461891798E0,1.818596627E-1,-4.827739570E0,5.422273833E0
4.856227917E0,4.450839159E0,-2.798227443E-1,-8.316100720E0,9.436408277E0
4.866227917E0,7.854744880E0,2.202059222E-1,-1.111082305E1,1.360866991E1
4.876226917E0,1.015035707E1,1.020224160E0,-1.197289209E1,1.572961382E1
4.886226917E0,9.347436710E0,1.568065363E0,-1.009658139E1,1.384826191E1
4.896225917E0,6.606566067E0,1.998792172E0,-7.324560295E0,1.006434642E1
4.906225917E0,3.742088209E0,2.620639610E0,-5.950582731E0,7.502027124E0
4.916224917E0,2.049954286E0,3.914031433E0,-5.741151838E0,7.244499918E0
4.926224917E0,1.688509820E0,5.876120194E0,-5.317481303E0,8.102805770E0
4.936223917E0,2.265428860E0,8.296951674E0,-3.603358048E0,9.325007465E0
4.946223917E0,3.254415221E0,1.026943328E1,-2.271850272E0,1.100971307E1
4.956222917E0,3.290049323E0,8.896314667E0,-3.233268181E0,1.002112081E1
4.966222917E0,1.892833754E0,4.440083206E0,-3.827104094E0,6.159860732E0
4.976221917E0,1.050687350E0,1.540173998E0,-2.253657099E0,2.924901738E0
4.986221917E0,1.427134602E0,7.472340339E-1,-4.661140117E-1,1.677001534E0
4.996220917E0,1.241527605E0,9.302043021E-3,8.003826660E-1,1.477189810E0
5.006220917E0,-4.437756014E-1,-1.018373224E0,2.975222076E0,3.175841181E0
5.016219917E0,-2.128262537E0,-1.663533292E0,5.149661536E0,5.815140443E0
5.026219917E0,-2.908179363E0,-2.007073583E0,6.568379071E0,7.458515617E0
5.036218917E0,-2.461672527E0,-2.201555631E0,7.212553371E0,7.932692163E0
5.046218917E0,-1.403091436E0,-2.763551700E0,7.018184906E0,7.672079441E0
5.056217917E0,4.535100460E-3,-3.252873895E0,6.256994957E0,7.052034816E0
5.066217917E0,2.399295600E0,-3.022495645E0,6.091333982E0,7.210856328E0
5.076216917E0,5.316191992E0,-2.601956294E0,6.166858959E0,8.547644311E0
5.086216917E0,7.955593563E0,-2.498211778E0,6.202053934E0,1.039220881E1
5.096215917E0,9.250982210E0,-2.858674789E0,6.079465889E0,1.143296107E1
5.106215917E0,8.847878087E0,-3.353670537E0,5.321379642E0,1.085583410E1
5.116214917E0,7.278880677E0,-3.478916143E0,4.193180139E0,9.092179118E0
5.126214917E0,5.463965750E0,-3.087806997E0,3.251877237E0,7.068534454E0
5.136213917E0,3.392923481E0,-2.464968603E0,2.102551160E0,4.691345366E0
5.146213917E0,1.948630809E0,-1.450225988E0,7.310001898E-1,2.536666853E0
5.156212917E0,8.873699391E-1,-4.515683319E-1,2.394891623E-1,1.024057824E0
5.166212917E0,-5.968048364E-1,-7.917159230E-2,-5.531579297E-2,6.045692605E-1
5.176211917E0,-1.705256245E0,1.180457823E-1,-6.228535974E-1,1.819280152E0
5.186211917E0,-3.021490801E0,-1.962617934E-2,-1.304117956E0,3.290974854E0
5.196210917E0,-4.266939549E0,-2.933097857E-1,-1.876794841E0,4.670670468E0
5.206210917E0,-4.942721558E0,-3.268603782E-1,-1.968716580E0,5.330401399E0
5.216210917E0,-5.823193536E0,-4.942213581E-1,-1.284114046E0,5.983542980E0
5.226209917E0,-6.716374438E0,-7.940106627E-1,-6.854258215E-1,6.797789868E0
5.236209917E0,-7.003468634E0,-8.331410339E-1,-1.851666286E-1,7.055280545E0
5.246208917E0,-6.701801423E0,-4.369910771E-1,3.836568689E-1,6.726982690E0
5.256208917E0,-6.462052717E0,-7.907343216E-2,4.476663387E-1,6.478023084E0
5.266207917E0,-6.157617434E0,2.953720256E-1,2.885185772E-1,6.171445541E0
5.276207917E0,-5.648103926E0,6.857486609E-1,2.670739138E-1,5.695845649E0
5.286206917E0,-5.572265539E0,6.150137968E-1,2.281606754E-1,5.610743489E0
5.296206917E0,-5.404265093E0,5.302848646E-1,-5.576372258E-1,5.458776650E0
5.306205917E0,-4.674810323E0,1.056133008E0,-2.341832527E-1,4.798344535E0
5.316205917E0,-4.113165963E0,1.398396707E0,9.035235301E-1,4.437341812E0
5.326204917E0,-3.667028087E0,1.486220132E0,2.166108055E0,4.510872352E0
5.336204917E0,-3.065274167E0,1.438622919E0,4.242752249E0,5.428304364E0
5.346203917E0,-2.285886514E0,1.212029864E0,6.010909624E0,6.544106360E0
5.356203917E0,-1.426784354E0,1.027325019E0,5.826918797E0,6.086385870E0
5.366202917E0,-9.797272950E-1,5.462910327E-1,4.117206974E0,4.267281656E0
5.376202917E0,-6.680145675E-1,-1.681923077E-1,1.327220889E0,1.495341902E0
5.386201917E0,-8.402507365E-2,-6.552202018E-1,-1.345896896E0,1.499270550E0
5.396201917E0,7.623669934E-1,-8.921340311E-1,-3.322273913E0,3.523437315E0
5.406200917E0,1.743546737E0,-1.160921398E0,-4.797458594E0,5.234816394E0
5.416200917E0,2.787100484E0,-1.702539483E0,-5.613512968E0,6.494466694E0
5.426199917E0,3.811967114E0,-2.872086840E0,-5.207315083E0,7.063717609E0
5.436199917E0,5.015791873E0,-3.806945525E0,-4.654228123E0,7.830251705E0
5.446198917E0,6.064181852E0,-4.029440852E0,-4.635373192E0,8.631186462E0
5.456198917E0,6.674173914E0,-3.925903912E0,-5.642623916E0,9.581050235E0
5.466197917E0,6.264285851E0,-4.402934675E0,-7.594083023E0,1.078411832E1
5.476197917E0,4.849007648E0,-4.934740693E0,-9.713205192E0,1.192522100E1
5.486196917E0,2.735833266E0,-5.236727162E0,-1.091167273E1,1.240857352E1
5.496196917E0,7.834807044E-1,-6.007997711E0,-1.096565189E1,1.252818422E1
5.506195917E0,-3.108186883E-1,-7.518338192E0,-1.038369372E1,1.282353745E1
5.516195917E0,-2.400094914E-1,-8.429792812E0,-7.906024961E0,1.155959524E1
5.526194917E0,3.928522003E0,-3.634272569E0,2.545880034E0,5.926443063E0
5.536194917E0,7.013197816E0,2.525068039E0,7.610940546E0,1.065304314E1
5.546193917E0,3.069525678E0,2.404199660E-1,-2.415269462E0,3.913223252E0
5.556193917E0,2.216415744E0,-4.430376828E-2,-3.528876507E0,4.167424982E0
5.566192917E0,2.017610997E0,8.808602339E-1,-2.687047023E0,3.473743023E0
5.576192917E0,9.297780401E-1,1.445099734E0,-1.738677760E0,2.444545111E0
5.586191917E0,-4.441562551E-1,1.609882749E0,-1.037066846E0,1.965834400E0
5.596191917E0,-9.660120660E-1,1.792406802E0,-5.258506286E-1,2.102955144E0
5.606190917E0,-3.316874009E-1,1.694839723E0,5.583279647E-2,1.727893376E0
5.616190917E0,1.238353152E0,1.346868996E0,9.602847914E-1,2.066330443E0
5.626189917E0,3.222754887E0,1.180511471E0,1.903719077E0,3.924780595E0
5.636189917E0,4.833083925E0,1.235760789E0,2.789567424E0,5.715548212E0
5.646188917E0,5.994581274E0,1.522478423E0,3.740640439E0,7.228093531E0
5.656188917E0,6.531240481E0,2.015193319E0,4.630106020E0,8.255664001E0
5.666187917E0,6.470845175E0,2.592035615E0,5.435057116E0,8.839136370E0
5.676187917E0,5.700715418E0,3.157053818E0,6.065258324E0,8.902387524E0
5.686186917E0,4.275709788E0,3.543128803E0,6.553068722E0,8.589421725E0
5.696186917E0,2.265221284E0,3.370387142E0,6.547350730E0,7.704449269E0
5.706185917E0,3.144802147E-1,2.942841365E0,6.004646087E0,6.694399729E0
5.716185917E0,-1.370071625E0,2.541588178E0,4.979161406E0,5.755763635E0
5.726184917E0,-2.851673625E0,2.029496925E0,3.897400782E0,5.238380770E0
5.736184917E0,-3.819477863E0,1.658696036E0,2.996869930E0,5.130391122E0
5.746183917E0,-4.414016318E0,1.394011295E0,2.059805675E0,5.066518229E0
5.756183917E0,-4.703138328E0,1.209565409E0,1.287914736E0,5.024070360E0
5.766182917E0,-4.792619439E0,8.660965260E-1,3.266687357E-1,4.881192143E0
5.776182917E0,-4.969808784E0,-1.770098358E-2,-9.820233504E-1,5.065933531E0
5.786181917E0,-5.015159789E0,-1.079812697E0,-2.859571459E0,5.873242043E0
5.796181917E0,-5.096413282E0,-1.975631643E0,-3.961262902E0,6.750418692E0
5.806180917E0,-5.168042259E0,-2.666499322E0,-3.644146178E0,6.862847863E0
5.816180917E0,-5.200698958E0,-2.969438595E0,-1.980233109E0,6.307627001E0
5.826179917E0,-5.311846341E0,-3.011636488E0,2.682069580E-1,6.112086458E0
5.836179917E0,-5.484548534E0,-2.970148447E0,2.409827897E0,6.686503190E0
5.846178917E0,-5.568741422E0,-2.654444410E0,4.199673765E0,7.462855746E0
5.856178917E0,-5.524387368E0,-2.284138196E0,5.353559793E0,8.024758286E0
5.866177917E0,-5.369767106E0,-2.114224103E0,5.900687270E0,8.253632690E0
5.876177917E0,-4.990314969E0,-1.882799932E0,5.766729898E0,7.855148172E0
5.886176917E0,-4.724909266E0,-1.601564646E0,4.875797836E0,6.975900044E0
5.896176917E0,-4.406101527E0,-1.193536436E0,3.481069672E0,5.740740889E0
5.906175917E0,-3.874411284E0,-8.226113679E-1,2.001321677E0,4.437684162E0
5.916175917E0,-2.975321771E0,-3.982213330E-1,7.033475375E-1,3.083150601E0
5.926174917E0,-1.795301612E0,8.155601375E-2,-6.197113037E-1,1.901000095E0
5.936174917E0,-6.116175878E-1,5.794300544E-1,-2.304528022E0,2.453704274E0
5.946173917E0,6.612294585E-1,1.069869872E0,-3.798627276E0,4.001426636E0
5.956173917E0,2.194880449E0,1.714540308E0,-4.857713567E0,5.599511564E0
5.966172917E0,4.236781949E0,2.672677198E0,-5.648699173E0,7.549922320E0
5.976172917E0,6.790916498E0,3.771271663E0,-6.797626762E0,1.032214931E1
5.986171917E0,8.747666751E0,4.276986527E0,-7.605313185E0,1.235536628E1
5.996171917E0,8.574371066E0,3.732658112E0,-8.118754853E0,1.238413324E1
6.006171917E0,5.969046484E0,2.186593921E0,-7.516102216E0,9.843906817E0
6.016170917E0,1.929316286E0,3.657812729E-1,-7.430764443E0,7.685851773E0
6.026170917E0,-4.684356487E-1,-3.010285489E-2,-9.157496341E0,9.169518929E0
6.036169917E0,-1.142050095E0,8.958581228E-1,-1.047304502E1,1.057315053E1
6.046169917E0,2.140963858E-1,2.599522098E0,-1.222809498E1,1.250318597E1
6.056168917E0,4.538138673E0,5.086770639E0,-1.245160597E1,1.419550737E1
6.066168917E0,7.439865634E0,5.237303113E0,-9.148808548E0,1.290277654E1
6.076167917E0,2.977210422E0,1.523850473E0,-1.416437706E0,3.632106542E0
6.086167917E0,1.030784013E0,7.775402988E-1,4.696195052E0,4.870455067E0
6.096166917E0,2.810184122E0,8.333517529E-1,5.058851938E0,5.846673659E0
6.106166917E0,3.419602572E0,1.601281933E-1,5.886959177E0,6.809964107E0
6.116165917E0,2.099985986E0,-9.850934310E-1,7.300715350E0,7.660339081E0
6.126165917E0,5.617741674E-1,-2.193612773E0,7.556630437E0,7.888611461E0
6.136164917E0,-6.046266568E-1,-3.407473692E0,6.876000502E0,7.697781061E0
6.146164917E0,-1.335000610E0,-4.621491317E0,5.911117533E0,7.621136340E0
6.156163917E0,-1.682252129E0,-5.619559574E0,4.811214462E0,7.586646599E0
6.166163917E0,-2.140490234E-1,-5.618196003E0,4.924186469E0,7.473791253E0
6.176162917E0,2.679895293E0,-5.124578735E0,6.000562976E0,8.333660782E0
6.186162917E0,5.382821015E0,-5.103943326E0,6.610375528E0,9.935897754E0
6.196161917E0,7.165215483E0,-5.778067065E0,6.235187767E0,1.111773081E1
6.206161917E0,7.260320445E0,-6.711632347E0,5.013975728E0,1.108594670E1
6.216160917E0,6.705063584E0,-6.869205453E0,3.668462994E0,1.027625817E1
6.226160917E0,6.126704375E0,-5.477026091E0,2.366377822E0,8.551845724E0
6.236159917E0,5.159990643E0,-3.219148325E0,1.021106286E0,6.166934199E0
6.246159917E0,3.442738835E0,-1.586632173E0,-5.276387072E-1,3.827303874E0
6.256158917E0,1.353538622E0,-7.182291399E-1,-1.993782424E0,2.514575163E0
6.266158917E0,-1.091327253E0,-1.482158071E-1,-3.130930213E0,3.318988866E0
6.276157917E0,-3.512661594E0,-3.310839683E-2,-3.579353766E0,5.015143170E0
6.286157917E0,-5.177365059E0,-2.634623811E-2,-3.069371896E0,6.018874223E0
6.296156917E0,-6.164925284E0,5.611426681E-3,-1.782037203E0,6.417319678E0
6.306156917E0,-6.487302749E0,7.254859731E-2,8.064247767E-2,6.488209573E0
6.316155917E0,-6.588763635E0,2.988470259E-1,1.587948820E0,6.784003039E0
6.326155917E0,-6.844746550E0,5.286835315E-1,2.482859913E0,7.300318826E0
6.336154917E0,-6.835385157E0,8.974476153E-1,3.049706540E0,7.538475473E0
6.346154917E0,-6.990970795E0,1.189306853E0,3.484863346E0,7.901417340E0
6.356153917E0,-7.012349385E0,1.416262582E0,3.828204832E0,8.113815122E0
6.366153917E0,-6.957371525E0,1.508209171E0,3.905916667E0,8.120092268E0
6.376152917E0,-6.680364361E0,1.656440473E0,4.273201332E0,8.101315489E0
6.386152917E0,-6.145170466E0,1.952185039E0,4.620074537E0,7.932164598E0
6.396151917E0,-5.504048413E0,2.126717117E0,4.305472115E0,7.304420906E0
6.406151917E0,-4.767246616E0,2.283156156E0,2.771653309E0,5.968375357E0
6.416150917E0,-3.826788636E0,2.363250878E0,5.666408416E-1,4.533249146E0
6.426150917E0,-2.743546913E0,2.402547821E0,-1.281434852E0,3.865405668E0
6.436149917E0,-1.573509706E0,2.446546804E0,-2.909569831E0,4.114258215E0
6.446149917E0,-3.188632876E-1,2.466646754E0,-4.234821378E0,4.911184389E0
6.456148917E0,1.013896669E0,2.367899268E0,-4.718168596E0,5.375504469E0
6.466148917E0,2.107191510E0,2.096822789E0,-4.919855436E0,5.748208363E0
6.476147917E0,3.052104483E0,1.925046065E0,-4.777354113E0,5.987007303E0
6.486147917E0,3.507339458E0,1.618181849E0,-4.456167727E0,5.897234384E0
6.496146917E0,3.419566319E0,9.996950980E-1,-4.100062938E0,5.431697727E0
6.506146917E0,3.106509317E0,2.218749368E-1,-3.667924465E0,4.811787454E0
6.516145917E0,2.742382148E0,-7.989600384E-1,-3.474240124E0,4.497704017E0
6.526145917E0,2.465946257E0,-2.154645758E0,-3.597935340E0,4.865031141E0
6.536144917E0,2.504216868E0,-3.263795909E0,-3.659504474E0,5.505945773E0
6.546144917E0,2.716041026E0,-3.363767217E0,-3.573729329E0,5.609220094E0
6.556143917E0,2.670318139E0,-2.718676074E0,-3.852202975E0,5.418603724E0
6.566143917E0,1.968119579E0,-2.525628495E0,-4.459794170E0,5.490178322E0
6.576142917E0,7.037334538E-1,-3.486274279E0,-5.046533609E0,6.173884562E0
6.586142917E0,-1.213396651E-1,-5.143831277E0,-5.535171973E0,7.557238404E0
6.596141917E0,-1.716689891E-1,-6.858793316E0,-6.370528589E0,9.362486342E0
6.606141917E0,5.678570259E-1,-7.830045657E0,-6.580409718E0,1.024372338E1
6.616140917E0,2.078503316E0,-6.960692743E0,-5.129464084E0,8.892852258E0
6.626140917E0,3.020565771E0,-5.107058723E0,-3.695914502E0,6.990397012E0
6.636139917E0,2.946482719E0,-3.294644650E0,-3.157706660E0,5.432085707E0
6.646139917E0,3.070129695E0,-1.554267396E0,-2.738157535E0,4.397607323E0
6.656138917E0,3.468774147E0,-1.643187466E-1,-2.480675101E0,4.267685988E0
6.666138917E0,3.799897292E0,1.227865878E0,-2.243723119E0,4.580520437E0
6.676137917E0,4.108321545E0,2.466902277E0,-1.364013763E0,4.982413703E0
6.686137917E0,4.155338421E0,3.216057487E0,1.420765230E-1,5.256429291E0
6.696136958E0,4.458656301E0,3.677143770E0,4.087642282E0,7.078829123E0
6.706136958E0,4.239978622E0,3.589791338E0,9.357984502E0,1.088282567E1
6.716135958E0,3.288725513E0,2.498339832E0,1.319023327E1,1.382171014E1
6.726135958E0,1.978463303E0,4.913194580E-1,1.107539243E1,1.126143993E1
6.736134958E0,3.150775078E0,9.368149448E-1,6.023975812E0,6.862455131E0
6.746134958E0,4.572898031E0,2.504535249E0,4.425407864E0,6.838737309E0
6.756133958E0,4.534536788E0,3.187220188E0,3.808276644E0,6.724832148E0
6.766133958E0,3.605178578E0,3.279132571E0,3.381681039E0,5.931761092E0
6.776132958E0,2.197676003E0,3.025756930E0,3.423559967E0,5.070083595E0
6.786132958E0,7.106115335E-1,2.737586262E0,3.302350695E0,4.347972793E0
6.796131958E0,-7.322702050E-1,2.467583477E0,2.840062809E0,3.832902899E0
6.806131958E0,-2.047455186E0,2.082548712E0,2.425459259E0,3.796305374E0
6.816130958E0,-3.139686418E0,1.797503966E0,1.983831632E0,4.126044020E0
6.826130958E0,-4.022203168E0,1.570699241E0,1.551296718E0,4.588217077E0
6.836129958E0,-4.735451211E0,1.250960918E0,1.275208737E0,5.061181553E0
6.846129958E0,-5.326025255E0,6.888399377E-1,9.427443869E-1,5.452505154E0
6.856128958E0,-5.806313794E0,4.676413044E-2,5.859721385E-1,5.835994355E0
6.866128958E0,-5.963115653E0,-4.428135151E-1,1.921207952E-1,5.982620036E0
6.876127958E0,-5.712792842E0,-5.643927699E-1,-6.279323427E-1,5.774845477E0
6.886127958E0,-5.254308570E0,-8.449518248E-1,-1.996352860E0,5.683935861E0
6.896126958E0,-4.872305878E0,-1.538631357E0,-2.836510041E0,5.844017474E0
6.906126958E0,-4.751075556E0,-2.253863360E0,-1.881566169E0,5.585061346E0
6.916125958E0,-4.913394848E0,-2.782068370E0,4.565459204E-1,5.664784861E0
6.926125958E0,-5.090012335E0,-3.095748686E0,2.708927011E0,6.544476377E0
6.936124958E0,-4.958167562E0,-2.936148057E0,4.183317056E0,7.120711522E0
6.946124958E0,-4.686053349E0,-2.334686352E0,5.245502079E0,7.411150276E0
6.956123958E0,-4.327920746E0,-1.828072625E0,5.499540210E0,7.233096848E0
6.966123958E0,-3.966397927E0,-1.619975628E0,5.084936367E0,6.649301573E0
6.976122958E0,-3.680005982E0,-1.630969709E0,3.946577035E0,5.637195802E0
6.986122958E0,-3.169801918E0,-1.545667604E0,2.525315377E0,4.337505077E0
6.996121958E0,-2.463256538E0,-1.374510831E0,1.285706974E0,3.099992777E0
7.006121958E0,-1.549320359E0,-1.090448709E0,4.084993494E-1,1.938128912E0
7.016120958E0,-4.244710189E-1,-7.213395663E-1,-4.966494875E-1,9.732251174E-1
7.026120958E0,9.478962225E-1,-2.373046791E-1,-1.271657138E0,1.603724613E0
7.036119958E0,2.445811370E0,3.435003480E-1,-2.277532450E0,3.359633880E0
7.046119958E0,4.367180706E0,1.461459951E0,-3.826634270E0,5.987592366E0
7.056118958E0,7.124465067E0,2.896541065E0,-6.236722076E0,9.901750092E0
7.066118958E0,9.450858752E0,3.527458557E0,-1.005318219E1,1.424177542E1
7.076117958E0,9.993747582E0,2.851205263E0,-1.431633567E1,1.769072721E1
7.086117958E0,8.219142190E0,1.580737887E0,-1.461614463E1,1.684294257E1
7.096116958E0,4.328309001E0,7.320739578E-1,-8.788739347E0,9.824058754E0
7.106116958E0,1.205077817E0,1.052058084E0,-5.445401425E0,5.675511909E0
7.116115958E0,4.150944239E-1,2.478332414E0,-6.358913096E0,6.837412573E0
7.126115958E0,1.991067562E0,4.666091247E0,-8.291737711E0,9.720579810E0
7.136114958E0,4.792919401E0,5.841626299E0,-8.477394410E0,1.135618291E1
7.146114958E0,4.562244405E0,3.958009511E0,-5.403441221E0,8.104140320E0
7.156113958E0,9.060453612E-1,1.117827419E0,-6.372713694E-1,1.573712532E0
7.166113958E0,-3.713999355E-1,2.824164230E-1,2.546899496E0,2.589284455E0
7.176112958E0,2.625984550E-2,1.476258961E-1,3.856354205E0,3.859268161E0
7.186112958E0,-9.062774956E-2,8.857325725E-2,6.329216841E0,6.330485324E0
7.196111958E0,-9.228315479E-1,-3.889327385E-1,7.679982129E0,7.744999177E0
7.206111958E0,-1.870255900E0,-1.092970832E0,7.689720082E0,7.989007280E0
7.216110958E0,-2.772802872E0,-1.758270903E0,6.961834120E0,7.697212914E0
7.226110958E0,-3.541836861E0,-2.474153117E0,5.947737476E0,7.351300774E0
7.236109958E0,-3.480408937E0,-3.035139372E0,5.113113515E0,6.889792971E0
7.246109958E0,-1.390392453E0,-2.789499889E0,5.518013318E0,6.337426274E0
7.256108958E0,1.881791287E0,-2.325734704E0,6.299883699E0,6.974146183E0
7.266108958E0,5.138805011E0,-2.235436737E0,6.248806517E0,8.393573567E0
7.276107958E0,7.554825987E0,-2.640027807E0,5.791717390E0,9.878721215E0
7.286107958E0,8.961943231E0,-3.276963547E0,5.369084151E0,1.094906303E1
7.296106958E0,8.931499118E0,-3.986875168E0,4.805426010E0,1.089765889E1
7.306106958E0,7.060667852E0,-4.494772798E0,3.361909557E0,9.019891845E0
7.316105958E0,5.202412192E0,-3.655902005E0,2.417115136E0,6.802437627E0
7.326105958E0,3.645546586E0,-2.000941608E0,1.749603721E0,4.511639437E0
7.336104958E0,2.054950731E0,-5.376858316E-1,7.000275616E-1,2.236507802E0
7.346104958E0,3.283919102E-1,2.367410441E-1,-1.809900355E-1,4.434466840E-1
7.356103958E0,-1.416912500E0,5.411853902E-1,-9.919567466E-1,1.812319190E0
7.366103958E0,-3.009853672E0,6.288259435E-1,-1.440209561E0,3.395415258E0
7.376102958E0,-4.280729622E0,4.686025867E-1,-1.553149116E0,4.577827723E0
7.386102958E0,-5.133702731E0,3.032335339E-1,-1.318592153E0,5.309005516E0
7.396101958E0,-5.464407799E0,3.384950218E-1,-6.485000700E-1,5.513155523E0
7.406101958E0,-5.417610193E0,4.735681884E-1,1.116355894E-1,5.439414448E0
7.416100958E0,-5.329906052E0,3.736360569E-1,2.885834448E-1,5.350774040E0
7.426100958E0,-5.046956363E0,3.958595695E-1,3.989555240E-1,5.078153093E0
7.436099958E0,-4.599183605E0,6.150938306E-1,4.249376267E-1,4.659549574E0
7.446099958E0,-4.156775667E0,9.554037550E-1,-6.713772555E-2,4.265687255E0
7.456098958E0,-3.806286544E0,1.570295199E0,-4.837366426E-1,4.145798525E0
7.466098958E0,-3.689569688E0,2.315609811E0,-7.675301579E-1,4.423129641E0
7.476097958E0,-3.769260221E0,2.751900246E0,-4.277192934E-1,4.686493504E0
7.486097958E0,-3.934202573E0,2.917341365E0,2.585906272E-1,4.904661011E0
7.496096958E0,-3.894558451E0,2.854957421E0,9.120334947E-1,4.914282501E0
7.506096958E0,-3.729785083E0,2.491396848E0,1.394442527E0,4.697108151E0
7.516095958E0,-3.667925050E0,1.810642221E0,1.568329657E0,4.380839798E0
7.526095958E0,-3.393689466E0,1.241747899E0,1.651174324E0,3.973089816E0
7.536094958E0,-2.899787439E0,7.089934628E-1,1.685076334E0,3.427961665E0
7.546094958E0,-2.127155074E0,2.165329206E-1,1.281325801E0,2.492683498E0
7.556093958E0,-1.277673923E0,3.939210713E-2,3.104973838E-1,1.315450880E0
7.566093958E0,-5.384314978E-1,-2.313100040E-2,-1.088777282E0,1.214857807E0
7.576092958E0,1.698054814E-1,-3.691103120E-1,-2.566118417E0,2.598083920E0
7.586092958E0,9.296628499E-1,-1.062103308E0,-3.452655712E0,3.730035914E0
7.596091958E0,1.687680684E0,-2.110757435E0,-4.059375672E0,4.876688824E0
7.606091958E0,2.549533374E0,-3.537187155E0,-4.623765299E0,6.355392902E0
7.616090958E0,3.827941707E0,-4.341949678E0,-5.509928373E0,7.991556506E0
7.626090958E0,5.222648236E0,-4.167410583E0,-6.579027436E0,9.376938070E0
7.636089958E0,5.954281095E0,-3.809678222E0,-7.655769979E0,1.042007320E1
7.646089958E0,5.607147689E0,-3.461996639E0,-8.309533128E0,1.060536971E1
7.656088958E0,4.328835835E0,-2.930071631E0,-8.185883228E0,9.712508618E0
7.666088958E0,2.347907345E0,-2.822059817E0,-7.215037268E0,8.095273516E0
7.676087958E0,3.265161234E-1,-3.193592776E0,-6.122701371E0,6.913256807E0
7.686087958E0,-1.002326784E0,-4.036185030E0,-5.045875797E0,6.538831023E0
7.696086667E0,3.288859999E-1,-3.023444063E0,2.266459724E-1,3.049712839E0
7.706086667E0,4.955506495E0,1.815202318E0,9.572481422E0,1.093089222E1
7.716085667E0,5.054768828E0,1.664457736E0,3.889591241E0,6.591663483E0
7.726085667E0,1.711050836E0,-1.505761819E0,-6.485569049E0,6.874417758E0
7.736084667E0,1.864068961E0,-9.589424899E-1,-8.296307895E0,8.557046715E0
7.746084667E0,2.651058580E0,5.610488203E-1,-6.930933924E0,7.441823192E0
7.756083667E0,2.455987279E0,1.773625107E0,-4.390407600E0,5.334163330E0
7.766083667E0,1.117223402E0,2.015515063E0,-1.446114518E0,2.720613220E0
7.776082667E0,-7.599743128E-1,1.517270893E0,9.877911901E-1,1.963518107E0
7.786082667E0,-1.559286354E0,9.814205025E-1,2.470172625E0,3.081608822E0
7.796081667E0,-9.112277484E-1,4.743838750E-1,3.282204991E0,3.439221666E0
7.806081667E0,6.326968002E-1,1.717178133E-1,3.650631032E0,3.709029412E0
7.816080667E0,2.250441862E0,1.236984318E-1,3.804660434E0,4.422129678E0
7.826080667E0,3.866807565E0,4.916388622E-1,3.910286876E0,5.521254655E0
7.836079667E0,5.264721876E0,1.382831126E0,4.003490909E0,6.757030251E0
7.846079667E0,6.152003523E0,2.261252633E0,4.339117871E0,7.860556896E0
7.856078667E0,6.622261164E0,3.121226174E0,4.740701426E0,8.721848758E0
7.866078667E0,6.111816779E0,3.712489019E0,5.054753040E0,8.757134654E0
7.876077667E0,4.643483280E0,3.936078652E0,5.575083897E0,8.254466220E0
7.886077667E0,2.537582250E0,3.699253262E0,5.780020620E0,7.316586413E0
7.896076667E0,4.600443095E-1,3.266535915E0,5.167918882E0,6.131009968E0
7.906076667E0,-1.232726376E0,2.919584942E0,3.824993541E0,4.967309749E0
7.916075667E0,-2.495536677E0,2.725742726E0,2.065495162E0,4.233632834E0
7.926075667E0,-3.401327684E0,2.235034741E0,2.270975237E-1,4.076270795E0
7.936074667E0,-3.988773467E0,1.348939787E0,-1.446002251E0,4.452064109E0
7.946074667E0,-4.021973957E0,4.444659383E-1,-2.957516999E0,5.012058588E0
7.956073667E0,-3.832059901E0,-4.897950158E-1,-4.908023010E0,6.246060528E0
7.966073667E0,-3.520098667E0,-1.278589597E0,-5.812256320E0,6.914348090E0
7.976072667E0,-3.439246877E0,-1.918422631E0,-4.871950368E0,6.264556238E0
7.986072667E0,-4.023074988E0,-2.469669179E0,-2.594862744E0,5.386808970E0
7.996071667E0,-4.787558089E0,-2.916358448E0,1.850175977E-1,5.608929538E0
8.006071667E0,-5.543990158E0,-3.200416477E0,2.647103815E0,6.927167611E0
8.016070667E0,-6.128360306E0,-3.227157841E0,4.697413612E0,8.368813680E0
8.026070667E0,-6.259822086E0,-2.811536583E0,6.267076142E0,9.293349981E0
8.036069667E0,-6.280490239E0,-2.379786657E0,7.210872881E0,9.854168148E0
8.046069667E0,-6.091503552E0,-2.042962185E0,7.729558332E0,1.005117814E1
8.056068667E0,-5.791612725E0,-1.899261744E0,7.948389208E0,1.001632987E1
8.066068667E0,-5.439152505E0,-1.812980376E0,7.396186348E0,9.358143529E0
8.076067667E0,-4.943150743E0,-1.718190579E0,6.291216956E0,8.183295725E0
8.086067667E0,-4.165925390E0,-1.565666251E0,5.063426800E0,6.741256272E0
8.096066667E0,-3.049514751E0,-1.293338614E0,3.804345269E0,5.044334239E0
8.106066667E0,-1.704461024E0,-8.496152716E-1,2.536349950E0,3.171766788E0
8.116065667E0,-1.719777220E-1,-3.579478312E-1,1.135201543E0,1.202657695E0
8.126065667E0,1.424782267E0,8.283889286E-2,-8.494169779E-1,1.660835932E0
8.136064667E0,3.133867269E0,3.860882143E-1,-3.908255553E0,5.024405402E0
8.146064667E0,6.302361165E0,9.831826340E-1,-9.415590101E0,1.137276313E1
8.156063667E0,1.136019393E1,2.264523273E0,-1.578922005E1,1.958268474E1
8.166063667E0,1.428858361E1,2.937791125E0,-1.846791959E1,2.353419411E1
8.176062667E0,1.272666601E1,2.431973642E0,-1.463075916E1,1.954332718E1
8.186062667E0,7.760576057E0,1.807396578E0,-8.160793995E0,1.140577844E1
8.196061667E0,3.127959827E0,2.376241637E0,-4.466553551E0,5.948172629E0
8.206061667E0,1.097010162E0,4.240717126E0,-2.730545629E0,5.161685041E0
8.216060667E0,8.376949185E-1,6.728364154E0,-2.035354080E0,7.079214872E0
8.226060667E0,1.469088374E0,9.300875916E0,-1.869980204E0,9.600069762E0
8.236059667E0,2.336019371E0,9.907318718E0,-3.487643112E0,1.075990730E1
8.246059667E0,1.352173882E0,5.722627859E0,-5.360334377E0,7.956759922E0
8.256058667E0,3.620011210E-1,1.489181892E0,-4.752554609E0,4.993544116E0
8.266058667E0,3.204402816E-1,-3.314163094E-1,-2.036826994E0,2.088344547E0
8.276057667E0,7.518115997E-1,-1.043619236E0,3.160364512E-1,1.324477568E0
8.286057667E0,8.975587124E-1,-1.168250664E0,3.244715275E0,3.563509292E0
8.296056667E0,1.697598732E-1,-1.238833647E0,5.834714305E0,5.967195174E0
8.306056667E0,-3.674507260E-1,-1.720909534E0,6.669817153E0,6.898043963E0
8.316055667E0,-7.568910760E-1,-2.373271105E0,6.246366473E0,6.724759770E0
8.326055667E0,-1.162801278E0,-3.149932787E0,5.010814138E0,6.031785946E0
8.336054667E0,-8.326534492E-1,-3.764853174E0,4.249577704E0,5.738147946E0
8.346054667E0,8.220261347E-1,-3.954927444E0,4.138020723E0,5.782766946E0
8.356053667E0,3.375549649E0,-3.659630774E0,4.351348492E0,6.612220999E0
8.366053667E0,5.457747236E0,-3.404980732E0,4.629842311E0,7.925675902E0
8.376052667E0,6.653012840E0,-3.388589817E0,4.675062338E0,8.809161632E0
8.386051667E0,6.422219145E0,-3.611983276E0,4.509367741E0,8.638617908E0
8.396051667E0,4.897727233E0,-4.033309662E0,3.764228691E0,7.377312283E0
8.406051667E0,3.333444434E0,-3.988153662E0,3.129937940E0,6.067432153E0
8.416050667E0,2.297617782E0,-3.061571125E0,2.536455784E0,4.591935668E0
8.426049667E0,1.414928539E0,-1.585529681E0,1.864348750E0,2.826963637E0
8.436049667E0,2.425389969E-1,-5.632118516E-1,1.399361643E0,1.527823865E0
8.446048667E0,-9.308609444E-1,-1.455298886E-2,8.546783026E-1,1.263799386E0
8.456048667E0,-1.992273257E0,3.299367446E-1,2.636275649E-1,2.036543759E0
8.466047667E0,-3.214027333E0,4.456041719E-1,-8.667327762E-2,3.245927762E0
8.476047667E0,-4.251991142E0,4.994497190E-1,-1.301005483E-1,4.283200304E0
8.486046667E0,-4.964998280E0,5.795673908E-1,-8.465947827E-2,4.999427318E0
8.496046667E0,-5.346710365E0,7.859901101E-1,3.508247530E-1,5.415548927E0
8.506045667E0,-5.271480088E0,1.133044579E0,1.054127852E0,5.493949205E0
8.516045667E0,-5.199784454E0,1.350336102E0,1.743920374E0,5.648223103E0
8.526044667E0,-5.517626233E0,1.411866937E0,2.051550575E0,6.053629263E0
8.536044667E0,-5.464225366E0,1.420940939E0,1.906320941E0,5.959101571E0
8.546043667E0,-5.155345615E0,1.720848723E0,2.389214416E0,5.936939806E0
8.556043667E0,-4.899548641E0,2.069969159E0,2.847318034E0,6.033039797E0
8.566042667E0,-4.646522663E0,2.388386157E0,2.981222781E0,6.015168373E0
8.576042667E0,-4.571773027E0,2.563614347E0,2.662224423E0,5.878832027E0
8.586041667E0,-4.237470167E0,2.733925320E0,1.982583836E0,5.418592044E0
8.596041667E0,-3.539440087E0,2.751407618E0,1.238041495E0,4.650873762E0
8.606040667E0,-2.870220993E0,2.491964613E0,3.359716558E-1,3.815879077E0
8.616040667E0,-2.302435303E0,2.073106044E0,-3.016767128E-1,3.112874208E0
8.626039667E0,-1.608705266E0,1.613458614E0,-6.626380527E-1,2.372819108E0
8.636039667E0,-9.292003351E-1,1.224036317E0,-1.199275625E0,1.949343529E0
8.646038667E0,-3.077407140E-1,9.434143317E-1,-1.918915844E0,2.160317792E0
8.656038667E0,3.345256394E-1,7.862509690E-1,-2.205778051E0,2.365492507E0
8.666037667E0,7.540101528E-1,6.050055563E-1,-2.541623261E0,2.719266783E0
8.676037667E0,7.135655469E-1,-1.175247954E-1,-2.755789229E0,2.849098478E0
8.686036667E0,6.026625770E-1,-1.374423122E0,-2.556110322E0,2.964108817E0
8.696037208E0,1.125552760E0,-2.505488930E0,-2.220026400E0,3.531693788E0
8.706036208E0,2.021890574E0,-3.503649865E0,-2.334434191E0,4.670458956E0
8.716036208E0,3.005259515E0,-4.237110563E0,-3.154978349E0,6.077711663E0
8.726035208E0,3.921074989E0,-4.670539516E0,-4.275949523E0,7.447987162E0
8.736035208E0,4.630301317E0,-4.804035250E0,-5.851249062E0,8.874432971E0
8.746034208E0,5.017155443E0,-4.138680289E0,-7.863347304E0,1.020454576E1
8.756034208E0,4.643361073E0,-2.839372838E0,-9.251103247E0,1.073339422E1
8.766033208E0,3.384474254E0,-2.256523551E0,-8.771256173E0,9.668583110E0
8.776033208E0,1.170269342E0,-3.509036905E0,-7.611220043E0,8.462478412E0
8.786032208E0,-8.903221983E-1,-5.797913100E0,-7.022970268E0,9.150441591E0
8.796032208E0,-1.303492888E0,-6.738200340E0,-7.051547949E0,9.840059249E0
8.806031208E0,7.793174869E-1,-3.808566374E0,-6.235268458E0,7.347862704E0
8.816031208E0,1.710909333E0,-1.880492182E0,-4.446856913E0,5.122303973E0
8.826030208E0,2.080205441E0,-1.064754289E0,-3.825240878E0,4.482568923E0
8.836030208E0,4.683768257E0,1.199019517E0,8.183529139E-1,4.903573633E0
8.846029208E0,8.749182934E0,5.542463450E0,1.290929093E1,1.655043490E1
8.856029208E0,5.407280502E0,4.858905230E0,1.143180128E1,1.354746186E1
8.866028208E0,2.784274524E-1,1.826458939E0,7.627483781E-1,1.998814446E0
8.876028208E0,-2.297844654E-1,1.959925291E0,-1.810395030E0,2.677991451E0
8.886027208E0,-3.143878287E-1,1.756141493E0,-1.627020500E0,2.414553449E0
8.896027208E0,4.512237847E-2,1.062694023E0,-6.563243754E-1,1.249846511E0
8.906026208E0,1.113624440E0,6.621175043E-1,5.714637347E-1,1.416026053E0
8.916026208E0,2.512797657E0,7.545135981E-1,1.483923930E0,3.014211848E0
8.926025208E0,3.733375273E0,1.021316201E0,2.307408360E0,4.506141482E0
8.936025208E0,4.448241241E0,1.352762112E0,2.897069946E0,5.478122830E0
8.946024208E0,4.406295070E0,1.603492035E0,3.360871968E0,5.769062605E0
8.956024208E0,3.791294868E0,1.859869345E0,3.737228004E0,5.639140352E0
8.966023208E0,2.869918107E0,2.090993846E0,4.128821298E0,5.445718550E0
8.976023208E0,1.601952317E0,2.200496700E0,4.318164082E0,5.104407702E0
8.986022208E0,2.545503473E-1,2.199823685E0,4.161737030E0,4.714241745E0
8.996022208E0,-1.053844262E0,2.115519699E0,3.773718138E0,4.452747456E0
9.006021208E0,-2.293328265E0,1.995964605E0,3.310668944E0,4.494859074E0
9.016020208E0,-3.455899748E0,1.716822476E0,2.819098202E0,4.778915897E0
9.026020208E0,-4.552706426E0,1.148840247E0,1.778244845E0,5.020868894E0
9.036019208E0,-5.334066930E0,5.281563319E-1,7.719270448E-1,5.415449242E0
9.046019208E0,-5.552586735E0,1.556413324E-1,-1.788767056E-1,5.557647033E0
9.056018208E0,-5.241736472E0,-4.860775754E-2,-1.199408941E0,5.377429289E0
9.066018208E0,-4.832962303E0,-4.148925122E-1,-2.383474642E0,5.404684245E0
9.076017208E0,-4.607735742E0,-1.098583501E0,-2.954634614E0,5.582829040E0
9.086017208E0,-4.632554249E0,-1.875256146E0,-1.883354979E0,5.340802417E0
9.096016208E0,-4.977591428E0,-2.363397204E0,4.221575680E-1,5.526326066E0
9.106016208E0,-5.352845848E0,-2.591262614E0,2.548952453E0,6.470298232E0
9.116015208E0,-5.424684740E0,-2.621598845E0,4.147535020E0,7.314508307E0
9.126015208E0,-5.289889462E0,-2.467982258E0,5.346353685E0,7.915640509E0
9.136014208E0,-5.004490959E0,-2.251503570E0,6.075803778E0,8.187160047E0
9.146014208E0,-4.573572215E0,-2.136341196E0,6.071654593E0,7.895980371E0
9.156013208E0,-4.096002631E0,-2.167363891E0,5.044327455E0,6.849813374E0
9.166013208E0,-3.594898589E0,-2.238911445E0,3.241865927E0,5.333452447E0
9.176012208E0,-2.925455546E0,-2.107145025E0,9.732395169E-1,3.734373504E0
9.186012208E0,-1.977091547E0,-1.654611756E0,-9.135727742E-1,2.735186696E0
9.196011208E0,-8.433386511E-1,-1.026633805E0,-1.992426162E0,2.394777456E0
9.206011208E0,6.759276044E-1,-2.644971921E-1,-2.554889716E0,2.655992913E0
9.216010208E0,2.605325167E0,7.870746955E-1,-2.839555271E0,3.933227674E0
9.226010208E0,5.039464910E0,2.081413914E0,-3.325195474E0,6.386346013E0
9.236009208E0,7.699090830E0,3.568432336E0,-4.348219062E0,9.535025850E0
9.246009208E0,9.375427331E0,4.803730903E0,-5.623434523E0,1.194141885E1
9.256008208E0,8.825079793E0,5.224208273E0,-6.499982436E0,1.214183500E1
9.266008208E0,6.186697977E0,5.078084015E0,-6.615605278E0,1.038404557E1
9.276007208E0,2.784658102E0,4.663386617E0,-6.765126768E0,8.675738336E0
9.286007208E0,4.458636421E-1,4.540333718E0,-8.016159607E0,9.223461363E0
9.296006208E0,-3.583998209E-1,5.042431787E0,-1.044837445E1,1.160702793E1
9.306006208E0,1.270604639E0,6.268602850E0,-1.330658818E1,1.476398005E1
9.316005208E0,5.031932527E0,7.258881446E0,-1.277544232E1,1.553137570E1
9.326005208E0,6.618514268E0,5.661475924E0,-9.820377638E0,1.312618976E1
9.336004208E0,4.349175959E0,2.222465566E0,-4.318714889E0,6.519661265E0
9.346004208E0,1.931408420E0,3.921636175E-1,9.295970687E-1,2.179055185E0
9.356003208E0,1.729426296E0,-2.906102724E-1,2.730313202E0,3.244993039E0
9.366003208E0,1.202986853E0,-1.174346459E0,4.677074657E0,4.970039670E0
9.376002208E0,1.087283903E-1,-2.012625076E0,7.068109603E0,7.349874483E0
9.386002208E0,-9.646110731E-1,-2.956908304E0,8.055556977E0,8.635147911E0
9.396001208E0,-1.757764242E0,-3.932749540E0,8.006515794E0,9.091784711E0
9.406001208E0,-1.635574976E0,-4.745229802E0,7.528714660E0,9.048417310E0
9.416000208E0,-7.113102758E-1,-5.420472990E0,6.906125942E0,8.808068192E0
9.426000208E0,5.770792544E-1,-5.773118566E0,6.682616124E0,8.849817891E0
9.435999208E0,2.814136255E0,-5.510704883E0,6.927276490E0,9.288400871E0
9.445999208E0,5.354160887E0,-5.119411551E0,7.055995342E0,1.023046840E1
9.455998208E0,7.103840768E0,-4.754246501E0,6.716199607E0,1.087082106E1
9.465998208E0,7.889985464E0,-4.109959935E0,5.891677880E0,1.067030972E1
9.475997208E0,7.398096634E0,-3.373761570E0,4.633891507E0,9.358795405E0
9.485996208E0,5.753737385E0,-2.630940065E0,3.422793982E0,7.193250876E0
9.495996208E0,3.737015165E0,-1.635493700E0,1.878244951E0,4.490871417E0
9.505995208E0,1.482060422E0,-9.950551862E-1,2.558016515E-1,1.803350328E0
9.515995208E0,-5.937976134E-1,-5.912961745E-1,-9.080889630E-1,1.235658665E0
9.525994208E0,-2.329939436E0,-3.164982350E-1,-1.556039395E0,2.819582861E0
9.535994208E0,-3.771140100E0,-1.041896354E-1,-1.584009551E0,4.091630408E0
9.545993208E0,-4.797490754E0,1.231217502E-1,-1.043138010E0,4.911131581E0
9.555993208E0,-5.270489570E0,3.934717128E-1,-7.536887387E-2,5.285693972E0
9.565992208E0,-5.214481430E0,6.722032204E-1,8.974306583E-1,5.333671863E0
9.575992208E0,-5.090098874E0,8.059990628E-1,1.639627681E0,5.408060648E0
9.585991208E0,-5.070762132E0,9.235058780E-1,2.099149250E0,5.565242068E0
9.595991208E0,-5.095640865E0,1.058870017E0,2.362466912E0,5.715593709E0
9.605990208E0,-5.206307023E0,1.141510177E0,2.551354197E0,5.909152777E0
9.615990208E0,-5.279532289E0,1.202687767E0,2.662485209E0,6.033966071E0
9.625989208E0,-5.200539329E0,1.499349470E0,2.480736204E0,5.953797969E0
9.635989208E0,-4.843608913E0,1.959570365E0,1.716277077E0,5.499642745E0
9.645988208E0,-4.410166512E0,2.407971114E0,7.983601141E-1,5.087757111E0
9.655988208E0,-3.969468300E0,2.805420395E0,1.406980785E-1,4.862803525E0
9.665987208E0,-3.477569529E0,2.972196434E0,1.133821162E-1,4.576056924E0
9.675987208E0,-2.958239130E0,2.934870148E0,1.790639627E-1,4.170935799E0
9.685986208E0,-2.470339270E0,2.650690790E0,1.645114124E-1,3.627092745E0
9.695986292E0,-1.878469484E0,2.312259064E0,1.093230522E-1,2.981130844E0
9.705985292E0,-1.211596293E0,2.257692117E0,-1.523455493E-1,2.566777832E0
9.715985292E0,-8.430012667E-1,2.067610538E0,-7.379968219E-1,2.351659793E0
9.725984292E0,-6.799037111E-1,1.676233444E0,-1.595659689E0,2.412085707E0
9.735984292E0,-5.389431292E-1,1.254789090E0,-2.453439063E0,2.807902882E0
9.745983292E0,-3.383649212E-1,6.520233098E-1,-3.159939419E0,3.244201342E0
9.755983292E0,2.219603062E-2,-1.619934551E-1,-3.376144896E0,3.380101907E0
9.765982292E0,4.620159906E-1,-1.157522850E0,-3.207499502E0,3.441129317E0
9.775982292E0,9.226496994E-1,-2.457225135E0,-3.336289104E0,4.245004455E0
9.785981292E0,1.656833698E0,-3.871868623E0,-4.062368277E0,5.851435769E0
9.795981292E0,2.451155725E0,-5.097488000E0,-5.349283140E0,7.785074079E0
9.805980292E0,3.318026496E0,-5.882985409E0,-6.462112359E0,9.347604682E0
9.815980292E0,4.095593911E0,-6.328695270E0,-7.506463666E0,1.063829263E1
9.825979292E0,4.421858604E0,-6.157443187E0,-8.365068812E0,1.128899094E1
9.835978292E0,3.670567991E0,-5.352517819E0,-8.535268396E0,1.072256140E1
9.845978292E0,1.668794762E0,-4.996779066E0,-7.954962648E0,9.541179578E0
9.855977292E0,-5.159536314E-1,-5.882928107E0,-6.881339595E0,9.067959301E0
9.865977292E0,-1.446650854E0,-7.015561845E0,-6.336699523E0,9.563716200E0
9.875976292E0,-1.225839525E-1,-5.703498108E0,-6.161036886E0,8.396623905E0
9.885976292E0,1.947822724E0,-1.100567900E0,-5.686601994E0,6.110867803E0
9.895975292E0,2.103998930E0,7.692912662E-1,-3.855981445E0,4.459508208E0
9.905975292E0,1.672626443E0,3.756417981E-1,-3.237951508E0,3.663757081E0
9.915974292E0,2.756608424E0,7.768049383E-1,-2.896360971E0,4.073232474E0
9.925974292E0,4.703004427E0,2.010629129E0,-1.021124120E0,5.215704612E0
9.935973292E0,9.064492283E0,5.783333652E0,1.324124555E1,1.705703820E1
9.945973292E0,8.281664128E0,6.907691242E0,2.601202178E1,2.815896725E1
9.955972292E0,-3.510849541E-1,2.395350776E0,1.258457867E1,1.281532623E1
9.965972292E0,-8.201351452E-1,2.095207349E0,-6.066414611E-1,2.330349621E0
9.975971292E0,6.968664837E-1,2.810855967E0,-2.158961442E0,3.612152913E0
9.985971292E0,1.409549686E0,2.316456196E0,-1.467475566E0,3.083226258E0
9.995970292E0,2.531279536E0,2.036700548E0,-3.780897349E-2,3.249146770E0
1.000597029E1,3.510071862E0,1.997824458E0,1.156173459E0,4.201028934E0
1.001596929E1,4.097855614E0,1.972854362E0,2.181588120E0,5.044194851E0
1.002596929E1,4.149485359E0,1.939226001E0,2.863671527E0,5.401799778E0
1.003596829E1,3.828341657E0,2.153605685E0,3.159928894E0,5.411041296E0
1.004596829E1,2.839169354E0,2.124143612E0,3.257652240E0,4.815097800E0
1.005596729E1,1.466238441E0,1.778165616E0,3.139456623E0,3.894600879E0
1.006596729E1,7.023266137E-2,1.347795341E0,2.988521276E0,3.279137741E0
1.007596629E1,-1.086933655E0,1.097118701E0,2.489482470E0,2.929610414E0
1.008596629E1,-1.865547722E0,1.064030038E0,1.462996891E0,2.598612732E0
1.009596529E1,-2.422571027E0,1.035628285E0,-1.552996358E-1,2.639222291E0
1.010596529E1,-2.524112604E0,6.331135605E-1,-2.609152755E0,3.685058387E0
1.011596429E1,-2.322760810E0,-2.401566951E-1,-5.507953184E0,5.982511286E0
1.012596329E1,-2.394412006E0,-1.150841018E0,-6.135296273E0,6.685768786E0
1.013596329E1,-2.930969471E0,-1.957469314E0,-4.287479063E0,5.550202237E0
1.014596229E1,-3.801967206E0,-2.385120341E0,-1.802412411E0,4.836573599E0
1.015596229E1,-4.716465302E0,-2.393042003E0,3.451968080E-1,5.300080736E0
1.016596129E1,-5.322355542E0,-2.216826950E0,2.231987464E0,6.182520383E0
1.017596129E1,-5.642131580E0,-2.023998642E0,3.978298180E0,7.194239062E0
1.018596029E1,-5.860100577E0,-1.843434868E0,5.333233117E0,8.135256995E0
1.019596029E1,-5.967515098E0,-1.720224825E0,6.200628383E0,8.776001495E0
1.020595929E1,-5.889095750E0,-1.596464266E0,6.615218777E0,8.999514785E0
1.021595929E1,-5.569090501E0,-1.551123348E0,6.552905000E0,8.738496243E0
1.022595829E1,-5.125881495E0,-1.434530453E0,5.627382563E0,7.745964965E0
1.023595829E1,-4.589024068E0,-1.439397529E0,4.096089170E0,6.317353372E0
1.024595729E1,-3.924452925E0,-1.414582238E0,2.300238797E0,4.763766597E0
1.025595729E1,-3.025772132E0,-1.227919965E0,2.039543903E-1,3.271801007E0
1.026595629E1,-2.087989839E0,-8.884423184E-1,-2.028040091E0,3.043349788E0
1.027595629E1,-1.379585629E0,-5.371973699E-1,-3.580174423E0,3.874207844E0
1.028595529E1,-4.937862521E-1,-1.222625019E-1,-4.434514318E0,4.463596108E0
1.029595529E1,8.772390532E-1,4.401676501E-1,-5.409936308E0,5.498245790E0
1.030595429E1,3.452489651E0,1.330554241E0,-6.966472716E0,7.888079708E0
1.031595429E1,6.770127307E0,2.655013344E0,-8.339887193E0,1.106514519E1
1.032595329E1,8.753500518E0,3.823824098E0,-8.665413968E0,1.289708499E1
1.033595329E1,8.269088522E0,4.404622182E0,-7.350407327E0,1.190827483E1
1.034595229E1,5.789790732E0,4.575799712E0,-5.913174584E0,9.456492658E0
1.035595229E1,2.762690697E0,4.646229717E0,-5.698792269E0,7.854689287E0
1.036595129E1,5.274983740E-1,5.083033683E0,-6.124685916E0,7.976669952E0
1.037595129E1,-4.549396902E-1,5.861102205E0,-6.841823527E0,9.020534261E0
1.038595029E1,4.398141128E-1,6.953470262E0,-7.320735047E0,1.010630233E1
1.039595029E1,3.340304972E0,7.787636386E0,-5.806522540E0,1.027232310E1
1.040594929E1,4.266485805E0,5.528695012E0,-4.137730993E0,8.117277095E0
1.041594829E1,2.607233114E0,1.569936326E0,-2.620994243E0,4.016463046E0
1.042594829E1,2.382251551E0,-6.014330538E-1,-1.750353188E0,3.016716834E0
1.043594729E1,2.695991508E0,-1.749228330E0,1.437245607E-3,3.213747350E0
1.044594729E1,2.149753393E0,-2.336018348E0,3.507247072E0,4.730666274E0
1.045594629E1,1.721377019E0,-2.568581849E0,6.608310292E0,7.295924648E0
1.046594629E1,1.599455556E0,-2.982315041E0,7.975928425E0,8.664173089E0
1.047594529E1,1.552573750E0,-3.667328049E0,7.972050551E0,8.911417971E0
1.048594529E1,1.227058670E0,-4.805321930E0,6.796212906E0,8.413400127E0
1.049594429E1,1.308575288E0,-5.722301000E0,5.646025826E0,8.144612062E0
1.050594429E1,2.249222133E0,-6.018060769E0,5.226460036E0,8.282025122E0
1.051594329E1,3.810722827E0,-5.675239685E0,5.329720695E0,8.668095329E0
1.052594329E1,5.787598026E0,-4.875634991E0,5.360056635E0,9.273527625E0
1.053594229E1,6.918515022E0,-4.177228058E0,5.014683241E0,9.511158308E0
1.054594229E1,6.789213204E0,-3.730414828E0,4.158466097E0,8.792169869E0
1.055594129E1,5.630789151E0,-3.394982870E0,3.120447325E0,7.277972703E0
1.056594129E1,3.991315836E0,-2.933197260E0,2.317371723E0,5.468497049E0
1.057594029E1,2.305240213E0,-2.134421263E0,1.827412766E0,3.634463369E0
1.058594029E1,7.478559583E-1,-1.381595609E0,9.655241159E-1,1.843998856E0
1.059593929E1,-5.970007181E-1,-1.003199919E0,3.235966817E-1,1.211418486E0
1.060593929E1,-1.926954596E0,-7.237920347E-1,-4.445645370E-2,2.058884480E0
1.061593829E1,-3.178646416E0,-5.231610556E-1,-2.336301792E-1,3.229872070E0
1.062593829E1,-4.031765120E0,-2.543412363E-1,8.027755659E-2,4.040577178E0
1.063593729E1,-4.303317416E0,2.453017332E-1,8.857619548E-1,4.400373617E0
1.064593729E1,-4.556263872E0,6.598446185E-1,1.613860756E0,4.878471270E0
1.065593629E1,-5.077088234E0,7.871515133E-1,1.928190697E0,5.487654491E0
1.066593529E1,-5.385175104E0,9.192034967E-1,2.344376796E0,5.944842179E0
1.067593529E1,-5.438151462E0,1.133419093E0,2.700807860E0,6.176770456E0
1.068593429E1,-5.478744587E0,1.123048179E0,2.520327702E0,6.134324020E0
1.069593329E1,-5.345200614E0,1.249868658E0,1.872990643E0,5.800123724E0
1.070593229E1,-4.916116142E0,1.648151168E0,9.942885431E-1,5.279508490E0
1.071593229E1,-4.511707504E0,2.157608250E0,3.607379763E-1,5.014071186E0
1.072593129E1,-4.147331829E0,2.743564163E0,9.145746946E-2,4.973516873E0
1.073593129E1,-3.738315001E0,3.172962338E0,5.161500978E-1,4.930425942E0
1.074593029E1,-3.321909631E0,3.524238203E0,1.281233708E0,5.009680462E0
1.075593029E1,-3.061292213E0,3.678671940E0,1.940644097E0,5.164323457E0
1.076592929E1,-2.991697483E0,3.443212751E0,2.242834049E0,5.082939352E0
1.077592929E1,-3.108707870E0,2.857615273E0,2.173392516E0,4.749069877E0
1.078592829E1,-3.203680685E0,2.205998930E0,1.620125463E0,4.213645420E0
1.079592829E1,-3.010096332E0,1.718317755E0,5.352696159E-1,3.507108410E0
1.080592729E1,-2.606363048E0,1.451307576E0,-8.423905250E-1,3.099845773E0
1.081592729E1,-2.131509495E0,1.240304952E0,-2.236974847E0,3.329526328E0
1.082592629E1,-1.410927874E0,1.090787263E0,-2.931129684E0,3.431042924E0
1.083592629E1,-6.351409364E-1,8.795899263E-1,-3.167634355E0,3.348281627E0
1.084592529E1,2.355141521E-1,4.840927380E-1,-3.291439791E0,3.335174447E0
1.085592529E1,1.092745788E0,-5.848768088E-1,-2.880214469E0,3.135571659E0
1.086592429E1,2.129492206E0,-2.166985722E0,-2.287542007E0,3.803079359E0
1.087592429E1,3.235579585E0,-3.711929733E0,-2.648104566E0,5.591051367E0
1.088592329E1,4.195259117E0,-4.820807111E0,-3.778836790E0,7.424283652E0
1.089592329E1,4.969364980E0,-5.447052094E0,-5.208125507E0,9.027155483E0
1.090592229E1,5.115612615E0,-6.107747701E0,-6.499828069E0,1.028211259E1
1.091592129E1,4.685682635E0,-6.668285183E0,-7.493673466E0,1.107144033E1
1.092592129E1,3.775520834E0,-6.564699419E0,-8.521885289E0,1.140054231E1
1.093592029E1,1.856070555E0,-6.349658123E0,-8.932358658E0,1.111531319E1
1.094592029E1,1.484380013E-1,-6.626079395E0,-8.490698580E0,1.077120812E1
1.095591929E1,-1.313862925E0,-7.297532126E0,-7.645844915E0,1.065078191E1
1.096591929E1,-1.298245597E0,-5.697690654E0,-6.195248360E0,8.516467734E0
1.097591829E1,2.452643842E-1,-6.547067432E-1,-4.633826019E0,4.686271344E0
1.098591829E1,1.068795007E0,1.868611371E0,-2.903161283E0,3.614191010E0
1.099591729E1,2.277250761E0,2.692928737E0,-8.328385136E-1,3.623721319E0
1.100591729E1,7.193861577E0,5.994380715E0,1.210777332E1,1.530628692E1
1.101591629E1,6.341699477E0,5.232421857E0,1.624003103E1,1.820258219E1
1.102591629E1,4.418612230E-1,7.141650327E-1,1.339852191E0,1.581289641E0
1.103591529E1,4.204112971E-1,1.385894921E0,-3.644061978E0,3.921305661E0
1.104591529E1,1.216544207E0,2.368282991E0,-3.541391888E0,4.430598226E0
1.105591429E1,1.552979547E0,2.030043055E0,-2.276495301E0,3.422754903E0
1.106591429E1,2.242827618E0,1.341217223E0,-5.700273661E-1,2.674709435E0
1.107591329E1,3.316805597E0,1.068799978E0,6.979249759E-1,3.553960049E0
1.108591329E1,4.231934023E0,9.943827564E-1,1.635537846E0,4.644679396E0
1.109591229E1,4.829170384E0,1.015105873E0,2.430164806E0,5.500638828E0
1.110591229E1,5.268431350E0,1.235518422E0,3.180757846E0,6.276949508E0
1.111591129E1,5.455945709E0,1.563390660E0,3.803815219E0,6.832316163E0
1.112591129E1,5.149360405E0,2.225671887E0,4.504110217E0,7.194201608E0
1.113591029E1,4.111931031E0,2.463345708E0,4.997273741E0,6.924506749E0
1.114591029E1,2.582219310E0,2.458575257E0,4.918186641E0,6.074620045E0
1.115590929E1,9.165633327E-1,2.425194234E0,4.489878094E0,5.184656277E0
1.116590829E1,-7.225380993E-1,2.364068172E0,3.591033579E0,4.359633218E0
1.117590829E1,-2.222862300E0,2.122034082E0,2.018767722E0,3.676896595E0
1.118590729E1,-3.442279828E0,1.647065632E0,6.956447080E-2,3.816668027E0
1.119590729E1,-4.212972672E0,1.006889439E0,-1.529803523E0,4.593828893E0
1.120590629E1,-4.458768568E0,2.337336749E-1,-2.599804226E0,5.166645971E0
1.121590629E1,-4.380409446E0,-7.217723333E-1,-3.830468582E0,5.863568178E0
1.122590529E1,-4.283350929E0,-1.672042014E0,-4.511606348E0,6.441848455E0
1.123590529E1,-4.046504781E0,-2.364092146E0,-3.786740179E0,6.025158405E0
1.124590429E1,-3.919131374E0,-2.615660998E0,-1.714296041E0,5.013988841E0
1.125590429E1,-4.110830001E0,-2.594796378E0,5.650582561E-1,4.893994521E0
1.126590329E1,-4.401746521E0,-2.488802731E0,2.573132737E0,5.673669320E0
1.127590329E1,-4.722321289E0,-2.352982728E0,4.367324255E0,6.849114338E0
1.128590229E1,-4.901729068E0,-2.117176508E0,6.011860381E0,8.040637379E0
1.129590229E1,-5.006497723E0,-1.881895660E0,6.961217823E0,8.778673266E0
1.130590129E1,-4.942775937E0,-1.763193089E0,7.372607451E0,9.049598027E0
1.131590129E1,-4.734616229E0,-1.749123519E0,7.016320814E0,8.643192794E0
1.132590029E1,-4.483595261E0,-1.736615594E0,6.124201766E0,7.786161279E0
1.133590029E1,-4.267782717E0,-1.676130825E0,4.904998538E0,6.714342449E0
1.134589929E1,-4.010312271E0,-1.697319381E0,3.510354867E0,5.593396900E0
1.135589829E1,-3.500711054E0,-1.612096213E0,2.024298458E0,4.353345418E0
1.136589829E1,-2.875972314E0,-1.576422496E0,2.344560984E-1,3.288053269E0
1.137589729E1,-2.265677367E0,-1.569369000E0,-1.602520666E0,3.188147656E0
1.138589729E1,-1.372150310E0,-1.429697437E0,-3.325985141E0,3.871564075E0
1.139589629E1,1.811268604E-1,-1.042577847E0,-5.359141545E0,5.462616004E0
1.140589629E1,2.945386950E0,-2.758151723E-1,-8.190382075E0,8.708256820E0
1.141589529E1,6.630846630E0,1.046205971E0,-9.847410486E0,1.191780883E1
1.142589529E1,8.663928190E0,2.035924330E0,-9.967694728E0,1.336276834E1
1.143589429E1,8.811731184E0,2.735349409E0,-9.294715290E0,1.309658258E1
1.144589429E1,7.173918478E0,3.387333543E0,-6.895014478E0,1.051096378E1
1.145589329E1,4.201444302E0,4.093151821E0,-5.405155624E0,7.976323299E0
1.146589329E1,1.431397807E0,5.287350016E0,-4.741089097E0,7.244507968E0
1.147589229E1,-2.376115483E-1,7.578078609E0,-3.307662891E0,8.271902348E0
1.148589229E1,-1.112567264E0,1.003457752E1,-2.969735341E0,1.052377688E1
1.149589129E1,-1.265577203E0,1.062005922E1,-5.895915942E0,1.221266426E1
1.150589129E1,-1.882604635E-1,9.218431345E0,-1.076875275E1,1.417677517E1
1.151589029E1,1.288976591E0,4.736130073E0,-9.259275316E0,1.047981718E1
1.152589029E1,2.059860638E0,1.852976793E-1,-5.161714402E0,5.560634554E0
1.153588929E1,2.432025974E0,-1.798570206E0,-1.627551719E0,3.434898794E0
1.154588929E1,2.417793851E0,-2.022361567E0,3.658630900E0,4.829208370E0
1.155588829E1,3.014985774E0,-1.933022252E0,8.160157818E0,8.911503232E0
1.156588729E1,3.396456953E0,-2.483028605E0,9.823813462E0,1.068684527E1
1.157588729E1,3.611940883E0,-3.465340954E0,9.674691921E0,1.089285861E1
1.158588629E1,3.480293162E0,-4.963872106E0,8.308111669E0,1.028480366E1
1.159588629E1,3.170852078E0,-6.439048017E0,6.843320414E0,9.916989288E0
1.160588529E1,3.363095080E0,-7.273166193E0,5.917002171E0,9.960937189E0
1.161588529E1,4.438465866E0,-7.245504770E0,5.514068202E0,1.012927770E1
1.162588429E1,5.903214437E0,-6.674458088E0,5.249370596E0,1.034177079E1
1.163588429E1,6.763794773E0,-6.020470406E0,4.886150916E0,1.028928833E1
1.164588329E1,6.712807052E0,-5.359059684E0,4.700481646E0,9.791620240E0
1.165588329E1,6.078076006E0,-4.471652323E0,4.432928553E0,8.751544891E0
1.166588229E1,4.921497919E0,-3.247337459E0,3.946124461E0,7.094944721E0
1.167588229E1,3.267939831E0,-2.121469095E0,2.760125524E0,4.774762273E0
1.168588129E1,1.386102351E0,-1.402334660E0,1.122260632E0,2.268764235E0
1.169588208E1,-5.556088632E-1,-9.263730602E-1,-8.392742515E-2,1.083472228E0
1.170588108E1,-2.380886811E0,-7.501916286E-1,-6.501203334E-1,2.579547622E0
1.171588108E1,-3.750018788E0,-5.397303106E-1,-5.949389899E-1,3.835088281E0
1.172588008E1,-4.588340528E0,-1.252896785E-1,-5.815055966E-3,4.590054479E0
1.173588008E1,-5.047199607E0,1.955580810E-1,9.086988276E-1,5.132075642E0
1.174587908E1,-5.300896261E0,4.358087701E-1,1.672699533E0,5.575603481E0
1.175587908E1,-5.354096568E0,7.364611237E-1,2.193620374E0,5.832726240E0
1.176587808E1,-5.324301496E0,1.044974986E0,2.775675024E0,6.094631324E0
1.177587708E1,-5.411726725E0,1.263220921E0,3.029741222E0,6.329442718E0
1.178587708E1,-5.646452672E0,1.363743183E0,2.649894984E0,6.384682191E0
1.179587608E1,-5.830659261E0,1.277099141E0,1.769427683E0,6.225627998E0
1.180587608E1,-5.766445139E0,1.230614508E0,1.076999820E0,5.993849366E0
1.181587508E1,-5.311215427E0,1.436306398E0,3.075927794E-1,5.510589687E0
1.182587508E1,-4.617636833E0,1.872829552E0,-3.125406933E-1,4.992768985E0
1.183587408E1,-4.019453807E0,2.286591103E0,-7.420561051E-1,4.683498163E0
1.184587408E1,-3.350441120E0,2.436138614E0,-4.934604891E-1,4.171777834E0
1.185587308E1,-2.444478205E0,2.612896142E0,1.305730764E-1,3.580467745E0
1.186587308E1,-1.621679068E0,2.741629027E0,6.360519326E-1,3.248220248E0
1.187587208E1,-1.139728750E0,2.646707082E0,7.929162101E-1,2.988771674E0
1.188587208E1,-9.273210400E-1,2.325307857E0,9.177672744E-1,2.666322882E0
1.189587108E1,-9.607092261E-1,1.799502544E0,7.967652860E-1,2.189978663E0
1.190587108E1,-1.075963694E0,1.380179121E0,1.155737257E-1,1.753838523E0
1.191587008E1,-1.183382893E0,1.005524772E0,-1.057623025E0,1.878840494E0
1.192587008E1,-1.027665108E0,6.437555661E-1,-2.326277179E0,2.623372317E0
1.193586908E1,-5.074038327E-1,3.455013748E-1,-3.554874398E0,3.607486914E0
1.194586808E1,9.290933311E-2,-1.221105473E-1,-4.745335929E0,4.747815941E0
1.195586808E1,6.302935946E-1,-1.067955055E0,-6.164168655E0,6.287668345E0
1.196586708E1,1.146449540E0,-3.202782845E0,-6.701281021E0,7.515273236E0
1.197586708E1,2.167060567E0,-5.215500015E0,-6.062721802E0,8.285782254E0
1.198586608E1,3.696430226E0,-5.789925218E0,-5.869990557E0,9.035685895E0
1.199586608E1,4.446170157E0,-5.983045303E0,-5.830062261E0,9.463344341E0
1.200586508E1,3.781687893E0,-6.911171504E0,-6.431799223E0,1.017022596E1
1.201586508E1,2.219109557E0,-8.064563443E0,-7.766940751E0,1.141433307E1
1.202586408E1,9.418075168E-1,-7.848601795E0,-9.267359676E0,1.218078433E1
1.203586408E1,-3.014672363E-1,-6.784661731E0,-9.706859794E0,1.184675670E1
1.204586308E1,-1.552594800E0,-5.983674463E0,-8.731417923E0,1.069825077E1
1.205586308E1,-2.161095237E0,-5.919411224E0,-6.958360873E0,9.387680646E0
1.206586208E1,-1.265037505E0,-5.582105818E0,-5.199960455E0,7.733033945E0
1.207586208E1,9.029130077E-1,-3.700708049E0,-4.140949301E0,5.626540063E0
1.208586108E1,3.188008393E0,-3.205390996E-1,-3.335785074E0,4.625322139E0
1.209586108E1,4.531150081E0,1.654113281E0,-2.380892658E0,5.379225005E0
1.210586008E1,8.002443209E0,3.703219428E0,5.319264704E0,1.029793710E1
1.211586008E1,1.225321930E1,5.713274068E0,2.215939196E1,2.595807266E1
1.212585908E1,6.088874059E0,1.267459129E0,1.683001392E1,1.794241367E1
1.213585908E1,1.061627491E0,-1.019609691E-1,-2.834904103E-1,1.103546909E0
1.214585808E1,1.838427166E0,2.562656280E0,-2.980961995E0,4.339718433E0
1.215585708E1,1.067408048E0,3.342044519E0,-2.540543865E0,4.331626096E0
1.216585708E1,-1.269471449E-1,2.977078567E0,-1.659087654E0,3.410525504E0
1.217585608E1,8.047347486E-2,2.597521473E0,-3.026996832E-1,2.616337303E0
1.218585608E1,1.348061535E0,2.377738232E0,1.014493085E0,2.915493993E0
1.219585508E1,2.761819462E0,2.227862546E0,1.902257273E0,4.026114876E0
1.220585508E1,4.034636688E0,2.213534090E0,2.731016915E0,5.351306360E0
1.221585408E1,4.980096375E0,2.449360484E0,3.387387922E0,6.501932299E0
1.222585408E1,5.041789763E0,2.590229995E0,3.806894070E0,6.827984908E0
1.223585308E1,4.223918660E0,2.744114678E0,4.128040695E0,6.512478345E0
1.224585308E1,2.909556967E0,2.667298929E0,4.208266833E0,5.769706670E0
1.225585208E1,1.335340333E0,2.494916872E0,3.957956886E0,4.865507858E0
1.226585208E1,-2.031761259E-1,2.287076422E0,3.631095192E0,4.296143782E0
1.227585108E1,-1.574726511E0,2.127171738E0,3.052225521E0,4.039889085E0
1.228585108E1,-2.766011331E0,2.001539632E0,2.071048555E0,3.993272054E0
1.229585008E1,-3.658171309E0,1.730996858E0,6.591718964E-1,4.100374988E0
1.230585008E1,-4.065071445E0,1.171103155E0,-8.337474632E-1,4.311777277E0
1.231584908E1,-4.127073566E0,1.758732102E-1,-2.614978920E0,4.888944912E0
1.232584808E1,-3.901024302E0,-1.001760261E0,-4.591616138E0,6.107737141E0
1.233584808E1,-3.704154398E0,-2.028003253E0,-5.699705604E0,7.093673306E0
1.234584708E1,-3.849546000E0,-2.736888981E0,-4.876448046E0,6.788910903E0
1.235584708E1,-4.167993550E0,-3.150939969E0,-2.029191992E0,5.605195186E0
1.236584608E1,-4.593831064E0,-3.575834619E0,9.558557448E-1,5.899452285E0
1.237584608E1,-5.091290537E0,-3.786486410E0,3.158447502E0,7.087630724E0
1.238584508E1,-5.407450072E0,-3.629309453E0,4.762834307E0,8.068270819E0
1.239584508E1,-5.364840242E0,-3.185909827E0,6.124930329E0,8.743357695E0
1.240584408E1,-5.088812487E0,-2.762309751E0,7.286291438E0,9.306793788E0
1.241584408E1,-4.830838594E0,-2.521348333E0,7.666222461E0,9.405592260E0
1.242584308E1,-4.588065124E0,-2.272759661E0,7.046062092E0,8.709923597E0
1.243584308E1,-4.283409401E0,-2.066107950E0,5.933459744E0,7.604100387E0
1.244584208E1,-3.713885919E0,-1.762968117E0,4.726733598E0,6.264424611E0
1.245584208E1,-2.931473501E0,-1.335051773E0,3.446393052E0,4.717364221E0
1.246584108E1,-2.030015865E0,-7.820859973E-1,1.934696602E0,2.911301060E0
1.247584008E1,-1.109130270E0,-1.666783540E-1,-8.916477621E-2,1.125123099E0
1.248584008E1,-4.377769428E-1,3.188771382E-1,-3.225635518E0,3.270788250E0
1.249583908E1,3.084698617E-1,7.154983440E-1,-6.858566444E0,6.902682464E0
1.250583908E1,2.142885253E0,1.516691434E0,-9.658711481E0,1.000914670E1
1.251583808E1,5.497634017E0,3.029878047E0,-1.100210226E1,1.266690155E1
1.252583808E1,8.114160111E0,4.381042700E0,-1.032517946E1,1.384349885E1
1.253583708E1,8.185462228E0,4.746723766E0,-7.879818910E0,1.231359917E1
1.254583708E1,6.271191997E0,4.574080631E0,-5.107761558E0,9.291893823E0
1.255583608E1,4.011049020E0,4.376212023E0,-3.826779573E0,7.062859747E0
1.256583608E1,1.640941551E0,4.090543086E0,-5.656801659E0,7.171097331E0
1.257583508E1,-5.027453560E-1,3.895534936E0,-9.239229891E0,1.003948775E1
1.258583508E1,-1.816810595E0,3.914926057E0,-1.157451661E1,1.235301103E1
1.259583408E1,-2.255231901E0,4.315936292E0,-1.154494607E1,1.252993043E1
1.260583408E1,-6.973979956E-1,5.286468256E0,-1.030728230E1,1.160487738E1
1.261583308E1,2.430387000E0,5.925423331E0,-8.442231009E0,1.059663565E1
1.262583308E1,4.446589403E0,4.680894350E0,-5.640760993E0,8.573279058E0
1.263583208E1,2.971280175E0,1.131301012E0,-1.346119675E0,3.452591207E0
1.264583108E1,1.754219075E0,-1.182411816E0,3.330436918E0,3.945528144E0
1.265583108E1,4.099313909E0,-7.699527325E-1,7.304799045E0,8.411735304E0
1.266583008E1,6.296557218E0,-7.479798462E-1,8.695210794E0,1.076163544E1
1.267583008E1,6.499383096E0,-2.099353756E0,8.576352687E0,1.096371708E1
1.268582908E1,5.282303284E0,-3.793614458E0,7.719318103E0,1.009366686E1
1.269582942E1,3.464746000E0,-5.159930416E0,6.532612823E0,9.016893980E0
1.270582842E1,2.031332658E0,-5.962246172E0,5.446123556E0,8.326761289E0
1.271582842E1,1.405266016E0,-6.150178022E0,4.654609362E0,7.839952206E0
1.272582742E1,1.713807213E0,-5.696434672E0,4.314655167E0,7.348656500E0
1.273582742E1,2.721452624E0,-4.963344103E0,4.349021300E0,7.138282380E0
1.274582642E1,3.992182978E0,-4.357733652E0,5.012340261E0,7.749253023E0
1.275582642E1,4.769897159E0,-3.991440382E0,5.963339016E0,8.616549626E0
1.276582542E1,4.898793765E0,-3.691370630E0,6.640289884E0,9.039792433E0
1.277582542E1,4.615485642E0,-3.059397715E0,6.546608133E0,8.574421272E0
1.278582442E1,3.840283425E0,-2.007053557E0,5.336342082E0,6.874051759E0
1.279582342E1,2.796002870E0,-8.809255765E-1,3.178493804E0,4.323943198E0
1.280582342E1,1.119820735E0,-3.608761168E-1,1.462764026E0,1.877207672E0
1.281582242E1,-9.929010719E-1,-2.251542015E-1,3.914289880E-1,1.090762855E0
1.282582242E1,-3.120135668E0,-2.514821671E-1,-1.581128043E-1,3.134244650E0
1.283582142E1,-4.706809795E0,-1.613628329E-1,-1.437824664E-1,4.711769286E0
1.284582142E1,-5.173131675E0,3.843640897E-1,6.691120899E-1,5.230366915E0
1.285582042E1,-5.352971563E0,8.390296917E-1,1.808055559E0,5.712034689E0
1.286582042E1,-5.299889955E0,1.258731283E0,2.740337377E0,6.097760812E0
1.287581942E1,-5.348413074E0,1.425205606E0,3.222643206E0,6.404854617E0
1.288581942E1,-5.508198767E0,1.289983774E0,2.836200138E0,6.328376017E0
1.289581842E1,-5.390784338E0,1.240569393E0,2.075364531E0,5.908189750E0
1.290581842E1,-5.280138645E0,1.269042263E0,1.448253576E0,5.620299885E0
1.291581742E1,-5.092103884E0,1.138324322E0,9.071300197E-1,5.296054107E0
1.292581742E1,-4.990770468E0,1.025956332E0,4.817731476E-1,5.117859086E0
1.293581642E1,-4.764062807E0,1.162172337E0,4.375704996E-1,4.923251660E0
1.294581542E1,-4.364764051E0,1.412514955E0,4.422132254E-1,4.608895340E0
1.295581542E1,-3.837203112E0,1.739254150E0,1.824822450E-1,4.216922159E0
1.296581442E1,-3.345644065E0,1.932327749E0,-5.397167158E-1,3.901092010E0
1.297581442E1,-3.065206924E0,1.850877935E0,-1.283861446E0,3.803885228E0
1.298581342E1,-2.768516863E0,1.754694161E0,-1.738594876E0,3.710303136E0
1.299581342E1,-2.242632321E0,1.780556104E0,-1.888184194E0,3.430017393E0
1.300581242E1,-1.609112817E0,1.857486166E0,-1.394013634E0,2.825380138E0
1.301581242E1,-1.241787221E0,1.786944479E0,-7.136655343E-1,2.290092699E0
1.302581142E1,-8.929189467E-1,1.646412498E0,-4.251359935E-1,1.920603804E0
1.303581142E1,-5.385537046E-1,1.422328776E0,-7.673640239E-1,1.703498396E0
1.304581042E1,-7.840940773E-2,1.048021239E0,-1.137713653E0,1.548834694E0
1.305581042E1,3.189328694E-1,3.263435575E-1,-1.477440830E0,1.546301943E0
1.306580942E1,8.478451002E-1,-5.958625576E-1,-2.013784579E0,2.264778539E0
1.307580942E1,1.509466322E0,-1.761847352E0,-2.554485089E0,3.450795378E0
1.308580842E1,2.121149983E0,-3.135523785E0,-3.181773215E0,4.945145847E0
1.309580742E1,2.867094487E0,-4.174258550E0,-4.088462354E0,6.508470608E0
1.310580742E1,3.672647261E0,-4.596500902E0,-4.927657961E0,7.674501380E0
1.311580642E1,4.127383468E0,-4.847991986E0,-5.932887887E0,8.702728266E0
1.312580642E1,4.066553130E0,-5.146869491E0,-7.468896475E0,9.940399110E0
1.313580542E1,3.207281985E0,-5.211240903E0,-9.176145451E0,1.102929439E1
1.314580542E1,2.041226732E0,-4.613767730E0,-1.002351927E1,1.122160406E1
1.315580442E1,2.304253203E-1,-4.045010233E0,-9.608696737E0,1.042795553E1
1.316580442E1,-2.022270643E0,-3.845733030E0,-8.405495292E0,9.462113516E0
1.317580342E1,-4.094868856E0,-4.236037014E0,-7.519667264E0,9.552871625E0
1.318580342E1,-3.391428933E0,-3.542744056E0,-5.910075560E0,7.679962160E0
1.319580242E1,3.485444559E0,1.960678558E0,4.784374280E0,6.235609147E0
1.320580242E1,8.509858151E0,5.352179850E0,1.145980710E1,1.524436596E1
1.321580142E1,3.774717427E0,-4.106841615E-1,-2.103630410E0,4.340784956E0
1.322580142E1,2.167617806E0,-1.842069397E0,-7.009128739E0,7.564368598E0
1.323580042E1,3.896616086E0,-4.054475413E-1,-6.429207737E0,7.528792517E0
1.324579942E1,5.238173763E0,1.347240148E0,-4.924378842E0,7.314576363E0
1.325579942E1,4.864171817E0,2.039312353E0,-2.492299658E0,5.833568370E0
1.326579842E1,2.821714831E0,1.807862747E0,-9.479886085E-2,3.352525783E0
1.327579842E1,1.599359661E0,1.512040120E0,1.451035827E0,2.636232467E0
1.328579742E1,1.409053257E0,1.227887659E0,2.513671231E0,3.132360491E0
1.329579742E1,2.053864903E0,1.169501310E0,3.477295879E0,4.204483439E0
1.330579642E1,3.358919583E0,1.584366231E0,4.271105982E0,5.659938465E0
1.331579642E1,4.758787449E0,2.253629033E0,4.926428876E0,7.210728345E0
1.332579542E1,5.805347834E0,2.948028722E0,5.647643750E0,8.619096052E0
1.333579542E1,6.347670654E0,3.592402705E0,6.591595441E0,9.830941480E0
1.334579442E1,6.052938825E0,4.054156155E0,7.399542650E0,1.038400125E1
1.335579442E1,4.832830741E0,4.143955062E0,7.811463205E0,1.007708162E1
1.336579342E1,2.623407682E0,3.565257591E0,7.442455366E0,8.659299707E0
1.337579242E1,-1.678443253E-2,2.891663318E0,6.180560739E0,6.823586264E0
1.338579242E1,-2.287244822E0,2.497579694E0,4.487699422E0,5.622173895E0
1.339579142E1,-3.915910143E0,2.314885341E0,2.997513124E0,5.447763882E0
1.340579142E1,-5.068969960E0,2.128814660E0,1.816360359E0,5.790118588E0
1.341579042E1,-5.831820518E0,2.027248378E0,7.185818732E-1,6.215804570E0
1.342579042E1,-6.289192066E0,1.850698133E0,-1.381168617E-1,6.557293396E0
1.343578942E1,-6.536773117E0,1.124899261E0,-9.112745261E-1,6.695164105E0
1.344578942E1,-6.382316576E0,2.049102639E-1,-1.391748422E0,6.535511974E0
1.345578842E1,-6.020938768E0,-6.280842242E-1,-2.036025195E0,6.386829576E0
1.346578842E1,-5.481547742E0,-1.564293032E0,-3.329637312E0,6.601580339E0
1.347578742E1,-4.760595408E0,-2.401645888E0,-3.672514529E0,6.474452454E0
1.348578742E1,-4.104510915E0,-2.828195592E0,-2.096036192E0,5.407316144E0
1.349578642E1,-3.993148354E0,-3.193713814E0,5.123323046E-1,5.138825361E0
1.350578642E1,-4.325450297E0,-3.686725017E0,2.737019959E0,6.308148689E0
1.351578542E1,-4.651276449E0,-3.917828030E0,4.064593728E0,7.314688732E0
1.352578442E1,-4.628917281E0,-3.847887437E0,4.622643803E0,7.589594762E0
1.353578442E1,-4.270035065E0,-3.543933088E0,4.697054300E0,7.270143072E0
1.354578342E1,-3.967482585E0,-3.352979397E0,4.162273512E0,6.656418683E0
1.355578342E1,-3.627448284E0,-3.219273455E0,3.309010674E0,5.871256618E0
1.356578242E1,-3.098481674E0,-2.862358827E0,2.045869421E0,4.688205246E0
1.357578242E1,-2.172265758E0,-2.061791243E0,7.483335297E-1,3.087025222E0
1.358578142E1,-9.909814310E-1,-1.112648979E0,-1.889040957E-1,1.501904359E0
1.359578142E1,2.205610675E-1,-4.601531408E-1,-8.893078525E-1,1.025308029E0
1.360578042E1,1.281686867E0,-6.570779353E-2,-2.115059816E0,2.473967818E0
1.361578042E1,2.399600825E0,3.768165037E-1,-4.747828013E0,5.333099065E0
1.362577942E1,4.672947400E0,1.617120287E0,-7.752411590E0,9.195183569E0
1.363577942E1,8.100297532E0,3.357825569E0,-9.998801916E0,1.329909216E1
1.364577842E1,1.015669077E1,4.324517374E0,-1.116314978E1,1.569954557E1
1.365577742E1,9.092065414E0,4.030041946E0,-8.478033510E0,1.306843310E1
1.366577742E1,5.862027234E0,3.253273552E0,-4.374991124E0,8.005479338E0
1.367577642E1,2.378703461E0,2.957206804E0,-3.675603321E0,5.283309759E0
1.368577642E1,-5.435320240E-1,3.511222594E0,-5.771197756E0,6.777229132E0
1.369577483E1,-2.326595414E0,4.703885895E0,-7.979292912E0,9.550324817E0
1.370577483E1,-3.066064711E0,6.159690857E0,-8.138882139E0,1.065757696E1
1.371577383E1,-2.972246135E0,7.221616555E0,-8.070376160E0,1.123018095E1
1.372577383E1,6.850597858E-3,7.732838620E0,-7.942063690E0,1.108481916E1
1.373577283E1,4.154896957E0,7.288382987E0,-4.512521144E0,9.526097961E0
1.374577283E1,5.065969169E0,5.135330011E0,5.771043974E-1,7.236622653E0
1.375577183E1,3.169595511E0,1.994650297E0,3.756379974E0,5.304277144E0
1.376577183E1,2.817145817E0,5.180826026E-1,6.222755417E0,6.850358028E0
1.377577083E1,3.223850656E0,-2.130570433E-1,7.737732739E0,8.385172288E0
1.378576983E1,2.852991003E0,-1.300002685E0,7.768380336E0,8.377189128E0
1.379576983E1,2.159876677E0,-2.503463455E0,7.538611658E0,8.231832254E0
1.380576883E1,1.480211533E0,-3.527053930E0,7.140653084E0,8.100621092E0
1.381576883E1,6.221425760E-1,-4.450920728E0,6.072015367E0,7.554278743E0
1.382576783E1,-1.037500709E-1,-5.141173718E0,4.518894317E0,6.845643660E0
1.383576783E1,3.576157093E-1,-5.253753085E0,3.915858688E0,6.562298357E0
1.384576683E1,1.982890815E0,-5.013558821E0,4.118188429E0,6.784327820E0
1.385576683E1,3.977562600E0,-4.754465480E0,4.377027709E0,7.588433159E0
1.386576583E1,5.706957321E0,-4.687881188E0,4.281199446E0,8.536642232E0
1.387576583E1,6.459014504E0,-4.639592835E0,3.909741038E0,8.861758574E0
1.388576483E1,6.187373915E0,-4.473490688E0,3.311544857E0,8.322382125E0
1.389576483E1,5.515002587E0,-3.830385844E0,2.765042740E0,7.261719534E0
1.390576383E1,4.446631503E0,-2.574799486E0,1.713185216E0,5.416375882E0
1.391576283E1,2.737582169E0,-1.335112438E0,5.280949362E-1,3.091240142E0
1.392576283E1,4.611792541E-1,-6.634497924E-1,-7.547585964E-3,8.080277826E-1
1.393576183E1,-1.824079853E0,-4.422443618E-1,-1.136313172E-1,1.880361525E0
1.394576183E1,-3.373201407E0,-2.557228602E-1,1.801480365E-1,3.387674015E0
1.395576083E1,-4.188149487E0,7.407223552E-2,8.873219919E-1,4.281754680E0
1.396576083E1,-4.690934604E0,4.560940037E-1,1.878768861E0,5.073722661E0
1.397575983E1,-5.008091090E0,8.002372165E-1,2.899968703E0,5.842189182E0
1.398575983E1,-5.373535051E0,9.948463675E-1,3.512162826E0,6.496143930E0
1.399575883E1,-5.681048893E0,1.142073630E0,3.563973250E0,6.802981260E0
1.400575883E1,-6.020124251E0,1.156702925E0,3.269520333E0,6.947634192E0
1.401575783E1,-6.446145952E0,1.046399514E0,2.723509675E0,7.075680499E0
1.402575783E1,-6.372135989E0,1.228877446E0,2.227108548E0,6.861069109E0
1.403575683E1,-6.034463378E0,1.451588827E0,1.894818299E0,6.489390940E0
1.404575583E1,-5.306007312E0,1.790495493E0,1.144457978E0,5.715712709E0
1.405575583E1,-4.826912189E0,1.922269953E0,3.166688275E-1,5.205236037E0
1.406575483E1,-4.460802814E0,2.259762616E0,-2.093665731E-1,5.004909908E0
1.407575483E1,-3.701327269E0,2.523117993E0,-2.817246974E-1,4.488353458E0
1.408575383E1,-3.044003166E0,2.652611015E0,8.629905581E-2,4.038532902E0
1.409575383E1,-2.586562622E0,2.851016398E0,5.251314211E-1,3.885146549E0
1.410575283E1,-2.513403429E0,2.596180122E0,5.799420512E-1,3.659737805E0
1.411575283E1,-2.376428309E0,2.141541856E0,3.455224248E-1,3.217607616E0
1.412575183E1,-2.039130505E0,1.651225487E0,-1.549841785E-1,2.628425179E0
1.413575183E1,-1.703232524E0,1.051827776E0,-8.871861903E-1,2.189621437E0
1.414575083E1,-1.125856231E0,5.984959973E-1,-1.615802032E0,2.058291990E0
1.415575083E1,-2.067014122E-1,3.215352459E-1,-2.316227131E0,2.347555859E0
1.416574983E1,4.232249773E-1,-2.355779598E-1,-3.248827330E0,3.284736728E0
1.417574883E1,6.098692703E-1,-1.326794043E0,-4.212552842E0,4.458466598E0
1.418574883E1,1.090726159E0,-2.741151601E0,-4.339338019E0,5.247232613E0
1.419574783E1,2.044793533E0,-4.064961225E0,-4.029049673E0,6.077691307E0
1.420574783E1,2.994167347E0,-5.369799850E0,-4.281789722E0,7.492230092E0
1.421574683E1,3.741310530E0,-6.351168458E0,-5.142046123E0,8.987512648E0
1.422574683E1,4.456762973E0,-6.787111130E0,-6.308799534E0,1.028243965E1
1.423574583E1,5.082246648E0,-6.595585581E0,-7.633618387E0,1.129615465E1
1.424574583E1,5.223618289E0,-5.592444280E0,-8.660004709E0,1.155669947E1
1.425574483E1,4.282757437E0,-3.999955682E0,-9.342444942E0,1.102827884E1
1.426574483E1,2.389718446E0,-2.631635883E0,-9.459202144E0,1.010508619E1
1.427574383E1,1.915150237E-1,-2.428373219E0,-8.587240788E0,8.926050573E0
1.428574383E1,-1.691142236E0,-3.436266552E0,-7.371208212E0,8.306780386E0
1.429574283E1,-2.220783030E0,-3.814419436E0,-5.999392948E0,7.448113093E0
1.430574183E1,-8.530918068E-1,-2.155055063E0,-4.795812311E0,5.326522663E0
1.431574183E1,4.559442419E-1,-3.667378043E-1,-2.592436442E0,2.657650932E0
1.432574083E1,6.821467030E-1,-4.437880267E-1,-1.840003868E0,2.011935926E0
1.433574083E1,2.537432562E0,7.093081892E-2,-1.573303299E0,2.986449138E0
1.434573983E1,6.805904081E0,2.102804490E0,5.318388791E0,8.889734328E0
1.435573983E1,9.678139440E0,4.701573029E0,1.418021483E1,1.780027147E1
1.436573883E1,5.298308868E0,3.056403941E0,8.873863113E0,1.077771444E1
1.437573883E1,1.221846462E0,1.469697508E0,3.009909221E0,3.565455519E0
1.438573783E1,7.233415067E-2,1.370323786E0,8.827773897E-1,1.631660328E0
1.439573783E1,2.314415663E-1,1.276313130E0,1.060367708E-1,1.301454648E0
1.440573683E1,1.101906036E0,1.031382475E0,4.960709055E-1,1.588720575E0
1.441573683E1,2.189765890E0,8.190218353E-1,1.662827679E0,2.868948816E0
1.442573583E1,3.225648090E0,9.262419364E-1,2.679222279E0,4.294294091E0
1.443573483E1,4.313811999E0,1.346967960E0,3.718278347E0,5.852255165E0
1.444573483E1,5.159705883E0,2.072341228E0,4.941717006E0,7.438933387E0
1.445573383E1,4.987992455E0,2.677797312E0,5.908763444E0,8.183162752E0
1.446573383E1,3.745605310E0,2.971866944E0,6.245689366E0,7.865760479E0
1.447573283E1,1.784596530E0,2.895211408E0,6.228319627E0,7.096407489E0
1.448573283E1,-2.780076224E-1,2.723838288E0,5.610061941E0,6.242545814E0
1.449573183E1,-1.993940883E0,2.522021055E0,4.506700534E0,5.535949796E0
1.450573183E1,-3.227522122E0,2.313502328E0,3.355779043E0,5.199081175E0
1.451573083E1,-3.893870818E0,2.172242808E0,2.182396205E0,4.964244349E0
1.452573083E1,-4.121456146E0,2.022763417E0,5.212804449E-1,4.620574196E0
1.453572983E1,-4.083127647E0,1.564978033E0,-1.389104311E0,4.588104011E0
1.454572883E1,-3.515357160E0,5.639124942E-1,-4.955081402E0,6.101521529E0
1.455572883E1,-2.462708654E0,-8.577517453E-1,-9.212432102E0,9.574423074E0
1.456572783E1,-1.955842765E0,-2.323769162E0,-9.330510775E0,9.812423521E0
1.457572783E1,-2.734725219E0,-3.677641660E0,-5.684408119E0,7.301798810E0
1.458572683E1,-4.022158729E0,-4.498365912E0,-1.771349955E0,6.288937700E0
1.459572683E1,-5.177038785E0,-4.629632980E0,1.436557390E0,7.092173802E0
1.460572583E1,-5.571650997E0,-4.200592362E0,3.678454131E0,7.887920881E0
1.461572583E1,-5.442871335E0,-3.486572194E0,5.415645529E0,8.432689401E0
1.462572483E1,-5.299684133E0,-2.768507215E0,6.657755517E0,8.948574894E0
1.463572483E1,-5.138455347E0,-2.168856539E0,7.399080720E0,9.265746464E0
1.464572383E1,-4.948059481E0,-1.659673106E0,7.380762563E0,9.039549958E0
1.465572283E1,-4.805830053E0,-1.269318398E0,6.422964665E0,8.121677584E0
1.466572283E1,-4.513507277E0,-1.017244127E0,5.238493606E0,6.989159378E0
1.467572183E1,-4.030658827E0,-9.007002752E-1,4.052636464E0,5.786305719E0
1.468572183E1,-3.260029133E0,-7.608680597E-1,2.672876588E0,4.283804315E0
1.469572083E1,-2.049016392E0,-4.028480885E-1,1.184582741E0,2.400831320E0
1.470572079E1,-8.082822543E-1,1.877650581E-3,-7.381618595E-1,1.094626265E0
1.471571979E1,3.927767712E-1,4.928672526E-1,-3.335010026E0,3.394036475E0
1.472571979E1,1.664104711E0,1.115977872E0,-6.618904277E0,6.915529259E0
1.473571879E1,3.679391440E0,2.216418668E0,-9.957062151E0,1.084405458E1
1.474571879E1,7.330151403E0,4.351092384E0,-1.215818801E1,1.484872588E1
1.475571779E1,1.012227640E1,6.041502256E0,-1.014111847E1,1.555000041E1
1.476571779E1,9.072678385E0,5.739342710E0,-5.586174896E0,1.210202040E1
1.477571679E1,5.886589049E0,4.872188642E0,-3.015027581E0,8.214654229E0
1.478571579E1,2.875648379E0,4.236764115E0,-3.271771804E0,6.076513351E0
1.479571579E1,-1.554464740E-1,3.233879215E0,-5.627331108E0,6.492225642E0
1.480571479E1,-1.997201291E0,2.749051190E0,-8.136338600E0,8.817374964E0
1.481571479E1,-2.076211792E0,3.049877279E0,-8.903589188E0,9.637754264E0
1.482571379E1,-2.819942540E-1,4.139238990E0,-8.493175460E0,9.452346247E0
1.483571379E1,3.019353059E0,5.660735666E0,-6.938080391E0,9.449729133E0
1.484571279E1,5.165835519E0,5.322377177E0,-5.536389363E0,9.255547666E0
1.485571279E1,4.162895363E0,2.374444349E0,-2.880471455E0,5.591493501E0
1.486571179E1,2.041760582E0,-5.277775054E-1,2.139833007E0,3.004366933E0
1.487571179E1,2.733657517E0,-1.285068312E0,5.136881862E0,5.959181089E0
1.488571079E1,3.662358500E0,-1.410716790E0,6.772450406E0,7.827456557E0
1.489570979E1,2.632273230E0,-2.437624391E0,7.309294385E0,8.142276060E0
1.490570979E1,1.360361738E0,-3.400512582E0,7.236216468E0,8.110295843E0
1.491570879E1,4.176379627E-1,-4.041827301E0,6.948612396E0,8.049472257E0
1.492570879E1,-5.203291029E-1,-4.651962912E0,6.026428134E0,7.630814987E0
1.493570779E1,-6.865859091E-1,-4.906954139E0,4.804362987E0,6.901558001E0
1.494570779E1,-5.363200682E-1,-4.990219660E0,3.737249931E0,6.257552917E0
1.495570679E1,6.995795918E-1,-4.352529337E0,3.557438109E0,5.664740871E0
1.496570679E1,2.802036027E0,-3.201083937E0,4.158815468E0,5.949293266E0
1.497570579E1,4.993809850E0,-2.184439076E0,4.608951963E0,7.138091418E0
1.498570579E1,6.304272619E0,-1.648162862E0,4.439600226E0,7.884817325E0
1.499570479E1,5.523185180E0,-2.145402187E0,3.551382148E0,6.908012756E0
1.500570379E1,4.333804214E0,-2.429859581E0,2.784831179E0,5.695731845E0
1.501570379E1,3.342333371E0,-1.981226551E0,2.230950022E0,4.480355902E0
1.502570279E1,2.269584476E0,-9.023711170E-1,1.685917164E0,2.967760774E0
1.503570279E1,9.482113874E-1,4.417410627E-2,1.375125958E0,1.670936141E0
1.504570179E1,-6.578468442E-1,4.608633582E-1,1.314590904E0,1.540554040E0
1.505570179E1,-2.073732573E0,6.414513977E-1,1.375463927E0,2.569771915E0
1.506570079E1,-3.101743251E0,7.778832380E-1,1.596136676E0,3.574012565E0
1.507570079E1,-3.834349086E0,9.067829874E-1,1.921365827E0,4.383621214E0
1.508569979E1,-4.473243935E0,8.870853259E-1,2.336239811E0,5.123948491E0
1.509569979E1,-4.654659063E0,9.179250030E-1,2.834676939E0,5.526647325E0
1.510569879E1,-4.791040106E0,7.965176564E-1,2.921346123E0,5.667695197E0
1.511569779E1,-5.006598296E0,6.498219793E-1,2.293925850E0,5.545303500E0
1.512569779E1,-5.126398973E0,5.605686908E-1,1.494251282E0,5.369077257E0
1.513569679E1,-4.921300868E0,6.258299764E-1,1.004345827E0,5.061578403E0
1.514569679E1,-4.614179374E0,7.649094359E-1,2.690970870E-1,4.684885376E0
1.515569579E1,-4.192433742E0,1.117594407E0,-4.272641973E-1,4.359824840E0
1.516569579E1,-3.999977317E0,1.509560316E0,-1.061379569E0,4.405124002E0
1.517569479E1,-3.823880231E0,2.105388814E0,-1.201780572E0,4.527581984E0
1.518569479E1,-3.528988774E0,2.741526116E0,-7.380181642E-1,4.529282285E0
1.519569379E1,-3.320875844E0,2.849768602E0,-1.670140207E-1,4.379188411E0
1.520569379E1,-3.256168216E0,2.372885189E0,4.239688893E-1,4.051291793E0
1.521569279E1,-3.105691291E0,1.704019559E0,1.146021523E0,3.723219895E0
1.522569179E1,-2.871993869E0,1.164413940E0,1.866997247E0,3.617994932E0
1.523569179E1,-2.697418814E0,7.733171473E-1,2.226499560E0,3.582092679E0
1.524569079E1,-2.682645239E0,5.320129361E-1,2.059874672E0,3.423843878E0
1.525569079E1,-2.330506032E0,6.483465806E-1,1.547495151E0,2.871646373E0
1.526568979E1,-1.552355064E0,9.555949590E-1,6.363106719E-1,1.930766491E0
1.527568979E1,-7.764611220E-1,1.073009242E0,-5.593165827E-1,1.437732850E0
1.528568879E1,1.263706094E-1,9.026925677E-1,-1.629518138E0,1.867124196E0
1.529568879E1,1.008751119E0,1.534253108E-1,-2.511269195E0,2.710644041E0
1.530568779E1,1.696688905E0,-1.872792130E0,-3.237779893E0,4.107228048E0
1.531568779E1,2.681057135E0,-4.053536935E0,-4.251385078E0,6.457050730E0
1.532568679E1,4.071394039E0,-4.999745944E0,-5.886898366E0,8.730938168E0
1.533568579E1,5.715725221E0,-4.620069567E0,-7.710827361E0,1.065229629E1
1.534568579E1,6.940797592E0,-3.633169785E0,-8.677417717E0,1.169068741E1
1.535568479E1,6.602787597E0,-2.637311776E0,-8.784691905E0,1.130146138E1
1.536568479E1,4.261347857E0,-1.985628482E0,-8.256193657E0,9.500870472E0
1.537568379E1,1.020771825E0,-1.677355379E0,-7.229046028E0,7.490968072E0
1.538568379E1,-2.126301965E0,-9.948593044E-1,-5.593693246E0,6.066325841E0
1.539568279E1,-4.197146598E0,-6.964954779E-2,8.154117644E-1,4.276188369E0
1.540568279E1,-2.197842649E0,3.501982239E-1,1.132032645E1,1.153702483E1
1.541568179E1,-7.788578957E-1,-3.360054235E0,3.796360896E0,5.129224126E0
1.542568179E1,-4.440638691E-1,-2.254454513E0,-1.375651622E1,1.394709635E1
1.543568079E1,1.886509990E0,-3.510133258E-1,-1.373469675E1,1.386809378E1
1.544567979E1,2.786588852E0,-1.191992625E0,-9.024026628E0,9.519400214E0
1.545567979E1,3.457405406E0,-1.235319031E0,-7.135311652E0,8.024483636E0
1.546567879E1,3.766559392E0,-5.321308306E-1,-4.674436101E0,6.026647968E0
1.547567879E1,3.070353643E0,-1.216250092E-1,-2.556393620E0,3.997125527E0
1.548567779E1,1.903848154E0,-4.930489182E-2,-7.512091903E-1,2.047286989E0
1.549567779E1,9.862902099E-1,-1.495966271E-1,6.040641546E-1,1.166207971E0
1.550567679E1,6.619837493E-1,-3.904903637E-1,1.634767768E0,1.806424885E0
1.551567679E1,8.351601505E-1,-6.583071662E-1,2.497033564E0,2.714044477E0
1.552567579E1,1.673521067E0,-6.237555304E-1,3.470140057E0,3.902770264E0
1.553567579E1,2.920750877E0,7.451253086E-3,4.505066822E0,5.369028615E0
1.554567479E1,3.806518679E0,5.293888519E-1,5.288199617E0,6.537192990E0
1.555567379E1,4.407658056E0,8.395787452E-1,6.049473181E0,7.531830307E0
1.556567379E1,4.634279763E0,1.190375651E0,6.550399468E0,8.111798586E0
1.557567279E1,4.383731250E0,1.641442949E0,6.475005469E0,7.989814169E0
1.558567279E1,3.718352022E0,1.928656428E0,6.072552141E0,7.377109656E0
1.559567179E1,2.553546903E0,1.999784444E0,5.628337998E0,6.495993245E0
1.560567179E1,8.816507775E-1,1.725721354E0,5.362967963E0,5.702354571E0
1.561567079E1,-9.156078976E-1,1.382036782E0,4.731645259E0,5.013664363E0
1.562567079E1,-2.365311583E0,1.113667929E0,3.639079273E0,4.480831741E0
1.563566979E1,-3.330600348E0,9.286642917E-1,2.802037489E0,4.450475270E0
1.564566879E1,-3.948330615E0,8.960120507E-1,1.936811978E0,4.488139133E0
1.565566879E1,-4.333852161E0,7.257308983E-1,1.034569062E0,4.514343035E0
1.566566779E1,-4.519745087E0,3.863065347E-1,5.177724078E-2,4.536519511E0
1.567566779E1,-4.450473123E0,1.223877785E-1,-7.042984410E-1,4.507518839E0
1.568566679E1,-4.225765210E0,-1.838315265E-1,-9.655603686E-1,4.338570325E0
1.569566679E1,-3.957928820E0,-6.630526203E-1,-1.515791255E0,4.289809139E0
1.570566583E1,-3.887513725E0,-1.467755355E0,-2.630431942E0,4.917950889E0
1.571566583E1,-4.085205163E0,-2.363454215E0,-3.048996688E0,5.618825309E0
1.572566483E1,-4.531168208E0,-2.940129134E0,-1.555648070E0,5.621021755E0
1.573566483E1,-5.045108058E0,-3.076213723E0,8.405585924E-1,5.968479281E0
1.574566383E1,-5.475936754E0,-2.839374592E0,2.879322184E0,6.807233480E0
1.575566283E1,-5.655567312E0,-2.555376205E0,4.304260280E0,7.552618468E0
1.576566283E1,-5.512671302E0,-2.274005848E0,5.138682804E0,7.871893574E0
1.577566183E1,-5.146683549E0,-2.082607915E0,5.195349340E0,7.603766307E0
1.578566183E1,-4.594161431E0,-1.991494116E0,4.173599861E0,6.518535408E0
1.579566083E1,-3.681284183E0,-1.842553254E0,2.426074094E0,4.778356542E0
1.580566083E1,-2.483189111E0,-1.585125638E0,1.840833588E-1,2.951734767E0
1.581565983E1,-1.142403851E0,-1.199856399E0,-2.614135752E0,3.094906730E0
1.582565983E1,7.325298214E-1,-5.057408845E-1,-5.355378277E0,5.428853495E0
1.583565883E1,4.043220400E0,1.197793502E0,-7.472445735E0,8.580197302E0
1.584565783E1,7.862046883E0,3.115557883E0,-8.793339352E0,1.220005324E1
1.585565783E1,1.022943130E1,4.184073101E0,-7.482041016E0,1.334648532E1
1.586565683E1,1.024758691E1,4.403653006E0,-4.781512945E0,1.213540536E1
1.587565683E1,8.523911349E0,4.425736185E0,-3.156789232E0,1.010987259E1
1.588565583E1,5.421229035E0,4.046169151E0,-4.226037691E0,7.976252479E0
1.589565583E1,1.030293431E0,2.667187539E0,-7.254929312E0,7.798037782E0
1.590565483E1,-1.819245960E0,2.138427629E0,-9.289917065E0,9.704900188E0
1.591565483E1,-2.671580552E0,2.847331483E0,-9.336303027E0,1.011984157E1
1.592565383E1,-1.381875399E0,4.664567170E0,-8.472986194E0,9.770325560E0
1.593565383E1,2.366789759E0,7.164810855E0,-7.024529135E0,1.030922974E1
1.594565283E1,6.049598896E0,7.579162098E0,-5.352058228E0,1.107636548E1
1.595565183E1,6.030021833E0,4.420290673E0,-2.211173716E0,7.796757156E0
1.596565183E1,3.446229622E0,9.197199520E-1,1.255541334E0,3.781371106E0
1.597565083E1,1.600083547E0,-6.175399402E-1,3.409194236E0,3.816310819E0
1.598565083E1,2.329706132E-1,-1.060223720E0,6.242342420E0,6.336023085E0
1.599564983E1,-7.127995616E-1,-1.283813353E0,7.976728324E0,8.110761659E0
1.600564983E1,-9.506444138E-1,-1.817634760E0,9.031457269E0,9.261465398E0
1.601564883E1,-9.528453058E-1,-2.668170456E0,8.809246702E0,9.253641187E0
1.602564883E1,-1.216450651E0,-4.061981776E0,7.502332023E0,8.617681471E0
1.603564783E1,-8.256262654E-1,-5.280088944E0,6.598344297E0,8.491121566E0
1.604564783E1,9.609360981E-1,-5.694397502E0,6.584174740E0,8.757906034E0
1.605564683E1,4.197214426E0,-5.411472371E0,7.334608735E0,1.003479584E1
1.606564583E1,7.638846382E0,-4.923078421E0,7.831090554E0,1.199644341E1
1.607564583E1,1.021360289E1,-4.628863487E0,7.176203570E0,1.331322496E1
1.608564483E1,1.077832230E1,-5.022207438E0,5.063015156E0,1.292396695E1
1.609564483E1,9.664532969E0,-5.055524873E0,2.397390285E0,1.116731881E1
1.610564383E1,7.627109851E0,-4.241595377E0,6.270682704E-1,8.749694317E0
1.611564383E1,4.891432706E0,-3.132106673E0,-8.985580746E-1,5.877381452E0
1.612564283E1,2.194843612E0,-2.028418698E0,-2.248498832E0,3.739995707E0
1.613564283E1,-3.492056590E-1,-1.316907132E0,-3.132463353E0,3.415920907E0
1.614564183E1,-2.424455000E0,-9.493270361E-1,-3.266035393E0,4.176863782E0
1.615564083E1,-4.080049088E0,-8.870642759E-1,-2.822028826E0,5.039596243E0
1.616564083E1,-5.312766109E0,-9.979537971E-1,-1.868003553E0,5.719338491E0
1.617563983E1,-6.055496398E0,-9.424407703E-1,-5.851700467E-1,6.156269586E0
1.618563983E1,-6.431252509E0,-7.697160664E-1,7.643077574E-1,6.522088469E0
1.619563883E1,-6.739371538E0,-6.232964509E-1,1.889710171E0,7.026993078E0
1.620563883E1,-6.962800080E0,-4.500742221E-1,2.580248213E0,7.439141926E0
1.621563783E1,-7.033358431E0,-2.557116044E-1,2.824788712E0,7.583729327E0
1.622563783E1,-6.907908173E0,5.579880953E-2,2.768200529E0,7.442126242E0
1.623563683E1,-6.626825500E0,4.769363308E-1,2.643657174E0,7.150608906E0
1.624563583E1,-6.169456292E0,1.022925574E0,2.307066883E0,6.665667654E0
1.625563583E1,-5.572339799E0,1.526312735E0,1.797428829E0,6.050731509E0
1.626563483E1,-4.979352025E0,2.050506117E0,1.118148943E0,5.499888997E0
1.627563483E1,-4.492933264E0,2.448159466E0,4.685209815E-1,5.138039120E0
1.628563383E1,-4.038175423E0,2.592236175E0,9.507163346E-2,4.799540368E0
1.629563383E1,-3.437348871E0,2.494183339E0,-7.257969718E-2,4.247538770E0
1.630563283E1,-2.879798732E0,2.213407352E0,-1.870296063E-1,3.636948297E0
1.631563283E1,-2.277218016E0,1.994717686E0,-3.707351071E-1,3.049928698E0
1.632563183E1,-1.594246271E0,1.919223992E0,-4.006196415E-1,2.526962208E0
1.633563083E1,-1.089816332E0,1.680057377E0,-7.582248259E-1,2.141307384E0
1.634563083E1,-6.576100320E-1,1.479793895E0,-1.327241939E0,2.093755500E0
1.635562983E1,-2.329302675E-1,1.246702391E0,-2.158054100E0,2.503142197E0
1.636562983E1,3.531852740E-1,9.202816502E-1,-3.033942447E0,3.190057198E0
1.637562883E1,1.204605947E0,6.294407051E-1,-3.757586839E0,3.995839079E0
1.638562883E1,1.992520595E0,-6.554502167E-2,-3.955830839E0,4.429789170E0
1.639562783E1,2.684487696E0,-1.588067226E0,-3.404314442E0,4.617119072E0
1.640562783E1,3.490581923E0,-3.369858262E0,-2.718730745E0,5.561618805E0
1.641562683E1,4.192896842E0,-4.470286998E0,-2.903636076E0,6.781957847E0
1.642562683E1,4.542465613E0,-4.903445225E0,-3.967494864E0,7.772952105E0
1.643562583E1,4.605752367E0,-5.236160567E0,-5.657540163E0,8.979871549E0
1.644562483E1,4.349649584E0,-5.444784544E0,-7.388781434E0,1.015673281E1
1.645562483E1,3.798068867E0,-4.766679436E0,-8.963700904E0,1.083948771E1
1.646562383E1,2.685990431E0,-3.770631977E0,-9.593681087E0,1.065227332E1
1.647562383E1,1.076294062E0,-3.247481593E0,-8.839632343E0,9.478588796E0
1.648562283E1,-6.791079050E-1,-3.728993078E0,-7.620941623E0,8.511482136E0
1.649562283E1,-1.978427051E0,-4.898172791E0,-6.454702767E0,8.340830780E0
1.650562183E1,-1.520574278E0,-4.160330774E0,-4.171833124E0,6.084791689E0
1.651562183E1,1.509967428E-1,-2.097029926E0,-2.065133365E0,2.947051127E0
1.652562083E1,1.067099315E0,-1.290682516E0,-1.649890422E0,2.350893598E0
1.653561983E1,1.711328579E0,-8.359942558E-1,-2.465522919E0,3.115499183E0
1.654561983E1,2.675905738E0,-2.054987861E-1,-2.601727083E0,3.737871732E0
1.655561883E1,3.185487658E0,4.205089456E-1,-1.758735757E0,3.662964763E0
1.656561883E1,3.293588642E0,9.394383712E-1,-1.238466588E-1,3.427186688E0
1.657561783E1,3.554866796E0,1.364200289E0,3.561826737E0,5.213897781E0
1.658561783E1,7.206524892E0,4.028297136E0,2.233575802E1,2.381275425E1
1.659561683E1,3.187751116E0,1.509033336E0,2.586317506E1,2.610254323E1
1.660561683E1,-2.355720395E-1,-1.103715018E0,6.513992364E0,6.611034529E0
1.661561583E1,1.729988213E0,3.728365964E-1,-1.500300519E-1,1.776056126E0
