"Time (s)","Linear Acceleration x (m/s^2)","Linear Acceleration y (m/s^2)","Linear Acceleration z (m/s^2)","Absolute acceleration (m/s^2)"
2.332775004E-2,-3.282755506E-1,-2.851207602E-1,-2.591807574E-1,5.061949723E-1
3.333175008E-2,4.636725068E-2,4.573224306E-2,2.989277905E-1,3.059398371E-1
4.333475011E-2,3.119653273E-1,1.713187408E-1,6.824191833E-1,7.696547395E-1
5.333875003E-2,4.063791490E-1,1.537735856E-1,8.309413844E-1,9.376854018E-1
6.334175006E-2,3.864114922E-1,4.028310585E-1,6.973079485E-1,8.932105452E-1
7.334575010E-2,5.222136605E-1,7.050724661E-1,3.498646402E-1,9.445843298E-1
8.334875002E-2,8.572328049E-1,1.086602703E0,-5.863880217E-2,1.385276876E0
9.335275006E-2,1.294775859E0,1.053080031E0,1.510043442E-2,1.669026692E0
1.033557501E-1,1.674306348E0,7.165312546E-1,1.969523495E-1,1.831804851E0
1.133597500E-1,1.814402711E0,6.292533749E-1,6.844838351E-2,1.921640495E0
1.233627500E-1,1.790237339E0,5.030932653E-1,-3.237538987E-1,1.887556396E0
1.333667501E-1,1.640419979E0,3.803759962E-1,-8.883554873E-1,1.903901016E0
1.433697500E-1,1.543312930E0,4.630304825E-1,-1.778662190E0,2.399969003E0
1.533737500E-1,1.654355648E0,5.596779406E-2,-2.923195013E0,3.359329410E0
1.633767501E-1,1.669228626E0,-5.539213568E-1,-3.803017074E0,4.189999038E0
1.733797501E-1,1.475680525E0,-5.984046346E-1,-3.833393067E0,4.150978622E0
1.833837500E-1,1.301984891E0,-3.549388540E-1,-3.488357642E0,3.740292139E0
1.933867501E-1,1.333118976E0,-1.962641323E-1,-3.089155950E0,3.370253744E0
2.033907501E-1,1.647039320E0,3.027910459E-1,-2.052227683E0,2.648784514E0
2.133937500E-1,2.105263098E0,1.063793299E0,-7.607262647E-1,2.478405404E0
2.233977501E-1,2.411633810E0,1.526354250E0,-4.027158684E-1,2.882345399E0
2.334007501E-1,2.527816231E0,2.159271491E0,-4.887985772E-1,3.360242895E0
2.434047500E-1,2.413003228E0,2.788771618E0,-7.657794285E-1,3.766463839E0
2.534077500E-1,2.197975088E0,3.177638941E0,-1.052619270E0,4.004558784E0
2.634117501E-1,1.870921021E0,3.368048841E0,-1.284285954E0,4.061217659E0
2.734147500E-1,1.550207089E0,3.303323087E0,-1.460043316E0,3.930243240E0
2.834187500E-1,1.345363338E0,2.916883528E0,-1.512501612E0,3.550475060E0
2.934217501E-1,1.185629393E0,2.409221249E0,-1.629984453E0,3.141164338E0
3.034257501E-1,9.535688987E-1,2.130819524E0,-1.752359076E0,2.918980613E0
3.134287500E-1,6.630233842E-1,2.089113674E0,-1.815601391E0,2.846120932E0
3.234320000E-1,5.020185471E-1,2.109618689E0,-1.708105009E0,2.760459447E0
3.334360000E-1,4.303319755E-1,1.960372603E0,-1.666952890E0,2.609018645E0
3.434390001E-1,3.864629477E-1,1.753413329E0,-1.733456197E0,2.495732818E0
3.534430000E-1,3.629685429E-1,1.921951718E0,-1.551000849E0,2.496246824E0
3.634460000E-1,4.576893434E-1,1.789988247E0,-1.272998489E0,2.243671681E0
3.734500001E-1,5.662016791E-1,9.231747794E-1,-1.223749731E0,1.634135679E0
3.834530001E-1,4.870724791E-1,1.179348314E-1,-1.286559936E0,1.380718905E0
3.934570000E-1,1.308352509E-1,3.687254190E-2,-1.545014470E0,1.550982643E0
4.034600001E-1,-5.393354774E-1,7.371935606E-1,-1.851895643E0,2.064910307E0
4.134640001E-1,-1.250460689E0,1.757021061E0,-1.848901284E0,2.840635650E0
4.234670000E-1,-1.458817155E0,2.413633558E0,-1.494419097E0,3.191717857E0
4.334710001E-1,-1.095854460E0,2.676198683E0,-1.086487513E0,3.089238014E0
4.434740001E-1,-3.934547558E-1,2.932302636E0,-4.304462886E-1,2.989730657E0
4.534770000E-1,2.223175710E-1,2.866665301E0,-2.648613274E-2,2.875395028E0
4.634810000E-1,5.776888266E-1,2.230370125E0,-1.202889204E-2,2.304000861E0
4.734840001E-1,5.681675130E-1,1.487756195E0,-9.483832955E-2,1.595376798E0
4.834880000E-1,1.178746051E-1,1.240064632E0,2.609588957E-1,1.272695666E0
4.934910000E-1,-6.416649672E-1,1.440216578E0,8.136014664E-1,1.774233656E0
5.034950001E-1,-1.361426516E0,1.935451185E0,1.339294805E0,2.719037334E0
5.134980001E-1,-1.599377495E0,2.391683695E0,1.782308514E0,3.384491529E0
5.235020000E-1,-1.280767685E0,2.755062420E0,1.996723573E0,3.635607216E0
5.335050001E-1,-8.072709784E-1,2.880752998E0,2.047886125E0,3.625501600E0
5.435090001E-1,-5.735967989E-1,2.720354517E0,1.860502160E0,3.345266846E0
5.535120000E-1,-9.762172115E-1,2.245560606E0,1.523751070E0,2.883983322E0
5.635160001E-1,-1.847952865E0,1.698055984E0,1.104541376E0,2.741958345E0
5.735190001E-1,-2.542488064E0,1.412408389E0,5.508287644E-1,2.960161371E0
5.835220000E-1,-2.654465752E0,1.371958521E0,1.530134475E-1,2.991967869E0
5.935260000E-1,-2.171494510E0,1.744654784E0,-6.771718919E-2,2.786358617E0
6.035290001E-1,-1.585629376E0,2.364312294E0,1.422159791E-1,2.850336563E0
6.135330001E-1,-1.143999995E0,2.640728889E0,5.135200202E-1,2.923335058E0
6.235360000E-1,-9.176121770E-1,2.203586369E0,8.308472443E-1,2.527471490E0
6.335400001E-1,-9.065844744E-1,1.323631868E0,1.089873050E0,1.939515403E0
6.435430001E-1,-1.163442279E0,3.430725145E-1,1.597163447E0,2.005549243E0
6.535470000E-1,-1.420103471E0,-4.351649916E-1,2.347505057E0,2.777920523E0
6.635500001E-1,-1.638119100E0,-9.783058369E-1,2.835739962E0,3.417884964E0
6.735540001E-1,-1.715713990E0,-1.095996839E0,2.782151400E0,3.447499091E0
6.835570000E-1,-1.654943001E0,-7.284402788E-1,2.080617669E0,2.756525251E0
6.935610001E-1,-1.384862741E0,-1.610954690E-1,1.214060894E0,1.848713179E0
7.035640001E-1,-1.022588848E0,4.229717928E-1,7.257792109E-1,1.323385262E0
7.135670000E-1,-7.728143598E-1,7.344365984E-1,1.481719530E-1,1.076380081E0
7.235710000E-1,-6.788636376E-1,7.713535792E-1,-5.526852554E-1,1.166748976E0
7.335740001E-1,-6.434530458E-1,5.664373219E-1,-8.542396152E-1,1.210210057E0
7.435780001E-1,-6.537937005E-1,-3.689359188E-2,-9.734234118E-1,1.173183907E0
7.535810000E-1,-9.363827625E-1,-8.112602413E-1,-7.468274331E-1,1.446619187E0
7.635850001E-1,-1.284264027E0,-1.576163172E0,-8.226190424E-1,2.193245660E0
7.735880001E-1,-1.406761733E0,-1.939364727E0,-1.144287239E0,2.655090846E0
7.835920000E-1,-1.373966455E0,-1.791762877E0,-1.227348107E0,2.569938015E0
7.935950001E-1,-1.231963461E0,-1.396795739E0,-1.421262243E0,2.342809994E0
8.035990001E-1,-9.480334859E-1,-1.004701923E0,-1.781809162E0,2.254559233E0
8.136020000E-1,-5.504057184E-1,-7.030680406E-1,-2.232528332E0,2.404461245E0
8.236060000E-1,-1.517687215E-1,-4.265795249E-1,-2.743436401E0,2.780547989E0
8.336090001E-1,2.570614341E-1,-1.915582931E-1,-2.899940636E0,2.917607042E0
8.436130000E-1,5.880081390E-1,-1.790078294E-1,-2.829205114E0,2.895202748E0
8.536160000E-1,8.472413751E-1,-4.341464067E-1,-2.924464443E0,3.075515133E0
8.636190001E-1,1.018059448E0,-7.298178828E-1,-3.124773095E0,3.366494627E0
8.736230001E-1,1.142111052E0,-1.077958764E0,-3.042118024E0,3.423579241E0
8.836260000E-1,1.256580092E0,-1.537140609E0,-2.770196183E0,3.408193315E0
8.936300001E-1,1.261901059E0,-1.803025784E0,-2.702076121E0,3.484897649E0
9.036330001E-1,7.453488185E-1,-1.606624827E0,-2.740156113E0,3.262704970E0
9.136370000E-1,1.643747337E-1,-1.195300103E0,-2.835202603E0,3.081255457E0
9.236400001E-1,-6.463585272E-2,-7.055414128E-1,-2.963367139E0,3.046885504E0
9.336440001E-1,1.747761995E-1,-2.751576895E-1,-2.889228537E0,2.907559116E0
9.436470000E-1,7.712806351E-1,-1.565083283E-1,-2.682792004E0,2.795843631E0
9.536510000E-1,1.262574365E0,-2.223432988E-1,-2.746112671E0,3.030621285E0
9.636540001E-1,1.681774119E0,-2.415098870E-1,-3.113904290E0,3.547265305E0
9.736580000E-1,1.872192059E0,-1.924499935E-1,-3.493226618E0,3.967968285E0
9.836610000E-1,1.770052165E0,-6.040758491E-2,-3.361967736E0,3.799942211E0
9.936650001E-1,1.441267615E0,3.344548881E-2,-2.476664203E0,2.865700004E0
1.003668000E0,1.069172153E0,-2.943488359E-2,-1.572574736E0,1.901837744E0
1.013671000E0,7.596872145E-1,-8.674929142E-2,-8.289363742E-1,1.127734728E0
1.023675000E0,4.608899631E-1,-1.206339061E-1,-2.506467462E-1,5.383269348E-1
1.033678000E0,2.003231232E-1,-2.101863527E-1,3.692113227E-1,4.697069909E-1
1.043682000E0,-5.280181915E-3,-1.435152304E-1,9.500450742E-1,9.608382511E-1
1.053685000E0,8.289012909E-3,6.417786956E-2,1.468093178E0,1.469518658E0
1.063689000E0,1.788688119E-1,3.340982080E-1,2.064522039E0,2.099015701E0
1.073692000E0,2.731576493E-1,8.602587390E-1,2.848782762E0,2.988347942E0
1.083696000E0,1.647220583E-1,1.776444342E0,3.172745406E0,3.639945229E0
1.093699000E0,9.697621778E-2,2.597983988E0,2.683241655E0,3.736135833E0
1.103703000E0,3.157841438E-1,3.042903305E0,1.749537794E0,3.524182549E0
1.113706000E0,7.097210026E-1,3.251920214E0,9.109505904E-1,3.450872348E0
1.123710000E0,9.355860794E-1,3.365968986E0,5.645779073E-1,3.538900499E0
1.133713000E0,9.321289131E-1,3.356441533E0,9.860107130E-1,3.620328880E0
1.143717000E0,5.873111509E-1,2.936568764E0,2.165506377E0,3.695644513E0
1.153720000E0,-8.397551849E-2,1.876983706E0,4.542609454E0,4.915833640E0
1.163724000E0,-5.347056520E-1,4.017744666E-1,5.972917340E0,6.010247450E0
1.173727000E0,-4.532296720E-1,-7.235666245E-1,6.388340378E0,6.445142247E0
1.183730000E0,-5.794815829E-1,-9.997838295E-1,6.358822464E0,6.462970659E0
1.193734000E0,-6.208139424E-1,-8.668555677E-1,5.212903267E0,5.320827848E0
1.203737000E0,-1.543939751E-1,-6.712650347E-1,3.657285456E0,3.721581808E0
1.213741000E0,4.702912626E-1,-4.946656734E-1,1.989318659E0,2.103153995E0
1.223744000E0,1.006560460E0,-4.563962317E-1,8.055252922E-1,1.367600993E0
1.233748000E0,1.558334135E0,-6.313876086E-1,6.044927555E-1,1.786747626E0
1.243751000E0,2.028936761E0,-9.021090156E-1,9.266895407E-1,2.406062876E0
1.253755000E0,2.503634486E0,-1.176639591E0,1.681810080E0,3.237460658E0
1.263758000E0,2.984047571E0,-1.401601565E0,2.600043962E0,4.198720693E0
1.273762000E0,3.347325724E0,-1.646651357E0,3.374472007E0,5.030219828E0
1.283765000E0,3.441328779E0,-1.819031952E0,3.731326409E0,5.392069897E0
1.293769000E0,3.343064273E0,-1.923192497E0,3.465865157E0,5.185264642E0
1.303772000E0,2.911928890E0,-1.912835909E0,2.768269526E0,4.449897442E0
1.313776000E0,2.195444267E0,-1.716979620E0,1.612425849E0,3.219924171E0
1.323778500E0,1.751337713E0,-1.454626456E0,-6.870127559E-2,2.277683423E0
1.333782500E0,1.453560947E0,-1.168777425E0,-1.665699247E0,2.500686721E0
1.343785500E0,1.214286597E0,-8.650777218E-1,-2.754587626E0,3.132188435E0
1.353789500E0,1.034052022E0,-6.802861190E-1,-3.408870007E0,3.626630325E0
1.363792500E0,9.299525794E-1,-5.786372450E-1,-3.788285306E0,3.943442458E0
1.373795500E0,9.175789940E-1,-5.279430547E-1,-4.062921424E0,4.198571850E0
1.383799500E0,9.127427620E-1,-3.885758391E-1,-4.266105151E0,4.379925078E0
1.393802500E0,8.649832892E-1,-2.751109117E-1,-4.389762068E0,4.482621233E0
1.403806500E0,8.969444624E-1,-3.839313957E-1,-3.877232566E0,3.998105183E0
1.413809500E0,1.120912849E0,-5.551007402E-1,-2.958519212E0,3.212073843E0
1.423813500E0,1.169824807E0,-7.098493490E-1,-2.604081464E0,2.941702985E0
1.433816500E0,1.018482202E0,-8.360515586E-1,-2.479663825E0,2.808027936E0
1.443820500E0,8.715896197E-1,-1.228715186E0,-1.793384895E0,2.342144072E0
1.453823500E0,3.619042034E-1,-1.354711281E0,-5.348956865E-1,1.500776700E0
1.463827500E0,-4.297091009E-1,-7.864306247E-1,7.505398303E-1,1.168945283E0
1.473830500E0,-8.658014609E-1,1.035714385E-1,1.794198242E0,1.994865044E0
1.483834500E0,-7.085544831E-1,7.363100463E-1,2.376881468E0,2.587231620E0
1.493837500E0,2.866392821E-2,8.762871265E-1,1.945091490E0,2.133560792E0
1.503841500E0,6.620600554E-1,8.487718838E-1,1.237411165E0,1.640098662E0
1.513844500E0,6.831050617E-1,1.040204169E0,5.426806694E-1,1.357630122E0
1.523848500E0,4.003059384E-1,1.244546522E0,1.796176940E-1,1.319622449E0
1.533851500E0,-9.757277995E-2,1.214907279E0,-2.642538017E-1,1.247136807E0
1.543855500E0,-7.949289680E-1,1.059469576E0,-8.880827147E-1,1.594703344E0
1.553858500E0,-1.554900649E0,7.351218921E-1,-1.414332708E0,2.226759357E0
1.563862500E0,-2.202875639E0,3.754719365E-1,-1.430131300E0,2.653095512E0
1.573865500E0,-2.527206366E0,1.299245471E-1,-1.159034502E0,2.783345717E0
1.583869500E0,-2.815740731E0,2.205066884E-1,-1.077975136E0,3.023086082E0
1.593872500E0,-3.024865814E0,4.964204228E-1,-1.045679795E0,3.238779502E0
1.603875500E0,-2.957791818E0,6.318659109E-1,-4.609091127E-1,3.059448346E0
1.613879500E0,-2.689673884E0,3.048147672E-1,4.894645751E-2,2.707333264E0
1.623882500E0,-2.430591360E0,3.282159090E-2,3.624034095E-1,2.457679362E0
1.633886500E0,-2.364545305E0,-3.395413810E-1,1.024246241E0,2.599123547E0
1.643889500E0,-2.449548033E0,-5.989174354E-1,1.683526822E0,3.032037306E0
1.653893500E0,-2.693046266E0,-4.884682095E-1,2.049711041E0,3.419417309E0
1.663896500E0,-2.763566610E0,-3.979205668E-2,2.001472097E0,3.412444047E0
1.673900500E0,-2.621445648E0,7.192256516E-1,1.533741038E0,3.121157541E0
1.683903500E0,-2.547838559E0,1.726095722E0,9.672212702E-1,3.225895961E0
1.693907500E0,-2.560862647E0,2.744789447E0,8.217934155E-1,3.842815507E0
1.703910500E0,-2.425484987E0,3.365697091E0,1.149284270E0,4.304851758E0
1.713914500E0,-2.068849855E0,3.351487187E0,1.388186299E0,4.176082768E0
1.723917500E0,-1.596302445E0,2.970509512E0,1.680428967E0,3.767751289E0
1.733921500E0,-9.917281204E-1,2.405612347E0,2.066926998E0,3.323053212E0
1.743924500E0,-2.719969770E-1,1.762201694E0,2.437878453E0,3.020362315E0
1.753928500E0,3.780979210E-1,8.150433898E-1,2.054321571E0,2.242206699E0
1.763931500E0,4.486989570E-1,2.598140109E-1,7.604800969E-1,9.204151520E-1
1.773935500E0,1.731647068E-1,4.041133529E-1,1.561183190E-1,4.665474758E-1
1.783938500E0,-5.268788615E-1,7.679388052E-1,-6.123122370E-1,1.114566112E0
1.793942500E0,-1.232729007E0,1.077136061E0,-1.380517675E0,2.141418210E0
1.803945500E0,-1.503046956E0,1.107473170E0,-1.718620641E0,2.537578350E0
1.813949500E0,-1.269546001E0,8.265489560E-1,-1.677526410E0,2.260315261E0
1.823952500E0,-6.675736874E-1,3.329796356E-1,-1.156800866E0,1.376487671E0
1.833956500E0,4.302293569E-2,-2.045303410E-1,-4.541906619E-1,4.999727900E-1
1.843959500E0,7.021959284E-1,-6.128513503E-1,9.763212919E-2,9.371221543E-1
1.853963500E0,1.146274416E0,-9.438265604E-1,2.051255876E-1,1.498943000E0
1.863966500E0,1.282560149E0,-1.241322953E0,1.270599961E-1,1.789409805E0
1.873969500E0,1.351861641E0,-1.435848123E0,2.351218039E-1,1.986069483E0
1.883973500E0,1.362724598E0,-1.566762604E0,4.322226727E-1,2.120985579E0
1.893976500E0,1.355645666E0,-1.742294263E0,3.862232119E-1,2.241100810E0
1.903980500E0,1.427218802E0,-2.123784739E0,-3.582764447E-2,2.559042545E0
1.913983500E0,1.470719163E0,-2.452059705E0,-6.435018700E-1,2.930820074E0
1.923987500E0,1.427155360E0,-2.572983633E0,-1.326691716E0,3.227557607E0
1.933990500E0,1.071509577E0,-2.600620497E0,-2.195292093E0,3.568006043E0
1.943994500E0,4.990613177E-1,-2.567498944E0,-2.742004418E0,3.789419646E0
1.953997500E0,1.197024447E-1,-2.350844986E0,-2.690655924E0,3.574972745E0
1.964001500E0,-7.282151610E-2,-2.060792100E0,-2.480588855E0,3.225753884E0
1.974004500E0,-1.256449699E-2,-1.742510610E0,-2.146256173E0,2.764582546E0
1.984008500E0,3.159885040E-1,-1.506529850E0,-1.965011199E0,2.496147018E0
1.994011500E0,6.048491433E-1,-1.362459134E0,-2.103763872E0,2.578363785E0
2.004015500E0,6.278020960E-1,-1.205020514E0,-2.064124428E0,2.471198002E0
2.014018500E0,5.769713733E-1,-1.124279822E0,-1.714197807E0,2.129642037E0
2.024022500E0,4.972247073E-1,-1.120850430E0,-1.033526357E0,1.603656704E0
2.034025500E0,5.292256415E-1,-1.205549687E0,-3.065999222E-1,1.351825928E0
2.044029500E0,6.313624656E-1,-1.291779161E0,-5.634961724E-3,1.437826038E0
2.054032500E0,7.942878208E-1,-1.287273881E0,-3.382263422E-2,1.512980885E0
2.064036500E0,9.634521550E-1,-1.087776239E0,1.360530138E-2,1.453162863E0
2.074039500E0,1.144079078E0,-7.377385211E-1,3.636769331E-1,1.409054994E0
2.084043500E0,1.298980300E0,-3.676612258E-1,3.739855742E-1,1.400853242E0
2.094046500E0,1.282439696E0,-3.133400077E-1,1.816729903E-1,1.332605947E0
2.104049500E0,1.033634238E0,-3.489793718E-1,-2.567149866E-1,1.120753730E0
2.114053500E0,7.380712277E-1,-2.610489428E-1,-5.705584395E-1,9.687273200E-1
2.124056500E0,4.789276001E-1,-8.302286088E-2,-7.388576782E-1,8.844066430E-1
2.134060500E0,1.189624795E-1,1.211437833E-1,-9.441662836E-1,9.593111377E-1
2.144063500E0,-3.257758659E-1,1.930621970E-1,-1.113450778E0,1.176084845E0
2.154067500E0,-8.033524668E-1,2.176579249E-1,-9.699402255E-1,1.278097883E0
2.164070500E0,-1.325876614E0,2.653893310E-1,-6.960981596E-1,1.520832976E0
2.174074500E0,-1.744037903E0,4.369653493E-1,-3.690031618E-1,1.835421003E0
2.184077500E0,-1.899754811E0,5.802268106E-1,8.860461295E-2,1.988361705E0
2.194081500E0,-1.745008248E0,6.704242051E-1,4.730613810E-1,1.928291853E0
2.204084500E0,-1.404772218E0,7.136807370E-1,8.655533928E-1,1.797750777E0
2.214088500E0,-1.122057295E0,8.542530638E-1,1.281557643E0,1.905557888E0
2.224091500E0,-1.109394272E0,1.142396250E0,1.572798100E0,2.238195413E0
2.234095500E0,-1.199724106E0,1.379935877E0,1.632867131E0,2.451492611E0
2.244098500E0,-1.277159368E0,1.479378304E0,1.399933940E0,2.404061408E0
2.254102500E0,-1.404893840E0,1.560303769E0,8.910262030E-1,2.280833674E0
2.264105500E0,-1.494269116E0,1.662247050E0,1.659884191E-1,2.241307119E0
2.274109500E0,-1.398206672E0,1.707324990E0,-7.132813722E-1,2.319204785E0
2.284112500E0,-1.219342392E0,1.704460439E0,-1.562435664E0,2.614036431E0
2.294116500E0,-9.741224465E-1,1.777575193E0,-2.003332681E0,2.849917532E0
2.304119500E0,-6.009025651E-1,1.866278624E0,-1.813785245E0,2.670935550E0
2.314123500E0,-2.408298558E-1,1.761750873E0,-1.042281978E0,2.061096038E0
2.324126625E0,-6.957455724E-2,1.305113152E0,-5.065969169E-2,1.307947767E0
2.334130625E0,-5.480098218E-2,5.748023486E-1,9.816516137E-1,1.138876981E0
2.344133625E0,-1.731769860E-1,-2.034801811E-1,1.908814779E0,1.927425307E0
2.354137625E0,-3.853566545E-1,-8.782681632E-1,2.448500504E0,2.629640553E0
2.364140625E0,-6.911139929E-1,-1.361390848E0,2.643108705E0,3.052383859E0
2.374143625E0,-1.081078253E0,-1.632636750E0,2.645593187E0,3.291412502E0
2.384147625E0,-1.290624628E0,-1.715911041E0,2.439888141E0,3.250094887E0
2.394151625E0,-1.129536468E0,-1.709119501E0,2.073023306E0,2.914509860E0
2.404154625E0,-7.751946151E-1,-1.694368730E0,1.577719116E0,2.441517908E0
2.414157625E0,-2.980898845E-1,-1.668303012E0,1.293419890E0,2.131907017E0
2.424161625E0,1.671868059E-1,-1.651875844E0,1.108011113E0,1.996079623E0
2.434164625E0,5.279164499E-1,-1.638728964E0,1.046062787E0,2.014541077E0
2.444168625E0,8.644231260E-1,-1.644494904E0,9.551029158E-1,2.088974009E0
2.454171625E0,1.149229598E0,-1.690027757E0,8.861794460E-1,2.227607797E0
2.464175625E0,1.339754104E0,-1.753433794E0,7.753402108E-1,2.338936419E0
2.474178625E0,1.530645814E0,-1.736750518E0,7.295781469E-1,2.427233661E0
2.484182625E0,1.635732266E0,-1.649844521E0,9.283273458E-1,2.501879024E0
2.494185625E0,1.701484206E0,-1.742339287E0,1.085424489E0,2.666259743E0
2.504189625E0,1.694067306E0,-1.945805435E0,7.665419054E-1,2.691395422E0
2.514192625E0,1.568758843E0,-2.007212309E0,1.924897546E-1,2.554791159E0
2.524196625E0,1.415315040E0,-1.877015866E0,-3.868669903E-1,2.382429704E0
2.534199625E0,1.293016140E0,-1.712719631E0,-8.495080483E-1,2.308021490E0
2.544203625E0,1.203015796E0,-1.570055171E0,-1.220520898E0,2.324218472E0
2.554206625E0,1.141330887E0,-1.468784904E0,-1.609905115E0,2.460032473E0
2.564210625E0,1.131037741E0,-1.400016970E0,-2.010862141E0,2.698677535E0
2.574213625E0,1.095659747E0,-1.328743504E0,-2.347321454E0,2.911348071E0
2.584217625E0,9.632515955E-1,-1.179844742E0,-2.743893653E0,3.138286098E0
2.594220625E0,8.601970509E-1,-9.579411542E-1,-2.893137401E0,3.166675582E0
2.604224625E0,8.877146325E-1,-7.055864364E-1,-2.751510821E0,2.976021049E0
2.614227625E0,9.759149104E-1,-4.721614945E-1,-2.561397960E0,2.781385607E0
2.624231625E0,1.115191494E0,-3.164571583E-1,-2.372627034E0,2.640673445E0
2.634234625E0,1.152787337E0,-1.558668888E-1,-2.300500460E0,2.577889737E0
2.644238625E0,9.837156808E-1,6.818496644E-2,-2.354870794E0,2.552990832E0
2.654241625E0,7.085731941E-1,3.079003429E-1,-2.218455253E0,2.349132245E0
2.664245625E0,5.024310681E-1,4.859673554E-1,-1.833947030E0,1.962641831E0
2.674248625E0,4.569084477E-1,5.765454036E-1,-1.439803180E0,1.616849754E0
2.684252625E0,5.289704105E-1,5.316943359E-1,-1.085664809E0,1.319536525E0
2.694255625E0,7.218639153E-1,4.170614272E-1,-5.978737074E-1,1.025904828E0
2.704259625E0,8.333203241E-1,4.923595315E-1,-7.010460734E-2,9.704407900E-1
2.714262625E0,7.768806598E-1,7.034206277E-1,1.468984294E-1,1.058264281E0
2.724266625E0,5.354140422E-1,9.738730627E-1,1.937305337E-1,1.128108354E0
2.734269625E0,2.293970874E-1,1.282751060E0,3.054731637E-1,1.338427122E0
2.744273625E0,3.092036873E-2,1.505435252E0,4.137606740E-1,1.561566285E0
2.754276625E0,-8.016532660E-2,1.675379897E0,5.436659253E-1,1.763206430E0
2.764279625E0,-1.409184819E-1,1.869785784E0,6.241049016E-1,1.976224639E0
2.774283625E0,-1.626759714E-1,2.002175517E0,7.620986062E-1,2.148479592E0
2.784286625E0,-1.624300960E-1,2.005786173E0,8.102241147E-1,2.169337416E0
2.794290625E0,-2.372694862E-1,1.989464255E0,7.608046174E-1,2.143149201E0
2.804293625E0,-3.309676087E-1,1.951024075E0,8.884961128E-1,2.169207192E0
2.814297625E0,-4.162422323E-1,1.807555622E0,1.201957158E0,2.210252459E0
2.824300625E0,-4.030766416E-1,1.582492783E0,1.919321641E0,2.520029712E0
2.834304625E0,-3.189758465E-1,1.195428742E0,2.807428329E0,3.067971527E0
2.844307625E0,-2.294003034E-1,6.958116460E-1,3.512976174E0,3.588562378E0
2.854311625E0,-2.025899425E-1,2.660529900E-1,3.870949148E0,3.885366673E0
2.864314625E0,-3.583217606E-1,7.703706622E-3,3.698029439E0,3.715356721E0
2.874318625E0,-6.206146985E-1,-3.024179935E-3,3.119816410E0,3.180947372E0
2.884321625E0,-9.003229836E-1,3.826423770E-1,2.406007034E0,2.597280599E0
2.894325625E0,-1.014133481E0,1.313817902E0,1.707057188E0,2.380888162E0
2.904328625E0,-8.524687859E-1,2.916166075E0,8.187008232E-1,3.146585236E0
2.914332625E0,-3.720536542E-1,4.132556500E0,-1.011568308E-2,4.149283007E0
2.924335625E0,4.946130484E-2,3.622496862E0,-1.496127069E-1,3.625922489E0
2.934339625E0,3.786551607E-1,2.319419126E0,3.316435468E-1,2.373409416E0
2.944342625E0,6.718427396E-1,8.505114305E-1,1.264689596E0,1.665587624E0
2.954346625E0,9.726052402E-1,-3.042698067E-1,1.615327823E0,1.909928020E0
2.964349625E0,1.215079333E0,-9.112160540E-1,2.085859113E0,2.580221061E0
2.974353625E0,1.176726130E0,-7.654823899E-1,2.552230110E0,2.912821005E0
2.984356625E0,9.124708664E-1,-3.991367877E-1,2.385871562E0,2.585400621E0
2.994360625E0,4.662907438E-1,-6.531515300E-2,1.332781591E0,1.413506242E0
3.004363625E0,2.320436834E-1,1.968815982E-1,-9.638140976E-2,3.192115456E-1
3.014367625E0,1.296671234E-1,3.336275071E-1,-1.330878907E0,1.378172537E0
3.024370625E0,-5.062490076E-2,4.814188063E-1,-2.136904137E0,2.191046836E0
3.034373625E0,-2.560628758E-1,6.080741751E-1,-2.496654080E0,2.582364032E0
3.044377625E0,-4.645533898E-1,5.925422162E-1,-2.657208096E0,2.761823853E0
3.054380625E0,-6.304166785E-1,4.246101826E-1,-2.719886155E0,2.824092720E0
3.064384625E0,-7.353347307E-1,1.793376124E-1,-2.541219803E0,2.651542425E0
3.074387625E0,-9.321767141E-1,-1.327586925E-1,-2.118791217E0,2.318588906E0
3.084391625E0,-1.198008387E0,-6.066591489E-1,-1.486183294E0,2.002997804E0
3.094394625E0,-1.375243925E0,-1.090964141E0,-9.397481275E-1,1.991136649E0
3.104398625E0,-1.486011094E0,-1.477286171E0,-4.860392761E-1,2.151008503E0
3.114401625E0,-1.564776889E0,-1.720890530E0,-1.684424955E-1,2.332029975E0
3.124405625E0,-1.566859667E0,-1.881110671E0,-2.600794744E-1,2.461964238E0
3.134408625E0,-1.403562429E0,-1.910809264E0,-1.997239298E-1,2.379300146E0
3.144412625E0,-1.164996908E0,-1.777302713E0,-5.417094469E-1,2.193050809E0
3.154415625E0,-9.888258550E-1,-1.523659269E0,-1.110023725E0,2.128724221E0
3.164419625E0,-9.887992501E-1,-1.210859544E0,-1.586382936E0,2.227221500E0
3.174422625E0,-1.003429276E0,-8.921330810E-1,-1.885938717E0,2.315067297E0
3.184426625E0,-9.005770451E-1,-6.794160533E-1,-2.004740106E0,2.300353903E0
3.194429625E0,-6.851565573E-1,-6.210456383E-1,-1.925090504E0,2.135675687E0
3.204433625E0,-4.322027922E-1,-6.553857511E-1,-1.688605714E0,1.862181246E0
3.214436625E0,-1.413435745E-1,-7.434898424E-1,-1.462346535E0,1.646576005E0
3.224440625E0,5.769710809E-2,-7.799542487E-1,-1.382764760E0,1.588614481E0
3.234443625E0,1.884542987E-1,-6.859748751E-1,-1.435836428E0,1.602405317E0
3.244447625E0,2.617500240E-1,-4.559641224E-1,-1.401498070E0,1.496867795E0
3.254450625E0,1.599342120E-1,-2.365555412E-1,-1.346875135E0,1.376811573E0
3.264453625E0,2.513308704E-2,-1.813695198E-1,-1.361823542E0,1.374077849E0
3.274457625E0,-2.537106872E-3,-1.549477065E-1,-1.375534093E0,1.384235988E0
3.284460625E0,1.699835292E-1,-8.025829732E-2,-1.313727270E0,1.327107808E0
3.294464625E0,5.658376899E-1,4.988552034E-2,-1.110383329E0,1.247241754E0
3.304467625E0,9.649200985E-1,2.120393354E-1,-8.548541576E-1,1.306448279E0
3.314471625E0,1.214823956E0,3.947852898E-1,-6.435264283E-1,1.430307286E0
3.324474625E0,1.320164469E0,5.186456895E-1,-4.769258058E-1,1.496424339E0
3.334478625E0,1.388284532E0,5.081335652E-1,-2.903370613E-1,1.506595258E0
3.344481625E0,1.403838125E0,4.455268425E-1,-3.135499227E-1,1.505845013E0
3.354485625E0,1.211711775E0,4.487644458E-1,-3.278539664E-1,1.333087836E0
3.364488625E0,8.300186938E-1,4.686081415E-1,-5.427151680E-1,1.096842913E0
3.374492625E0,4.456119195E-1,4.957801527E-1,-9.816013277E-1,1.186553458E0
3.384495625E0,6.486199379E-2,6.281295401E-1,-1.284523351E0,1.431346931E0
3.394499625E0,-2.838486984E-1,8.538256323E-1,-1.302679541E0,1.583212645E0
3.404502625E0,-6.365240952E-1,1.167274398E0,-1.026516130E0,1.679710633E0
3.414506625E0,-8.611624262E-1,1.421858659E0,-2.798880869E-1,1.685710566E0
3.424509625E0,-1.076701612E0,1.450695373E0,8.437210590E-1,1.993907885E0
3.434513625E0,-1.177297111E0,1.196913350E0,2.077417488E0,2.671009823E0
3.444516625E0,-1.177834762E0,8.611001533E-1,3.008198326E0,3.343358396E0
3.454520625E0,-1.122535889E0,7.928292328E-1,3.214910263E0,3.496328505E0
3.464523625E0,-1.093619362E0,1.041575634E0,2.501973292E0,2.922456751E0
3.474527625E0,-1.038862818E0,1.592194483E0,1.081256009E0,2.187106258E0
3.484530625E0,-9.363102570E-1,2.374971768E0,-2.445095086E-1,2.564557017E0
3.494534625E0,-8.591717416E-1,2.950030224E0,-9.706407219E-1,3.222265944E0
3.504537625E0,-5.970609444E-1,3.284952890E0,-1.078679141E0,3.508695762E0
3.514541625E0,-1.656332007E-1,3.203221094E0,-5.417363441E-1,3.252927605E0
3.524544625E0,2.165963629E-1,2.665744447E0,5.542862231E-1,2.731362417E0
3.534548625E0,5.272662395E-1,1.840439193E0,2.019886149E0,2.783013864E0
3.544551625E0,7.585487616E-1,9.219801933E-1,3.477388265E0,3.676638797E0
3.554555625E0,6.993679225E-1,-4.374535918E-2,4.267609055E0,4.324756201E0
3.564558625E0,4.110747555E-1,-7.333729899E-1,4.398458047E0,4.478085706E0
3.574561625E0,1.692277765E-1,-1.178352533E0,3.988981628E0,4.162826823E0
3.584565625E0,1.600236744E-2,-1.342216659E0,2.917843056E0,3.211792293E0
3.594568625E0,-1.207917809E-2,-1.157217187E0,1.470825582E0,1.871530234E0
3.604572625E0,1.221606141E-1,-7.850524360E-1,6.548998475E-2,7.971947573E-1
3.614575625E0,4.056084859E-1,-3.221675491E-1,-9.580873346E-1,1.089147150E0
3.624579625E0,8.744575328E-1,5.068015695E-2,-1.338227103E0,1.599404963E0
3.634582625E0,1.414851064E0,8.124355316E-2,-1.169972304E0,1.837726650E0
3.644586625E0,1.905925085E0,-1.764894336E-1,-8.757544452E-1,2.104909689E0
3.654589625E0,2.355785007E0,-5.987665772E-1,-7.723745030E-1,2.550452271E0
3.664593625E0,2.527237356E0,-1.037503633E0,-8.666041374E-1,2.866067894E0
3.674596625E0,2.284837231E0,-1.471027896E0,-1.097877304E0,2.930825620E0
3.684600625E0,1.913400458E0,-2.106132579E0,-1.276243694E0,3.118604451E0
3.694603625E0,1.641659296E0,-2.296064177E0,-2.240850089E0,3.603937440E0
3.704607625E0,1.843305206E0,-2.261206001E0,-3.365852042E0,4.454187539E0
3.714610625E0,2.572920483E0,-1.813335010E0,-3.267176185E0,4.536798859E0
3.724614625E0,2.965768590E0,-1.658563305E0,-3.474282809E0,4.859758904E0
3.734617625E0,2.560397793E0,-1.729010559E0,-4.988642081E0,5.867850048E0
3.744621625E0,2.168629375E0,-1.248264767E0,-5.915211754E0,6.422682336E0
3.754624625E0,2.361896516E0,-7.271337184E-1,-5.365636632E0,5.907396641E0
3.764628625E0,2.694917667E0,-1.015233635E0,-3.318877265E0,4.394112751E0
3.774631625E0,2.905248739E0,-9.265208486E-1,-5.457814479E-1,3.097868381E0
3.784635625E0,3.041629196E0,-3.665695506E-1,4.232600605E-1,3.092738347E0
3.794638625E0,2.506237081E0,6.089027256E-2,-2.315339524E-1,2.517645707E0
3.804641625E0,1.465374808E0,2.393312144E-1,-1.381669577E0,2.028204520E0
3.814645625E0,8.395248047E-1,1.808078948E-1,-2.512651477E0,2.655355124E0
3.824648625E0,3.456856352E-1,-1.677867302E-1,-2.673224790E0,2.700700228E0
3.834652625E0,3.031082574E-1,-2.349361548E-1,-1.607769127E0,1.652873612E0
3.844655625E0,3.355892479E-1,-2.774419042E-1,-7.867785341E-1,8.992300124E-1
3.854659625E0,4.152546376E-2,-3.314203294E-1,-5.000842881E-1,6.013718434E-1
3.864662625E0,-4.902978033E-1,-2.567690733E-1,-4.052453738E-1,6.859636331E-1
3.874666625E0,-1.032702484E0,-2.037744422E-1,8.466125071E-2,1.056014191E0
3.884669625E0,-7.404235625E-1,-2.154134712E-1,1.272792667E-1,7.815561574E-1
3.894673625E0,-5.448423851E-1,-3.561189683E-1,-7.845776421E-1,1.019429262E0
3.904676625E0,-1.256028115E0,-1.360813728E-1,-7.783714074E-1,1.483909301E0
3.914680625E0,-1.552220286E0,-4.876577854E-4,-6.905795574E-2,1.553755790E0
3.924683625E0,-1.623237936E0,-8.969687283E-2,1.076171855E0,1.949639143E0
3.934687625E0,-1.487236962E0,-9.763527207E-2,2.653165331E0,3.043138627E0
3.944690625E0,-1.357643952E0,8.649778806E-2,3.329015753E0,3.596251500E0
3.954694625E0,-1.300297092E0,1.263316523E-1,3.302241937E0,3.551272170E0
3.964697625E0,-1.324300059E0,1.459145623E-1,3.008508228E0,3.290316621E0
3.974700625E0,-1.341890676E0,2.521578860E-1,2.718158888E0,3.041815564E0
3.984704625E0,-1.315036315E0,4.138008005E-1,2.563922203E0,2.911056281E0
3.994707625E0,-8.924960469E-1,6.593627349E-1,2.512588327E0,2.746708669E0
4.004711625E0,-3.143767190E-1,9.480564362E-1,2.451391953E0,2.647067478E0
4.014714625E0,1.777976020E-1,1.102478478E0,2.536264873E0,2.771229021E0
4.024718625E0,4.657650791E-1,1.122930869E0,2.686809626E0,2.949043372E0
4.034721625E0,3.519040029E-1,9.195185155E-1,2.722830228E0,2.895367883E0
4.044725625E0,-7.669573501E-2,5.406736127E-1,2.758890007E0,2.812416090E0
4.054728625E0,-8.413570297E-1,9.431836590E-2,2.697016525E0,2.826778333E0
4.064732625E0,-1.728389584E0,-3.802897498E-1,2.070724765E0,2.723940510E0
4.074735625E0,-2.247671305E0,-7.707014684E-1,7.782959783E-1,2.500350311E0
4.084739625E0,-2.331775462E0,-1.145362542E0,-4.969355625E-1,2.644990947E0
4.094742625E0,-2.036545597E0,-1.350769819E0,-1.071291769E0,2.668288426E0
4.104746625E0,-1.506541545E0,-1.464721235E0,-6.107340735E-1,2.188166317E0
4.114749625E0,-8.527464556E-1,-1.521304449E0,5.910833359E-1,1.841445968E0
4.124753625E0,-4.754650252E-1,-1.409215810E0,1.868760182E0,2.388351064E0
4.134756625E0,-1.482010794E-1,-1.231528135E0,2.930142674E0,3.181880136E0
4.144759625E0,2.129772836E-1,-1.028240912E0,3.931892923E0,4.069695400E0
4.154763625E0,6.801123105E-1,-6.664795272E-1,4.892681086E0,4.984483516E0
4.164766625E0,1.113665005E0,-3.588117573E-1,5.183879442E0,5.314282801E0
4.174770625E0,1.332712156E0,-3.000188810E-1,4.388282722E0,4.595993719E0
4.184773625E0,1.119893167E0,-3.069560176E-1,2.914537041E0,3.137341050E0
4.194777625E0,2.561934149E-1,1.319216636E-1,1.713920649E0,1.737976520E0
4.204780625E0,-2.037689787E-1,5.223773825E-1,1.714947420E-1,5.863534540E-1
4.214784625E0,-6.395953453E-1,7.852459788E-1,-1.681390250E0,1.962846562E0
4.224787625E0,-1.094036707E0,3.503423578E-1,-2.251185043E0,2.527348448E0
4.234791625E0,-9.460192662E-1,2.145957381E-2,-1.570562124E0,1.833597107E0
4.244794625E0,-1.211239320E0,-4.864351326E-1,-7.426893586E-1,1.501768062E0
4.254798625E0,-1.438934283E0,-1.075341550E0,-4.312859488E-1,1.847403283E0
4.264801625E0,-1.637125804E0,-1.535141154E0,-1.278066856E-1,2.247926558E0
4.274804625E0,-1.789158527E0,-1.873288558E0,4.046144593E-1,2.621833542E0
4.284808625E0,-1.835001283E0,-1.969643656E0,9.624452645E-1,2.858850595E0
4.294811625E0,-1.864597988E0,-1.888297192E0,1.371824035E0,2.987355540E0
4.304815625E0,-1.825790895E0,-1.682711428E0,1.675897960E0,2.995607470E0
4.314818625E0,-1.564674270E0,-1.345882570E0,1.822924443E0,2.753662832E0
4.324822625E0,-1.011646734E0,-9.600698331E-1,1.775073754E0,2.257443251E0
4.334825750E0,-2.378916299E-1,-5.060814849E-1,1.299199278E0,1.414436163E0
4.344829750E0,3.384675398E-1,-9.816217929E-2,3.443612409E-1,4.927278693E-1
4.354832750E0,6.002523547E-1,3.195631993E-1,-6.162690479E-1,9.177205822E-1
4.364836750E0,5.831779734E-1,7.005230400E-1,-1.313194004E0,1.598532943E0
4.374839750E0,4.240239993E-1,9.609703043E-1,-1.466034958E0,1.803474085E0
4.384843750E0,2.648575998E-1,1.050841132E0,-1.395231609E0,1.766660090E0
4.394846750E0,1.487088004E-1,9.708746105E-1,-1.352272700E0,1.671332783E0
4.404849750E0,2.890055041E-1,9.523330897E-1,-1.209223493E0,1.566104706E0
4.414853750E0,7.020601268E-1,8.593100283E-1,-9.365578866E-1,1.452047803E0
4.424856750E0,1.203747575E0,7.120984805E-1,-1.152275705E0,1.812134590E0
4.434860750E0,1.687782572E0,6.155469167E-1,-1.899128866E0,2.614229995E0
4.444863750E0,2.062134036E0,7.031183267E-1,-2.770757516E0,3.524750966E0
4.454867750E0,2.071224556E0,7.019158468E-1,-3.598397563E0,4.210833888E0
4.464870750E0,1.784058440E0,5.472719032E-1,-4.130978921E0,4.532919357E0
4.474874750E0,1.520800273E0,2.023879212E-1,-4.210843701E0,4.481629058E0
4.484877750E0,1.164847511E0,-1.062608653E-1,-3.995608277E0,4.163297563E0
4.494881750E0,1.010958736E0,-3.663549578E-1,-3.674851661E0,3.828940879E0
4.504884750E0,8.455176160E-1,-3.428719550E-1,-3.354597906E0,3.476462042E0
4.514887750E0,5.383760954E-1,-5.328509152E-2,-3.381513224E0,3.424517456E0
4.524891750E0,2.787459795E-1,2.275081444E-1,-3.724620822E0,3.741959319E0
4.534894750E0,1.973904522E-1,3.137270933E-1,-4.077622494E0,4.094434378E0
4.544898750E0,1.692717768E-1,1.548868954E-1,-4.036256951E0,4.042772942E0
4.554901750E0,1.948999768E-1,-1.139867914E-1,-3.592291900E0,3.599380514E0
4.564905750E0,2.621559669E-1,-3.302127331E-1,-2.899020284E0,2.929519553E0
4.574908750E0,4.188883898E-1,-3.544798476E-1,-2.090133428E0,2.160967652E0
4.584912750E0,5.632017651E-1,-1.386655498E-1,-1.215320969E0,1.346636336E0
4.594915750E0,5.433960763E-1,1.560627705E-1,-2.201722276E-1,6.067212654E-1
4.604918750E0,4.908239065E-1,3.069390607E-1,8.594909996E-1,1.036264673E0
4.614922750E0,3.390997700E-1,4.042706430E-1,2.076899425E0,2.142879984E0
4.624925750E0,-3.555838019E-3,5.120196247E-1,3.380087088E0,3.418649655E0
4.634929750E0,-3.406924054E-1,6.658665928E-1,4.493589907E0,4.555414348E0
4.644932750E0,-5.651218446E-1,8.719502467E-1,5.119002246E0,5.223393908E0
4.654936750E0,-5.190430078E-1,9.836373281E-1,5.305506790E0,5.420825614E0
4.664939750E0,-3.261718686E-1,9.702255696E-1,4.772544193E0,4.881076092E0
4.674943750E0,-1.423362856E-1,8.895693693E-1,3.624836918E0,3.735108561E0
4.684946750E0,-1.853843643E-1,9.148834276E-1,2.694826158E0,2.851923399E0
4.694949750E0,-3.751231501E-1,1.040575175E0,2.189743086E0,2.453260861E0
4.704953750E0,-4.780763917E-1,9.768574816E-1,2.134772242E0,2.395842253E0
4.714956750E0,-4.742613758E-1,6.242966902E-1,2.587428010E0,2.703600177E0
4.724960750E0,-4.181500326E-1,1.336904463E-1,3.561060167E0,3.588017851E0
4.734963750E0,-4.805570729E-1,-3.145600292E-1,4.513832383E0,4.550227015E0
4.744967750E0,-5.869475272E-1,-6.886686873E-1,4.964978399E0,5.046759601E0
4.754970750E0,-6.729282752E-1,-9.034971446E-1,4.832169421E0,4.961753809E0
4.764974750E0,-6.907519772E-1,-9.924882585E-1,4.243446606E0,4.412370149E0
4.774977750E0,-6.416904026E-1,-1.058008356E0,3.337881301E0,3.559859525E0
4.784980750E0,-4.781393223E-1,-1.115955725E0,2.429364907E0,2.715840246E0
4.794984750E0,-2.761723275E-1,-1.098342158E0,1.568464143E0,1.934607562E0
4.804987750E0,5.045628168E-2,-1.139030008E0,5.396857256E-1,1.261426128E0
4.814991750E0,3.723166327E-1,-1.187535000E0,-3.309605920E-1,1.287786460E0
4.824994750E0,6.515065621E-1,-1.202699754E0,-9.096133322E-1,1.642663664E0
4.834998750E0,9.581835213E-1,-1.239715553E0,-1.202552989E0,1.975131389E0
4.845001750E0,1.298653879E0,-1.281924849E0,-1.367155033E0,2.280119755E0
4.855005750E0,1.669022219E0,-1.410387592E0,-1.426729975E0,2.609671770E0
4.865008750E0,2.056507260E0,-1.583576272E0,-1.370295573E0,2.935071699E0
4.875011750E0,2.417039853E0,-1.812749119E0,-1.247573626E0,3.268727730E0
4.885015750E0,2.635978026E0,-1.992928730E0,-1.074565040E0,3.474886344E0
4.895018750E0,2.404184749E0,-1.989810995E0,-7.884069836E-1,3.218856579E0
4.905022750E0,2.339960979E0,-2.138204557E0,-7.979964173E-1,3.268659419E0
4.915025750E0,2.324755880E0,-2.229159751E0,-1.138452888E0,3.416096906E0
4.925029750E0,2.189795418E0,-2.081775418E0,-1.599775983E0,3.418812083E0
4.935032750E0,1.768453829E0,-1.483499422E0,-1.938308719E0,3.014173215E0
4.945035750E0,1.246333432E0,-8.958302754E-1,-2.392543235E0,2.842555547E0
4.955039750E0,9.973391086E-1,-5.426075792E-1,-3.052641258E0,3.256950557E0
4.965042750E0,9.793282226E-1,-3.698814136E-1,-3.595116105E0,3.744429975E0
4.975046750E0,1.004168364E0,-2.299803472E-1,-3.981083209E0,4.112209696E0
4.985049750E0,9.362226950E-1,-3.360921085E-2,-4.162622298E0,4.266739611E0
4.995053750E0,8.383552884E-1,2.620862389E-1,-4.076869372E0,4.170418764E0
5.005056750E0,8.943438401E-1,5.805536699E-1,-3.678848233E0,3.830250356E0
5.015060750E0,1.046837324E0,8.951519984E-1,-3.088517434E0,3.381731128E0
5.025063750E0,1.193880545E0,1.186502382E0,-2.292373999E0,2.843961535E0
5.035066750E0,1.423907085E0,1.496139348E0,-1.356867442E0,2.471241306E0
5.045070750E0,1.468833436E0,1.738105318E0,-5.321743923E-1,2.337026175E0
5.055073750E0,1.440119075E0,1.831494123E0,7.398481965E-3,2.329885922E0
5.065077750E0,1.243524283E0,1.691507687E0,7.073844552E-2,2.100608204E0
5.075080750E0,7.778879157E-1,1.449811274E0,-1.236276805E-2,1.645361716E0
5.085084750E0,2.441436922E-1,1.199560384E0,4.008266330E-3,1.224159844E0
5.095087750E0,-2.268422196E-1,1.035976340E0,8.430749416E-2,1.063866591E0
5.105090750E0,-5.224550774E-1,9.879975969E-1,2.097407949E-1,1.137141047E0
5.115094750E0,-7.047992550E-1,1.029645560E0,3.952910739E-1,1.308880056E0
5.125097750E0,-8.157180123E-1,1.095375865E0,5.637458485E-1,1.477516004E0
5.135101750E0,-8.917569588E-1,1.157972063E0,6.703148621E-1,1.607934012E0
5.145104750E0,-9.676719444E-1,1.156107386E0,6.786155695E-1,1.653327666E0
5.155108750E0,-1.099250742E0,1.160388717E0,6.645594478E-1,1.731038251E0
5.165111750E0,-1.172074304E0,1.149953191E0,7.530161262E-1,1.806428466E0
5.175114750E0,-1.056280797E0,1.066874197E0,9.126930606E-1,1.756974188E0
5.185118750E0,-8.038790086E-1,9.298452830E-1,1.148725861E0,1.682380698E0
5.195121750E0,-6.639300681E-1,8.521416342E-1,1.545279348E0,1.885427475E0
5.205125750E0,-7.542785400E-1,8.211145538E-1,1.942800550E0,2.240008751E0
5.215128750E0,-1.001123134E0,7.800676847E-1,1.973435283E0,2.346316248E0
5.225132750E0,-1.074833135E0,7.170504874E-1,1.783155191E0,2.202060422E0
5.235135750E0,-1.011763093E0,7.419625497E-1,1.467710770E0,1.930893028E0
5.245138750E0,-9.233226409E-1,9.505034959E-1,1.056045738E0,1.694465756E0
5.255142750E0,-7.890543435E-1,1.175009680E0,7.298254842E-1,1.592450860E0
5.265145750E0,-6.290241641E-1,1.169463011E0,6.739366275E-1,1.489129179E0
5.275149750E0,-4.389563993E-1,9.592474222E-1,1.090827901E0,1.517479439E0
5.285152750E0,-2.775296490E-1,6.557126105E-1,1.918210085E0,2.046096690E0
5.295156750E0,-1.893883914E-1,3.865910017E-1,3.071622489E0,3.101642352E0
5.305159750E0,-3.487389050E-2,3.368931770E-2,4.177105266E0,4.177386691E0
5.315162750E0,-1.650504526E-3,-4.603746772E-1,4.544999211E0,4.568256276E0
5.325166750E0,-1.291678808E-1,-9.912995195E-1,4.156269298E0,4.274802166E0
5.335170000E0,-5.124462887E-1,-1.312815689E0,3.313038821E0,3.600321160E0
5.345174000E0,-1.047258397E0,-1.396361876E0,2.102565193E0,2.732646525E0
5.355177000E0,-1.463589360E0,-1.371789536E0,7.062366468E-1,2.126657130E0
5.365181000E0,-1.599707863E0,-1.262389886E0,-5.660467279E-1,2.114971009E0
5.375184000E0,-1.567046778E0,-9.759067243E-1,-1.469066155E0,2.359276352E0
5.385187000E0,-1.372593675E0,-6.358589745E-1,-1.903444111E0,2.431343151E0
5.395191000E0,-1.099377699E0,-4.151821321E-1,-2.078171194E0,2.387426028E0
5.405194000E0,-9.392296256E-1,-3.204695177E-1,-1.932225861E0,2.172176277E0
5.415198000E0,-9.269982737E-1,-3.185639101E-1,-1.482301912E0,1.777084051E0
5.425201000E0,-1.015628322E0,-4.892242545E-1,-8.684746617E-1,1.423056393E0
5.435205000E0,-1.146681089E0,-8.467388070E-1,-2.951557517E-1,1.455665156E0
5.445208000E0,-1.290732217E0,-1.211585768E0,2.251166332E-1,1.784546785E0
5.455211000E0,-1.416802280E0,-1.553887035E0,7.503626597E-1,2.232697413E0
5.465215000E0,-1.428112403E0,-1.819544168E0,1.140968360E0,2.579157772E0
5.475218000E0,-1.312711024E0,-1.992959720E0,1.197671733E0,2.670115402E0
5.485222000E0,-1.170001905E0,-2.037725419E0,9.246564639E-1,2.525117604E0
5.495225000E0,-9.847800203E-1,-1.932606515E0,4.086478686E-1,2.207204728E0
5.505229000E0,-8.068191348E-1,-1.689499753E0,-2.678884310E-1,1.891330416E0
5.515232000E0,-7.224828431E-1,-1.354209883E0,-9.789782667E-1,1.820512101E0
5.525235000E0,-6.909757063E-1,-9.878514165E-1,-1.533955631E0,1.950978658E0
5.535239000E0,-6.032877540E-1,-6.634742045E-1,-1.859635602E0,2.064557751E0
5.545242000E0,-4.689013429E-1,-4.232641536E-1,-2.063266057E0,2.157796986E0
5.555246000E0,-3.830782869E-1,-2.766773808E-1,-2.097167044E0,2.149746254E0
5.565249000E0,-3.469154143E-1,-1.580636877E-1,-1.923357389E0,1.960774867E0
5.575253000E0,-2.244317415E-1,3.200298071E-2,-1.489002237E0,1.506161166E0
5.585256000E0,-9.317430334E-2,1.698505050E-1,-1.065183767E0,1.082657426E0
5.595259000E0,7.090013931E-2,3.164156431E-1,-8.216507435E-1,8.833207986E-1
5.605263000E0,1.344862158E-1,4.462688541E-1,-8.121349847E-1,9.363790183E-1
5.615266000E0,5.081482563E-2,5.647989321E-1,-8.168004781E-1,9.943555708E-1
5.625270000E0,-1.631307386E-1,6.212461978E-1,-8.516516376E-1,1.066709421E0
5.635273000E0,-4.851260507E-1,5.563999915E-1,-9.448784745E-1,1.199051111E0
5.645276000E0,-8.896694297E-1,3.696598041E-1,-9.524675757E-1,1.354752578E0
5.655280000E0,-1.153163166E0,1.576029271E-1,-7.482383662E-1,1.383649025E0
5.665283000E0,-1.141630411E0,8.548629284E-3,-4.897440720E-1,1.242273050E0
5.675287000E0,-9.248671098E-1,-4.972413719E-2,-3.589126217E-1,9.933126047E-1
5.685290000E0,-6.573662762E-1,4.440200150E-2,-3.745878375E-1,7.579036923E-1
5.695294000E0,-3.563447439E-1,3.035675561E-1,-3.839574158E-1,6.054404470E-1
5.705297000E0,-9.779764194E-2,7.193028349E-1,-3.396922392E-1,8.014685049E-1
5.715300000E0,9.216651745E-2,1.100364125E0,-3.706707877E-1,1.164771526E0
5.725304000E0,1.734898851E-1,1.243515074E0,-4.409443796E-1,1.330736798E0
5.735307000E0,2.081906249E-1,1.118810921E0,-4.792553365E-1,1.234814517E0
5.745311000E0,1.503865859E-1,8.744166023E-1,-4.695992446E-1,1.003864518E0
5.755314000E0,5.618838027E-2,4.951264340E-1,-2.562817079E-1,5.603459944E-1
5.765318000E0,-1.709926855E-1,1.328089786E-1,1.511622190E-1,2.640582128E-1
5.775321000E0,-5.361602200E-1,3.296309352E-2,7.021295625E-1,8.840476625E-1
5.785324000E0,-8.024329191E-1,1.671169317E-1,1.142448875E0,1.406064042E0
5.795328000E0,-8.312414928E-1,4.012593269E-1,1.271584048E0,1.571272560E0
5.805331000E0,-5.808838914E-1,6.934593111E-1,1.107303600E0,1.429836765E0
5.815335000E0,-1.733941370E-1,8.963003916E-1,9.426144326E-1,1.312227834E0
5.825338000E0,2.706113331E-1,1.015467231E0,8.960682571E-1,1.381065716E0
5.835341000E0,6.321101052E-1,9.718867636E-1,7.480120790E-1,1.379727921E0
5.845345000E0,7.918866616E-1,7.660788059E-1,6.834289974E-1,1.296547884E0
5.855348000E0,8.058179453E-1,4.891377157E-1,9.820205730E-1,1.361235715E0
5.865352000E0,6.887259901E-1,2.488241690E-1,1.582534883E0,1.743752738E0
5.875355000E0,5.309769922E-1,6.598348975E-2,2.235937843E0,2.299066860E0
5.885358000E0,4.044670364E-1,-1.294509226E-1,2.777978243E0,2.810251633E0
5.895362000E0,3.302717900E-1,-3.648042762E-1,2.995994602E0,3.036139863E0
5.905365000E0,3.446564522E-1,-5.942414171E-1,2.992387455E0,3.070226964E0
5.915369000E0,3.354598418E-1,-6.425932127E-1,2.785402452E0,2.878181051E0
5.925372000E0,3.388559046E-1,-5.137691116E-1,2.336493580E0,2.416192102E0
5.935376000E0,4.512142099E-1,-3.094551176E-1,1.734310475E0,1.818567996E0
5.945379000E0,7.949070409E-1,-1.040523720E-1,1.123419696E0,1.380136194E0
5.955382000E0,1.298941416E0,2.762224674E-3,6.920934016E-1,1.471818504E0
5.965386000E0,1.755701490E0,1.620321929E-2,5.232176274E-1,1.832077223E0
5.975389000E0,2.049199995E0,-1.554423809E-1,4.833910722E-1,2.111172632E0
5.985393000E0,2.153459358E0,-5.019893110E-1,3.805268544E-1,2.243698100E0
5.995396000E0,2.038538328E0,-9.030071479E-1,2.200506055E-1,2.240420205E0
6.005399000E0,1.792428729E0,-1.212894375E0,-2.487990260E-3,2.164236517E0
6.015403000E0,1.460140234E0,-1.412346409E0,-2.556502086E-1,2.047459135E0
6.025406000E0,1.129369238E0,-1.468892493E0,-5.628371912E-1,1.936467334E0
6.035410000E0,9.338729914E-1,-1.448807307E0,-9.229309505E-1,1.955239861E0
6.045413000E0,8.183824423E-1,-1.311179053E0,-1.226060550E0,1.972857016E0
6.055416000E0,7.407970534E-1,-1.111507748E0,-1.463056387E0,1.981101648E0
6.065420000E0,5.959020628E-1,-8.433164316E-1,-1.727023090E0,2.012185535E0
6.075423000E0,3.840418350E-1,-6.785623598E-1,-1.972969844E0,2.121448801E0
6.085427000E0,2.381229239E-1,-5.881801933E-1,-2.004406815E0,2.102452174E0
6.095430000E0,1.248213165E-1,-5.755081075E-1,-1.936663898E0,2.024217625E0
6.105434000E0,1.277786189E-1,-6.520809048E-1,-1.891108825E0,2.004452412E0
6.115437000E0,1.468724093E-1,-7.069973695E-1,-1.960525800E0,2.089276956E0
6.125440000E0,1.338171847E-1,-6.849481040E-1,-2.137760754E0,2.248795674E0
6.135444000E0,8.585240163E-2,-5.539891845E-1,-2.325741720E0,2.392352232E0
6.145447000E0,-9.097748615E-2,-3.562772816E-1,-2.586599459E0,2.612605436E0
6.155451000E0,-2.746551213E-1,-1.661345994E-1,-2.863997802E0,2.881929831E0
6.165454000E0,-4.369576018E-1,6.168344736E-2,-2.960264021E0,2.992975086E0
6.175457000E0,-5.828870013E-1,3.266184497E-1,-2.759629680E0,2.839364865E0
6.185461000E0,-5.672973011E-1,5.112419450E-1,-2.385169896E0,2.504442052E0
6.195464000E0,-4.394174523E-1,5.294671315E-1,-2.018143094E0,2.132211220E0
6.205468000E0,-3.418723735E-1,4.763381606E-1,-1.698541887E0,1.796891568E0
6.215471000E0,-2.776813477E-1,4.306029940E-1,-1.376284876E0,1.468565943E0
6.225474000E0,-2.461135460E-1,3.857343847E-1,-1.066059680E0,1.160106088E0
6.235478000E0,-1.538147353E-1,3.862337369E-1,-8.258736026E-1,9.246094742E-1
6.245481000E0,-4.444983903E-2,4.617499423E-1,-6.581187397E-1,8.051764235E-1
6.255485000E0,-7.431913421E-2,6.845785600E-1,-2.755155391E-1,7.416737495E-1
6.265488000E0,-3.836698059E-2,9.010044765E-1,5.710683167E-2,9.036272916E-1
6.275491000E0,8.679000266E-2,1.047908753E0,2.406187713E-1,1.078676343E0
6.285495000E0,1.951933609E-1,1.207165273E0,4.426482582E-1,1.300494492E0
6.295498000E0,2.282964221E-1,1.427148051E0,6.933265793E-1,1.602988634E0
6.305502000E0,1.753360338E-1,1.606052384E0,9.002203649E-1,1.849471192E0
6.315505000E0,1.115082663E-1,1.724128718E0,1.042614099E0,2.017944026E0
6.325508000E0,1.947842751E-1,1.763482819E0,1.102726985E0,2.088975674E0
6.335511917E0,3.150688832E-1,1.672511253E0,1.048147320E0,1.998793410E0
6.345514917E0,3.341338394E-1,1.462109138E0,1.059138916E0,1.836078374E0
6.355518917E0,1.251623554E-1,1.104081784E0,1.304225544E0,1.713378672E0
6.365521917E0,-4.056143332E-1,6.941194618E-1,1.600004609E0,1.790625467E0
6.375524917E0,-1.149337626E0,3.003597736E-1,1.582281114E0,1.978586994E0
6.385528917E0,-1.758659743E0,-2.285150349E-2,1.219559616E0,2.140264455E0
6.395531917E0,-2.009453254E0,-1.500530022E-1,6.259549606E-1,2.110032677E0
6.405534917E0,-1.886513791E0,-2.615927339E-2,-1.865963459E-1,1.895899994E0
6.415538917E0,-1.667498727E0,3.055813372E-1,-9.887629974E-1,1.962545343E0
6.425541917E0,-1.628273266E0,6.925465608E-1,-1.481256430E0,2.307599441E0
6.435545917E0,-1.667746795E0,9.644409192E-1,-1.391991667E0,2.376797522E0
6.445548917E0,-1.568667188E0,1.032256926E0,-6.292410958E-1,1.980458398E0
6.455551917E0,-1.309616823E0,8.268804932E-1,7.076429021E-1,1.702817093E0
6.465555917E0,-9.858974963E-1,5.117553306E-1,2.320351757E0,2.572531762E0
6.475558917E0,-5.724489905E-1,1.711690521E-1,3.812354785E0,3.858891770E0
6.485562917E0,-2.742439341E-1,-1.754024363E-1,4.803955436E0,4.814972853E0
6.495565917E0,-2.307679488E-1,-4.296727020E-1,4.996226504E0,5.019975275E0
6.505568917E0,-3.769023481E-1,-5.239105225E-1,4.247458965E0,4.296212899E0
6.515572917E0,-5.558526556E-1,-4.850054884E-1,2.704938333E0,2.803728568E0
6.525575917E0,-6.224060661E-1,-2.540124035E-1,9.255171740E-1,1.143894074E0
6.535579917E0,-4.987608439E-1,8.199492037E-2,-2.898698688E-1,5.826749413E-1
6.545582917E0,-2.329957380E-1,3.525075817E-1,-1.005859087E0,1.091009217E0
6.555585917E0,-7.220587281E-2,4.063142449E-1,-1.251603527E0,1.317883281E0
6.565589917E0,-1.221125756E-1,2.221281213E-1,-9.650349963E-1,9.977699772E-1
6.575592917E0,-3.331301283E-1,-1.125963235E-1,-2.715470338E-1,4.442875263E-1
6.585596917E0,-5.080240761E-1,-5.391998219E-1,4.918677807E-1,8.892462109E-1
6.595599917E0,-5.079500357E-1,-9.386514822E-1,1.076454275E0,1.515860696E0
6.605602917E0,-4.125855664E-1,-1.200921616E0,1.331875858E0,1.840199141E0
6.615606917E0,-2.435274139E-1,-1.416623062E0,1.096589162E0,1.807936474E0
6.625609917E0,-1.824039106E-1,-1.527420198E0,3.557206267E-1,1.578866939E0
6.635612917E0,-1.872146707E-1,-1.478222895E0,-7.298997438E-1,1.659200378E0
6.645616917E0,-2.783184750E-1,-1.317002880E0,-1.845324542E0,2.284114801E0
6.655619917E0,-4.756013384E-1,-1.086147205E0,-2.707442695E0,2.955699297E0
6.665623917E0,-6.572498435E-1,-8.203938845E-1,-3.147390125E0,3.318295960E0
6.675626917E0,-5.719631234E-1,-5.677351114E-1,-3.072625871E0,3.176553906E0
6.685629917E0,-2.932968853E-1,-3.796363235E-1,-2.782015160E0,2.823075478E0
6.695633917E0,-1.002770076E-3,-2.289860281E-1,-2.506425362E0,2.516863862E0
6.705636917E0,4.012365959E-1,7.870644629E-3,-2.341766599E0,2.375904787E0
6.715639917E0,7.163184160E-1,3.681146774E-1,-2.215242208E0,2.357099601E0
6.725643917E0,6.681204752E-1,7.193870348E-1,-2.034952669E0,2.259410330E0
6.735646917E0,4.376716199E-1,9.044747990E-1,-1.993011176E0,2.231977746E0
6.745650917E0,1.731935044E-1,1.020579452E0,-1.894555759E0,2.158916379E0
6.755653917E0,5.575206835E-2,1.095343998E0,-1.557416414E0,1.904844522E0
6.765656917E0,8.091936160E-2,1.143988447E0,-1.196243259E0,1.657182984E0
6.775660917E0,1.931762177E-1,1.178168930E0,-1.031100347E0,1.577519257E0
6.785663917E0,3.449875508E-1,1.219706381E0,-9.921269006E-1,1.609663273E0
6.795666917E0,3.791432204E-1,1.265009731E0,-8.786850697E-1,1.586217719E0
6.805670917E0,3.808825478E-1,1.281714056E0,-5.869095933E-1,1.460248372E0
6.815673917E0,5.126843069E-1,1.154387135E0,-3.760987580E-2,1.263672963E0
6.825677917E0,6.639224667E-1,9.148202777E-1,5.232462788E-1,1.245582535E0
6.835680917E0,6.176542532E-1,5.980470774E-1,7.914171302E-1,1.168545317E0
6.845683917E0,3.149506963E-1,3.922695252E-1,8.507932663E-1,9.883918775E-1
6.855687917E0,-3.624844300E-2,1.532944062E-1,6.970208502E-1,7.145986217E-1
6.865690917E0,-2.814157451E-1,-7.029610366E-2,4.724339747E-1,5.543737226E-1
6.875693917E0,-4.353522487E-1,-1.243106353E-1,5.706724602E-1,7.284584898E-1
6.885697917E0,-3.657533524E-1,5.006999999E-2,1.233996976E0,1.288033795E0
6.895700917E0,-1.910151599E-1,3.154526067E-1,2.088438320E0,2.120747924E0
6.905704917E0,-5.971920317E-2,5.097140676E-1,2.769648884E0,2.816794234E0
6.915707917E0,-3.063833194E-2,7.349792200E-1,3.202530538E0,3.285929854E0
6.925710917E0,-8.491478233E-2,8.923605376E-1,3.365612891E0,3.482939560E0
6.935714917E0,1.608973946E-1,8.478684890E-1,3.058325921E0,3.177754928E0
6.945717917E0,5.945442663E-1,8.392648959E-1,2.228366868E0,2.454275321E0
6.955720917E0,8.280047666E-1,1.144235199E0,1.639393793E0,2.163903439E0
6.965724917E0,1.048077226E0,1.624098061E0,1.699086263E0,2.573529583E0
6.975727917E0,1.383401668E0,1.975739670E0,2.388898666E0,3.394728893E0
6.985731917E0,1.652478400E0,1.872770787E0,3.511272880E0,4.308943318E0
6.995734917E0,1.594467004E0,1.368126256E0,4.711389919E0,5.158613132E0
7.005737917E0,1.266784945E0,5.070342886E-1,5.523999113E0,5.690025841E0
7.015741917E0,7.488694270E-1,-5.691428286E-1,5.399079198E0,5.480400091E0
7.025744917E0,2.709070560E-1,-1.507936106E0,4.511637923E0,4.764676135E0
7.035747917E0,-1.260516438E-1,-2.122312410E0,3.225565644E0,3.863207567E0
7.045751917E0,-3.381104212E-1,-2.316090014E0,1.895828698E0,3.012101934E0
7.055754917E0,-3.258118263E-1,-2.066496059E0,8.228774893E-1,2.248040629E0
7.065758917E0,-5.066042259E-2,-1.545198657E0,1.705679584E-1,1.555409527E0
7.075761917E0,5.119662689E-1,-1.040357659E0,1.380878448E-2,1.159587945E0
7.085764917E0,1.101307573E0,-6.939270884E-1,2.253464288E-1,1.321057980E0
7.095768917E0,1.580696957E0,-6.005856460E-1,5.879474741E-1,1.790248089E0
7.105771917E0,1.918915552E0,-7.858733851E-1,9.321753985E-1,2.273496172E0
7.115774917E0,2.182401760E0,-1.256556119E0,1.110119619E0,2.752122143E0
7.125778917E0,2.216369405E0,-1.849117631E0,1.114800900E0,3.094238258E0
7.135781917E0,2.125010023E0,-2.337194661E0,1.022630070E0,3.320228719E0
7.145784917E0,2.000414336E0,-2.631346446E0,7.043795711E-1,3.379614211E0
7.155788917E0,1.843544211E0,-2.673793139E0,1.549810356E-1,3.251437240E0
7.165791917E0,1.759056184E0,-2.428080273E0,-5.310558200E-1,3.044975001E0
7.175795917E0,1.788841608E0,-1.899427074E0,-1.267534851E0,2.900762332E0
7.185798917E0,1.731275332E0,-1.288183708E0,-1.997912897E0,2.940814085E0
7.195801917E0,1.603137109E0,-7.551883668E-1,-2.640199715E0,3.179781847E0
7.205805917E0,1.479481508E0,-3.513895941E-1,-3.055821558E0,3.413266115E0
7.215808917E0,1.343524388E0,-1.261302888E-1,-3.248469772E0,3.517601810E0
7.225811917E0,1.313614565E0,-2.804675460E-2,-3.227330334E0,3.484541710E0
7.235815917E0,1.313959843E0,-5.076786518E-2,-3.088225658E0,3.356516879E0
7.245818917E0,1.424837231E0,-7.912978470E-2,-3.008308838E0,3.329616303E0
7.255821917E0,1.496914250E0,-9.813440502E-2,-2.983955770E0,3.339816562E0
7.265825917E0,1.403208234E0,-1.082682145E-1,-2.988729436E0,3.303516157E0
7.275828917E0,1.128767998E0,-2.864083171E-2,-2.950678681E0,3.159342046E0
7.285832917E0,7.800852263E-1,7.438418448E-2,-2.820897390E0,2.927717209E0
7.295835917E0,6.424350455E-1,1.017585093E-1,-2.577964876E0,2.658755439E0
7.305838917E0,6.474022552E-1,7.070920944E-2,-2.430210999E0,2.515960049E0
7.315842917E0,5.476458326E-1,2.009454131E-2,-2.432671507E0,2.493633977E0
7.325845917E0,3.360155100E-1,3.550663233E-2,-2.536409883E0,2.558816570E0
7.335848250E0,6.118438751E-2,6.969764113E-2,-2.597235544E0,2.598890872E0
7.345852250E0,-1.943658337E-1,2.100483584E-1,-2.478438249E0,2.494905718E0
7.355855250E0,-3.252987331E-1,3.963722241E-1,-2.149276845E0,2.209597511E0
7.365858250E0,-5.061490202E-1,4.501701164E-1,-1.870509084E0,1.989382869E0
7.375862250E0,-6.878684959E-1,4.523224765E-1,-1.507244965E0,1.717424256E0
7.385865250E0,-7.909224558E-1,3.708257389E-1,-8.937545139E-1,1.249746851E0
7.395869250E0,-9.088365296E-1,2.381763893E-1,-2.025691849E-1,9.611171128E-1
7.405872250E0,-1.074801852E0,2.747513080E-1,3.322931725E-1,1.158061335E0
7.415875250E0,-1.260404171E0,3.735920566E-1,9.997411448E-1,1.651566546E0
7.425879250E0,-1.422122661E0,4.949071634E-1,1.616877335E0,2.209447505E0
7.435882250E0,-1.277378054E0,5.746245933E-1,1.842601494E0,2.314534160E0
7.445885250E0,-1.097936361E0,7.157120597E-1,1.723653924E0,2.165338508E0
7.455889250E0,-9.666105285E-1,9.771586132E-1,1.504639446E0,2.037919216E0
7.465892250E0,-9.491972280E-1,1.236614774E0,1.401472342E0,2.096262437E0
7.475895250E0,-1.021363271E0,1.401320314E0,1.559820789E0,2.332364133E0
7.485899250E0,-1.246603865E0,1.424967624E0,2.044729798E0,2.786659986E0
7.495902250E0,-1.481402318E0,1.215617423E0,2.504359540E0,3.153425955E0
7.505905250E0,-1.647774607E0,9.392821044E-1,2.637210034E0,3.248428665E0
7.515909250E0,-1.706130112E0,8.530935609E-1,2.393855935E0,3.060914050E0
7.525912250E0,-1.540770561E0,1.042540424E0,1.766077813E0,2.565130659E0
7.535915250E0,-1.276488107E0,1.532799051E0,1.023398395E0,2.241927540E0
7.545919250E0,-1.058736042E0,2.314815028E0,8.405302334E-1,2.680630839E0
7.555922250E0,-8.812932202E-1,3.050281321E0,1.318075844E0,3.437763490E0
7.565925250E0,-6.779989806E-1,3.417834958E0,2.076152151E0,4.056067822E0
7.575929250E0,-3.789896214E-1,3.126638356E0,2.734458001E0,4.170942472E0
7.585932250E0,-9.228309631E-2,2.152943634E0,3.078672477E0,3.757912543E0
7.595936250E0,-3.885854870E-2,9.367397350E-1,2.980737462E0,3.124705928E0
7.605939250E0,-2.284053996E-1,-1.629811960E-1,2.542616703E0,2.558052305E0
7.615942250E0,-5.976637924E-1,-9.593789846E-1,1.789304708E0,2.116417110E0
7.625946250E0,-1.037052813E0,-1.355146022E0,8.858028853E-1,1.922640379E0
7.635949250E0,-1.392274672E0,-1.422709429E0,-8.027993202E-2,1.992228840E0
7.645952250E0,-1.558680874E0,-1.230207980E0,-1.018615372E0,2.231697789E0
7.655956250E0,-1.424573814E0,-5.211243242E-1,-1.523866260E0,2.150151039E0
7.665959250E0,-1.085382389E0,-1.280394047E-1,-1.976419702E0,2.258469361E0
7.675962250E0,-9.274081635E-1,1.235428959E-1,-2.122170907E0,2.319258094E0
7.685966250E0,-8.349180758E-1,2.446515960E-1,-2.212836079E0,2.377727089E0
7.695969250E0,-8.624610928E-1,-7.631259620E-2,-2.264606742E0,2.424480654E0
7.705972250E0,-8.908349991E-1,-6.732951880E-1,-2.042579193E0,2.327883838E0
7.715976250E0,-8.162356371E-1,-1.377106410E0,-1.678563706E0,2.319534176E0
7.725979250E0,-6.781360978E-1,-1.891278394E0,-1.282635285E0,2.383685342E0
7.735982250E0,-4.589856711E-1,-2.235732606E0,-8.345274818E-1,2.430144903E0
7.745986250E0,-2.077141500E-1,-2.532956518E0,-4.964847422E-1,2.589500143E0
7.755989250E0,-2.681796223E-2,-2.738329443E0,-4.129058111E-1,2.769414839E0
7.765992250E0,-3.753123075E-2,-2.771182609E0,-6.405560428E-1,2.844498846E0
7.775996250E0,-1.125855061E-1,-2.715456889E0,-1.149324616E0,2.950818308E0
7.785999250E0,-1.494919619E-1,-2.466136292E0,-1.367806413E0,2.824016721E0
7.796002250E0,-1.159163725E-1,-2.188973592E0,-1.297998260E0,2.547516727E0
7.806006250E0,2.613032967E-2,-1.955543972E0,-1.288571963E0,2.342061640E0
7.816009250E0,2.607162362E-1,-1.719374932E0,-1.182398806E0,2.102924166E0
7.826012250E0,4.199055129E-1,-1.445909427E0,-1.160641901E0,1.901069261E0
7.836016250E0,5.329169887E-1,-1.109574659E0,-9.868117815E-1,1.577641890E0
7.846019250E0,7.336992645E-1,-6.757486796E-1,-7.070763069E-1,1.222664219E0
7.856022250E0,9.427088651E-1,-2.394048893E-1,-4.499759889E-1,1.071677702E0
7.866026250E0,1.158762606E0,1.237060332E-1,-4.724228650E-1,1.257464641E0
7.876029250E0,1.281308260E0,4.708984959E-1,-6.258637440E-1,1.501732891E0
7.886032250E0,1.279541523E0,7.129843336E-1,-7.447200966E-1,1.643222807E0
7.896036250E0,1.287596940E0,8.447185940E-1,-7.882625574E-1,1.729974925E0
7.906039250E0,1.188681055E0,9.747910756E-1,-7.937221026E-1,1.730079497E0
7.916042250E0,9.978498629E-1,1.029709879E0,-8.986562347E-1,1.692214470E0
7.926046250E0,8.563995767E-1,8.966073704E-1,-1.093157431E0,1.652972529E0
7.936049250E0,7.697964656E-1,6.960320860E-1,-1.099891085E0,1.512219449E0
7.946052250E0,6.035031143E-1,5.833702737E-1,-9.158002710E-1,1.242266888E0
7.956056250E0,2.901590136E-1,5.026769435E-1,-6.533836645E-1,8.739488405E-1
7.966059250E0,1.280262485E-1,4.209901714E-1,-4.301632833E-1,6.153567218E-1
7.976062250E0,2.013149571E-1,3.146854520E-1,-3.976182657E-1,5.455776122E-1
7.986066250E0,2.940784022E-1,3.008176106E-1,-4.388493222E-1,6.079161695E-1
7.996069250E0,1.802465621E-1,5.124587506E-1,-2.625996244E-1,6.033749721E-1
8.006072250E0,1.063658229E-1,8.294842583E-1,-4.135022271E-1,9.329211729E-1
8.016076250E0,-1.878125668E-3,1.151723143E0,-3.432607949E-1,1.201789374E0
8.026079250E0,-2.098197323E-1,1.339075534E0,2.623429316E-1,1.380569238E0
8.036082250E0,-3.924250612E-1,1.338872051E0,1.128814337E0,1.794658075E0
8.046086250E0,-6.371362987E-1,1.165413814E0,2.131501309E0,2.511459706E0
8.056089250E0,-1.037763249E0,9.318748516E-1,2.943415269E0,3.257151631E0
8.066092250E0,-1.412356934E0,6.954532117E-1,3.000800428E0,3.388688609E0
8.076096250E0,-1.486444957E0,6.072865552E-1,2.456306537E0,2.934579591E0
8.086099250E0,-1.546601404E0,1.092780871E0,1.259698412E0,2.274419931E0
8.096102250E0,-1.404483658E0,1.942960179E0,-6.274764061E-2,2.398250586E0
8.106106250E0,-7.693286884E-1,2.943243361E0,-8.927277428E-1,3.170411793E0
8.116109250E0,-1.986205602E-1,3.497746516E0,-9.160400069E-1,3.621161431E0
8.126112250E0,3.614342335E-1,3.698868515E0,-8.326025784E-2,3.717417822E0
8.136116250E0,8.810189858E-1,3.232501026E0,1.570200766E0,3.700106456E0
8.146119250E0,1.200187790E0,2.170738465E0,3.311845989E0,4.137738521E0
8.156122250E0,1.127836975E0,8.431462777E-1,4.607379062E0,4.817764389E0
8.166126250E0,8.305689168E-1,-2.381816518E-1,5.107938144E0,5.180502612E0
8.176129250E0,4.987578472E-1,-1.070009474E0,4.907244161E0,5.047249243E0
8.186132250E0,1.299675241E-1,-1.743036860E0,3.999631162E0,4.364873249E0
8.196136250E0,-1.870267010E-1,-2.145152219E0,2.759648976E0,3.500331341E0
8.206139250E0,-3.145959896E-1,-2.269995536E0,1.612964378E0,2.802410472E0
8.216142250E0,-2.726232138E-1,-2.109015257E0,8.633525008E-1,2.295135358E0
8.226146250E0,-4.703558743E-2,-1.857033591E0,5.171803772E-1,1.928279453E0
8.236149250E0,3.751038542E-1,-1.689816087E0,4.049804950E-1,1.777692468E0
8.246152250E0,8.484081870E-1,-1.697091193E0,4.319601327E-1,1.945894274E0
8.256156250E0,1.217195002E0,-1.807783663E0,4.557635629E-1,2.226514287E0
8.266159250E0,1.420324935E0,-1.927264498E0,4.731683850E-1,2.440401542E0
8.276162250E0,1.594083426E0,-2.015670306E0,3.346583712E-1,2.591529467E0
8.286166250E0,1.643203254E0,-2.028908402E0,-4.864064813E-2,2.611312343E0
8.296169250E0,1.543138683E0,-1.981115016E0,-6.302210891E-1,2.589067848E0
8.306172250E0,1.362963164E0,-1.868298252E0,-1.313547176E0,2.659626502E0
8.316176250E0,1.126293895E0,-1.748843729E0,-1.986181043E0,2.876092395E0
8.326179250E0,9.954495808E-1,-1.644095539E0,-2.554642671E0,3.196899934E0
8.336182542E0,9.225301239E-1,-1.575136401E0,-3.006756402E0,3.517484978E0
8.346186542E0,8.380384424E-1,-1.491981978E0,-3.240542117E0,3.664618925E0
8.356189542E0,7.470116204E-1,-1.439416679E0,-3.286828676E0,3.665131578E0
8.366192542E0,6.781907693E-1,-1.454128858E0,-3.210721318E0,3.589312585E0
8.376196542E0,7.035071665E-1,-1.541142443E0,-3.149886886E0,3.576566756E0
8.386199542E0,7.241200635E-1,-1.529607056E0,-3.139038547E0,3.566175909E0
8.396202542E0,7.575333926E-1,-1.335689996E0,-3.129290069E0,3.485739655E0
8.406206542E0,7.125001842E-1,-1.021312693E0,-3.057945267E0,3.301782153E0
8.416209542E0,5.429095879E-1,-6.248147535E-1,-2.772169619E0,2.893107100E0
8.426212542E0,3.691484651E-1,-2.682696694E-1,-2.384433732E0,2.427707443E0
8.436216542E0,2.632901806E-1,-1.145650810E-1,-2.025130516E0,2.045385168E0
8.446219542E0,1.911098117E-1,-9.666149139E-2,-1.853681967E0,1.866012658E0
8.456222542E0,2.628615797E-2,-7.726744652E-2,-1.855491096E0,1.857285230E0
8.466225542E0,-2.038424161E-1,2.605168462E-2,-1.916855285E0,1.927839362E0
8.476229542E0,-5.041755849E-1,2.216620982E-1,-1.818022723E0,1.899614099E0
8.486232542E0,-7.922345710E-1,4.056739748E-1,-1.470419201E0,1.718819250E0
8.496235542E0,-1.105955525E0,5.125786185E-1,-9.151278412E-1,1.524248480E0
8.506239542E0,-1.286932112E0,4.771439070E-1,-1.379790866E-1,1.379455978E0
8.516242542E0,-1.252233565E0,4.258468688E-1,6.731916922E-1,1.484123145E0
8.526245542E0,-1.070968125E0,4.038818032E-1,1.317195838E0,1.745020949E0
8.536249542E0,-8.455684868E-1,5.767839700E-1,1.622004758E0,1.917958615E0
8.546252542E0,-6.973576498E-1,9.371835387E-1,1.580859656E0,1.965639318E0
8.556255542E0,-6.199256042E-1,1.434678095E0,1.243104599E0,1.996977225E0
8.566259542E0,-4.902118492E-1,1.929700449E0,8.607785565E-1,2.169099168E0
8.576262542E0,-2.707436264E-1,2.336003584E0,6.205228972E-1,2.432131477E0
8.586265542E0,-2.212001681E-2,2.580422460E0,7.356633443E-1,2.683331870E0
8.596269542E0,9.653869987E-2,2.616542466E0,1.139936911E0,2.855708381E0
8.606272542E0,9.977834970E-2,2.372438169E0,1.618722131E0,2.873791907E0
8.616275542E0,-4.711832553E-2,1.853248689E0,2.344751018E0,2.989081494E0
8.626279542E0,-2.180876952E-1,1.071404035E0,3.353952958E0,3.527671937E0
8.636282542E0,-3.916874349E-1,3.048755783E-1,4.340608619E0,4.368895896E0
8.646285542E0,-5.901930973E-1,-2.089987832E-1,4.540651807E0,4.583615081E0
8.656289542E0,-8.020611092E-1,-3.145462883E-1,3.709108744E0,3.807850977E0
8.666292542E0,-9.493328834E-1,3.151280862E-1,2.088253548E0,2.315457086E0
8.676295542E0,-8.286033753E-1,1.562238613E0,3.058649272E-1,1.794638234E0
8.686298542E0,-5.645881400E-1,3.080292156E0,-8.959466350E-1,3.257250360E0
8.696302542E0,-3.686666545E-1,3.957804859E0,-1.279791784E0,4.175883309E0
8.706305542E0,-1.183520302E-1,4.105481552E0,-6.398204631E-1,4.156724216E0
8.716308542E0,1.652610254E-1,3.453345684E0,7.742567217E-1,3.542933966E0
8.726312542E0,3.390616170E-1,2.341553761E0,2.173707097E0,3.212917574E0
8.736315542E0,2.981866559E-1,1.255503035E0,3.304642219E0,3.547656036E0
8.746318542E0,7.944728851E-2,2.790051574E-1,3.611768391E0,3.623399875E0
8.756322542E0,-2.837604055E-1,-4.712873358E-1,3.148268377E0,3.195970196E0
8.766325542E0,-6.719003347E-1,-9.009518516E-1,2.049965395E0,2.337845679E0
8.776328542E0,-9.603838286E-1,-8.904385579E-1,8.577181238E-1,1.565534510E0
8.786332542E0,-1.030477034E0,-5.779949284E-1,-1.139879608E-1,1.186993812E0
8.796335542E0,-9.304905233E-1,-1.490250617E-1,-9.558957982E-1,1.342295742E0
8.806338542E0,-7.329078439E-1,3.756841904E-1,-1.623715653E0,1.820644128E0
8.816342542E0,-6.982496426E-1,4.040005016E-1,-2.072825085E0,2.224269049E0
8.826345542E0,-7.753147754E-1,1.882171941E-1,-2.107456974E0,2.253422643E0
8.836348542E0,-7.992728645E-1,-2.757523513E-1,-1.838993762E0,2.024049042E0
8.846352542E0,-7.603552589E-1,-9.189144981E-1,-1.240589712E0,1.720931959E0
8.856355542E0,-6.489535215E-1,-1.465598171E0,-5.773856485E-1,1.703670408E0
8.866358542E0,-5.477154145E-1,-1.968231261E0,5.777399898E-2,2.043835685E0
8.876361542E0,-4.100140706E-1,-2.378545001E0,4.446836740E-1,2.454247630E0
8.886365542E0,-2.058021104E-1,-2.676117407E0,5.116863334E-1,2.732358283E0
8.896368542E0,1.101820081E-2,-2.813614683E0,3.534530765E-1,2.835750000E0
8.906371542E0,2.200988451E-1,-2.806644217E0,-9.757833481E-3,2.815278047E0
8.916375542E0,4.107701156E-1,-2.702227564E0,-6.225290769E-1,2.803267441E0
8.926378542E0,6.277909863E-1,-2.500374078E0,-1.292315935E0,2.883760137E0
8.936381542E0,8.212180495E-1,-2.178907025E0,-1.898609049E0,3.004455230E0
8.946385542E0,9.112452900E-1,-1.808344996E0,-2.443661934E0,3.173635652E0
8.956388542E0,9.998735842E-1,-1.400177768E0,-2.916652563E0,3.386311731E0
8.966391542E0,1.172533676E0,-1.032984320E0,-3.232698662E0,3.590575507E0
8.976395542E0,1.355193677E0,-7.230701959E-1,-3.329774721E0,3.666985152E0
8.986398542E0,1.435629437E0,-4.414525026E-1,-3.222413410E0,3.555258131E0
8.996401542E0,1.516467778E0,-2.312000763E-1,-2.901725206E0,3.282245751E0
9.006404542E0,1.529190735E0,-5.453288734E-2,-2.483566841E0,2.917105139E0
9.016408542E0,1.526510663E0,2.856014013E-2,-2.113912300E0,2.607618779E0
9.026411542E0,1.516144135E0,4.349860668E-2,-1.792202003E0,2.347886962E0
9.036414542E0,1.515893289E0,4.394241035E-2,-1.402653480E0,2.065744462E0
9.046418542E0,1.416931795E0,6.381417274E-2,-1.000020057E0,1.735456158E0
9.056421542E0,1.359228548E0,5.129586875E-2,-7.131100488E-1,1.535792777E0
9.066424542E0,1.324869139E0,7.643129468E-2,-5.305845344E-1,1.429209546E0
9.076428542E0,1.289597273E0,1.088997138E-1,-4.737250400E-1,1.378163882E0
9.086431542E0,1.246545686E0,1.932013607E-1,-4.203645194E-1,1.329627482E0
9.096434542E0,1.219703165E0,2.979489666E-1,-4.189553404E-1,1.323621160E0
9.106438542E0,1.207518445E0,3.999746937E-1,-3.988520283E-1,1.333102956E0
9.116441542E0,1.034202003E0,5.220668954E-1,-4.695700085E-1,1.250049446E0
9.126444542E0,6.213371220E-1,6.008002388E-1,-7.388179171E-1,1.137045584E0
9.136447542E0,-1.821407676E-3,5.741942382E-1,-1.079979562E0,1.223134577E0
9.146451542E0,-5.510547593E-1,4.467553425E-1,-1.270708135E0,1.455318126E0
9.156454542E0,-9.400457507E-1,4.002530211E-1,-1.293486548E0,1.648331261E0
9.166457542E0,-1.290664974E0,4.548636764E-1,-1.039748379E0,1.718660447E0
9.176461542E0,-1.568105124E0,4.971466470E-1,-3.666707075E-1,1.685394873E0
9.186464542E0,-1.728797720E0,3.720472223E-1,6.074502772E-1,1.869801201E0
9.196467542E0,-1.909041066E0,4.917508364E-2,1.782860491E0,2.612555743E0
9.206471542E0,-1.989105236E0,-2.579686296E-1,2.986696944E0,3.597700111E0
9.216474542E0,-2.036332320E0,-3.702755159E-1,3.533173041E0,4.094760678E0
9.226477542E0,-2.049523053E0,-1.595605749E-1,2.768800453E0,3.448515662E0
9.236480542E0,-1.891562569E0,5.595148033E-1,1.173305801E0,2.295149727E0
9.246484542E0,-1.667159881E0,1.696693583E0,1.279370785E-1,2.382133304E0
9.256487542E0,-1.461982838E0,2.815725528E0,-3.655375171E-1,3.193637698E0
9.266490542E0,-9.045902815E-1,3.710681060E0,-3.144673508E-1,3.832274419E0
9.276494542E0,-1.019833347E-1,3.553266998E0,5.217528999E-1,3.592816868E0
9.286497542E0,6.560809851E-2,2.294955545E0,2.033648740E0,3.067059271E0
9.296500542E0,-1.126311144E-1,1.516670092E0,4.382119757E0,4.638528592E0
9.306503542E0,-2.151158479E-1,5.266236305E-1,6.086548036E0,6.113074045E0
9.316507542E0,-1.688786978E-1,-4.714188981E-1,6.643384815E0,6.662230677E0
9.326510542E0,-2.429465479E-1,-1.329847459E0,6.260522583E0,6.404815399E0
9.336513500E0,-4.012999651E-1,-1.920799817E0,5.343702557E0,5.692597879E0
9.346517500E0,-5.427584374E-1,-2.118319346E0,4.131494061E0,4.674516740E0
9.356520500E0,-5.399546975E-1,-1.940731806E0,2.893659557E0,3.525798725E0
9.366523500E0,-4.482668477E-1,-1.712776934E0,1.676475665E0,2.438261398E0
9.376527500E0,-1.857929385E-1,-1.347920617E0,1.003670474E0,1.690787812E0
9.386530500E0,2.241474572E-1,-1.084513493E0,6.485322297E-1,1.283357180E0
9.396533500E0,5.417068157E-1,-9.233291459E-1,2.555899823E-1,1.100594941E0
9.406536500E0,7.886920354E-1,-9.400697243E-1,-2.121019006E-2,1.227279954E0
9.416540500E0,9.678963313E-1,-1.143841681E0,-1.409635055E-1,1.505014223E0
9.426543500E0,1.090739900E0,-1.438354824E0,-3.409061211E-1,1.837061543E0
9.436546500E0,1.156757304E0,-1.664355556E0,-7.072055304E-1,2.146696658E0
9.446550500E0,1.150511893E0,-1.740436018E0,-1.223010058E0,2.418377297E0
9.456553500E0,1.016173867E0,-1.628433187E0,-1.728638676E0,2.583136784E0
9.466556500E0,7.681411189E-1,-1.413279040E0,-2.124537860E0,2.664781331E0
9.476559500E0,6.304429910E-1,-1.220720873E0,-2.441660432E0,2.801664412E0
9.486563500E0,5.852453296E-1,-1.101731204E0,-2.852599239E0,3.113462086E0
9.496566500E0,5.200168616E-1,-1.020029229E0,-3.164218411E0,3.364989646E0
9.506569500E0,4.768456990E-1,-9.229438144E-1,-3.289348242E0,3.449495465E0
9.516573500E0,4.643971230E-1,-7.962527776E-1,-3.339342520E0,3.464230310E0
9.526576500E0,4.021995592E-1,-6.242890888E-1,-3.475264556E0,3.553725522E0
9.536579500E0,3.467577222E-1,-4.002454197E-1,-3.608297483E0,3.646950513E0
9.546582500E0,2.543056414E-1,-1.546834123E-1,-3.576591541E0,3.588956028E0
9.556586500E0,1.597916861E-1,1.279680687E-1,-3.263810527E0,3.270224513E0
9.566589500E0,1.970258783E-1,3.777622908E-1,-2.699344887E0,2.732761673E0
9.576592500E0,2.905240260E-1,4.233150244E-1,-2.095476029E0,2.157456745E0
9.586596500E0,2.566291787E-1,2.915170294E-1,-1.562530974E0,1.610075699E0
9.596599500E0,1.145115790E-1,8.895603061E-2,-1.280259562E0,1.288445040E0
9.606602500E0,-8.875737146E-2,-1.116134065E-1,-1.284585916E0,1.292476847E0
9.616605500E0,-4.117233579E-1,-2.225508749E-1,-1.374961066E0,1.452433458E0
9.626609500E0,-7.462796952E-1,-2.007834452E-1,-1.349125144E0,1.554794530E0
9.636612500E0,-7.474273574E-1,-4.511185348E-2,-9.386699009E-1,1.200743069E0
9.646615500E0,-4.605628113E-1,1.984217548E-1,-4.997369635E-1,7.079733955E-1
9.656619500E0,-1.820435576E-1,4.742916352E-1,-2.108541048E-1,5.500471485E-1
9.666622500E0,-4.665405661E-2,7.829608870E-1,-8.826839805E-2,7.893007422E-1
9.676625500E0,-1.836886717E-1,1.191491811E0,-1.090283525E-1,1.210488102E0
9.686628500E0,-4.016757949E-1,1.625792000E0,-1.750825936E-1,1.683804319E0
9.696632500E0,-5.138695376E-1,2.027496300E0,-4.705079019E-2,2.092132148E0
9.706635500E0,-6.333347315E-1,2.218900811E0,7.711834252E-2,2.308805087E0
9.716638500E0,-6.944378427E-1,2.224377313E0,1.606288612E-1,2.335786801E0
9.726642500E0,-4.949157880E-1,2.144894357E0,2.120136076E-1,2.211439171E0
9.736645500E0,-3.100861783E-1,1.935048312E0,7.303406239E-2,1.961096474E0
9.746648500E0,-3.283457172E-1,1.642102223E0,-1.298684138E-1,1.679635802E0
9.756651500E0,-6.378592338E-1,1.791584537E0,7.353809237E-1,2.038976375E0
9.766655500E0,-5.951608917E-1,1.514691394E0,2.882919391E0,3.310548402E0
9.776658500E0,-2.010643309E-1,9.594485664E-1,3.972360333E0,4.091529669E0
9.786661500E0,-2.143027925E-1,4.708546418E-1,4.399505868E0,4.429817340E0
9.796664500E0,-2.653194568E-1,2.388301080E-1,4.504285634E0,4.518409378E0
9.806668500E0,-3.754170457E-1,2.161318016E-1,3.931893507E0,3.955684197E0
9.816671500E0,-3.263751324E-1,5.069337165E-1,2.959590422E0,3.020377126E0
9.826674500E0,-5.485435264E-1,1.222874402E0,2.261853288E0,2.629125729E0
9.836678500E0,-8.048782247E-1,1.934374713E0,1.638580445E0,2.659808332E0
9.846681500E0,-9.307739671E-1,2.291611522E0,1.222352246E0,2.758979623E0
9.856684500E0,-1.019228526E0,2.366819580E0,1.753364797E0,3.116881425E0
9.866687500E0,-8.506961294E-1,2.071756799E0,2.836697152E0,3.614237246E0
9.876691500E0,-7.021109976E-1,1.253923118E0,3.257207267E0,3.560151993E0
9.886694500E0,-6.308406747E-1,1.876991308E-1,3.033008646E0,3.103599905E0
9.896697500E0,-5.972828463E-1,-6.707118881E-1,2.335093172E0,2.501851586E0
9.906701500E0,-6.799339704E-1,-1.202241333E0,1.186933322E0,1.821127436E0
9.916704500E0,-9.817708238E-1,-1.443619072E0,-1.082202673E-1,1.749177408E0
9.926707500E0,-1.373345773E0,-1.509531226E0,-1.373266543E0,2.459801645E0
9.936710500E0,-1.606931659E0,-1.445214193E0,-2.288664526E0,3.147833975E0
9.946714500E0,-1.703720182E0,-1.297325830E0,-2.761585574E0,3.494577463E0
9.956717500E0,-1.702951419E0,-1.128017946E0,-2.758657288E0,3.432587662E0
9.966720500E0,-1.664186864E0,-1.052625117E0,-2.568660786E0,3.236596328E0
9.976723500E0,-1.672071250E0,-9.860200685E-1,-2.158999010E0,2.903331632E0
9.986727500E0,-1.593585536E0,-9.917684662E-1,-1.391744914E0,2.336680007E0
9.996730500E0,-1.177863925E0,-1.110512552E0,-3.397325850E-1,1.654091831E0
1.000673350E1,-6.895316633E-1,-1.271380565E0,6.269945955E-1,1.576383417E0
1.001673650E1,-3.583527508E-1,-1.402347963E0,1.162618260E0,1.856523019E0
1.002674050E1,3.543770827E-2,-1.504632429E0,1.393373948E0,2.051015733E0
1.003674350E1,3.838433586E-1,-1.612207164E0,1.370147638E0,2.150314445E0
1.004674650E1,6.057724187E-1,-1.714043733E0,9.728515542E-1,2.061879310E0
1.005675050E1,5.298368948E-1,-1.786601832E0,3.098410338E-1,1.889093621E0
1.006675350E1,2.528467245E-1,-1.733470522E0,-5.225025129E-1,1.828075599E0
1.007675650E1,-1.603863114E-1,-1.602449038E0,-1.432029891E0,2.155058305E0
1.008675950E1,-4.855088606E-1,-1.400093861E0,-2.157055981E0,2.617034997E0
1.009676350E1,-6.116931265E-1,-1.113677358E0,-2.601222176E0,2.894961580E0
1.010676650E1,-5.133394875E-1,-7.040158743E-1,-2.781491250E0,2.914764030E0
1.011676950E1,-2.706570327E-1,-2.756739986E-1,-2.706923463E0,2.734352943E0
1.012677250E1,3.252471680E-2,1.732620630E-1,-2.513249647E0,2.519424813E0
1.013677650E1,2.923252060E-1,6.419345239E-1,-2.309097036E0,2.414428106E0
1.014677950E1,4.329675714E-1,1.002508924E0,-1.963931218E0,2.247111678E0
1.015678250E1,4.543357094E-1,1.183069189E0,-1.502467205E0,1.965574050E0
1.016678550E1,4.227301201E-1,1.214086037E0,-1.107878966E0,1.697086169E0
1.017678950E1,4.223992773E-1,1.127282659E0,-9.310182345E-1,1.521835174E0
1.018679250E1,3.866309455E-1,9.407389382E-1,-1.027173357E0,1.445530471E0
1.019679550E1,3.048731298E-1,7.475355309E-1,-1.224002330E0,1.466266927E0
1.020679950E1,2.937917607E-1,6.859064627E-1,-1.216282836E0,1.426928594E0
1.021680250E1,4.032830848E-1,7.527541709E-1,-1.013690847E0,1.325460381E0
1.022680550E1,5.208368605E-1,7.978952605E-1,-6.304216486E-1,1.142514480E0
1.023680850E1,6.027181987E-1,8.203883296E-1,-2.589164633E-1,1.050401815E0
1.024681250E1,6.705803257E-1,7.665430748E-1,-1.268687922E-1,1.026334229E0
1.025681550E1,6.310104632E-1,6.294732302E-1,-2.327501732E-1,9.211858637E-1
1.026681850E1,4.018900953E-1,5.133685774E-1,-5.041890335E-1,8.241780915E-1
1.027682150E1,1.146250881E-1,5.159735119E-1,-8.508938384E-1,1.001692518E0
1.028682550E1,-4.507658746E-2,6.633303630E-1,-1.097652771E0,1.283308488E0
1.029682850E1,-3.235129204E-2,8.895351630E-1,-1.092448749E0,1.409171275E0
1.030683150E1,1.531367507E-1,1.176431138E0,-7.212540507E-1,1.388397815E0
1.031683450E1,3.917203620E-1,1.484750142E0,-1.315623522E-4,1.535554571E0
1.032683850E1,4.455268425E-1,1.685762213E0,9.057132393E-1,1.964842202E0
1.033684250E1,3.308945185E-1,1.746608339E0,1.670831932E0,2.439633419E0
1.034684550E1,2.611670566E-1,1.616691393E0,1.793467340E0,2.428667205E0
1.035684850E1,3.559414322E-1,1.407302601E0,1.396499285E0,2.014300168E0
1.036685250E1,4.512103726E-1,1.323976854E0,9.681012762E-1,1.701095409E0
1.037685550E1,5.043598088E-1,1.332912569E0,7.368433124E-1,1.604360558E0
1.038685850E1,7.069510303E-1,1.291669233E0,8.489478850E-1,1.699676934E0
1.039686150E1,9.965384055E-1,1.180749307E0,1.581800473E0,2.211187567E0
1.040686550E1,1.164945233E0,1.058626699E0,2.864918738E0,3.268875534E0
1.041686850E1,1.204820101E0,8.170881611E-1,4.344513974E0,4.581923855E0
1.042687150E1,1.205515993E0,4.309222519E-1,5.457561294E0,5.605705850E0
1.043687450E1,1.122135355E0,-1.920588148E-1,5.625768147E0,5.739803271E0
1.044687850E1,1.006333515E0,-9.605867270E-1,5.027277558E0,5.216220246E0
1.045688150E1,8.706213208E-1,-1.599977712E0,4.245306605E0,4.619582052E0
1.046688450E1,7.921008890E-1,-1.952255791E0,3.430960788E0,4.026191553E0
1.047688750E1,8.525344940E-1,-1.991736191E0,2.546640172E0,3.343531708E0
1.048689150E1,1.036654106E0,-1.928144504E0,1.672339929E0,2.754834624E0
1.049689450E1,1.215986382E0,-1.789621042E0,9.071364516E-1,2.346116557E0
1.050689750E1,1.357707395E0,-1.678430974E0,3.527794772E-1,2.187453603E0
1.051690050E1,1.431960748E0,-1.616056970E0,7.182485819E-2,2.160395918E0
1.052690450E1,1.444154677E0,-1.676083317E0,5.221095800E-2,2.213044058E0
1.053690750E1,1.356828120E0,-1.879835101E0,7.971976876E-2,2.319723646E0
1.054691050E1,1.245215736E0,-2.149730881E0,4.340563595E-2,2.484711078E0
1.055691350E1,1.175034238E0,-2.463274080E0,-5.501586735E-2,2.729734675E0
1.056691750E1,9.289417420E-1,-2.733692601E0,-2.884115732E-1,2.901583918E0
1.057692050E1,5.743464485E-1,-2.877087963E0,-6.412354892E-1,3.003113708E0
1.058692350E1,1.779149300E-1,-2.867107643E0,-1.062468320E0,3.062808987E0
1.059692650E1,-4.323358163E-2,-2.612937365E0,-1.498992205E0,3.012687910E0
1.060693050E1,-1.865444153E-1,-2.162592709E0,-1.905270782E0,2.888193691E0
1.061693350E1,-2.410714737E-1,-1.702948057E0,-2.247065095E0,2.829743642E0
1.062693650E1,-1.844210903E-1,-1.257536697E0,-2.477519066E0,2.784512598E0
1.063693950E1,-7.914221004E-2,-8.508692801E-1,-2.571051713E0,2.709344742E0
1.064694350E1,5.014376627E-2,-4.995127228E-1,-2.623590699E0,2.671189906E0
1.065694650E1,2.294003034E-1,-1.873240319E-1,-2.593344807E0,2.610201540E0
1.066694950E1,3.864116384E-1,1.431421781E-1,-2.603410789E0,2.635820816E0
1.067695250E1,5.133357599E-1,5.728751063E-1,-2.734290186E0,2.840429952E0
1.068695650E1,5.420054257E-1,9.794913599E-1,-2.769281094E0,2.986986941E0
1.069695950E1,5.832727348E-1,1.288312055E0,-2.447366729E0,2.826580786E0
1.070696250E1,7.172950472E-1,1.548234531E0,-2.051516662E0,2.668382087E0
1.071696550E1,8.398615312E-1,1.694181619E0,-1.797543435E0,2.608980864E0
1.072696950E1,8.687099390E-1,1.718760974E0,-1.738216415E0,2.594261465E0
1.073697250E1,7.451860466E-1,1.573364402E0,-1.880787320E0,2.562838023E0
1.074697550E1,4.680924171E-1,1.398363962E0,-2.055400967E0,2.529665080E0
1.075697850E1,1.224421027E-1,1.222999825E0,-2.083178750E0,2.418750575E0
1.076698250E1,-2.258192858E-1,9.747176930E-1,-1.963828892E0,2.204017434E0
1.077698550E1,-4.190995473E-1,6.629444468E-1,-1.751452757E0,1.919043129E0
1.078698850E1,-4.436223312E-1,4.311558482E-1,-1.479517468E0,1.603642129E0
1.079699150E1,-3.329513497E-1,3.093814427E-1,-1.083117177E0,1.174613255E0
1.080699550E1,-1.719594860E-1,3.225251064E-1,-5.862862802E-1,6.908864678E-1
1.081699850E1,-5.448679483E-2,4.597165731E-1,-4.185729325E-2,4.648227311E-1
1.082700150E1,-5.120676724E-2,6.869346955E-1,4.757388210E-1,8.371552035E-1
1.083700450E1,-1.245182572E-1,9.441338316E-1,7.910119182E-1,1.237979541E0
1.084700850E1,-3.366410889E-1,1.166241488E0,8.152959895E-1,1.462242791E0
1.085701150E1,-4.994050244E-1,1.335592348E0,6.990311229E-1,1.588035519E0
1.086701450E1,-5.281670762E-1,1.449476228E0,6.286592978E-1,1.665879440E0
1.087701750E1,-3.645964808E-1,1.516092094E0,6.759574252E-1,1.699524720E0
1.088702150E1,-7.700449540E-2,1.508662622E0,8.405466056E-1,1.728731094E0
1.089702450E1,1.583224270E-1,1.366931670E0,1.176304253E0,1.810320380E0
1.090702750E1,2.281432616E-1,1.168833851E0,1.753109858E0,2.119343316E0
1.091703050E1,6.118502704E-2,9.938836965E-1,2.531506993E0,2.720308083E0
1.092703450E1,-1.382642663E-1,8.537148276E-1,3.221422892E0,3.335492686E0
1.093703750E1,-1.699465638E-1,7.560002527E-1,3.293168812E0,3.383101985E0
1.094704050E1,5.885143982E-2,8.372894141E-1,2.949851884E0,3.066943624E0
1.095704350E1,3.531696327E-1,1.115571856E0,2.547887383E0,2.803740265E0
1.096704750E1,5.062247416E-1,1.528478251E0,2.155469631E0,2.690456947E0
1.097705050E1,5.248927816E-1,1.921799398E0,1.868657856E0,2.731429579E0
1.098705350E1,5.487024245E-1,2.148472560E0,1.972174623E0,2.967571640E0
1.099705650E1,6.730769406E-1,2.139780967E0,2.542122028E0,3.390291958E0
1.100706050E1,7.867675705E-1,1.855085591E0,3.145980361E0,3.735978880E0
1.101706350E1,8.487932262E-1,1.256525421E0,3.393894119E0,3.717233294E0
1.102706650E1,7.836534896E-1,4.577846530E-1,3.140680445E0,3.269182350E0
1.103706950E1,4.584942857E-1,-3.041739124E-1,2.537908525E0,2.596867047E0
1.104707350E1,-1.011871084E-1,-8.532315552E-1,1.759320771E0,1.957920451E0
1.105707650E1,-7.582438293E-1,-1.191056778E0,8.463745254E-1,1.646177327E0
1.106707950E1,-1.316371965E0,-1.266396398E0,-1.273003167E-1,1.831065362E0
1.107708250E1,-1.592308650E0,-1.114388087E0,-9.329548323E-1,2.155855367E0
1.108708650E1,-1.751318271E0,-8.694996786E-1,-1.426210157E0,2.420169579E0
1.109708950E1,-1.713023979E0,-6.370547301E-1,-1.644504259E0,2.458593935E0
1.110709250E1,-1.589178782E0,-4.711940727E-1,-1.509565140E0,2.241941116E0
1.111709550E1,-1.523175558E0,-3.559916452E-1,-1.184434222E0,1.962059698E0
1.112709950E1,-1.445684455E0,-3.149395135E-1,-7.624213725E-1,1.664474929E0
1.113710250E1,-1.392857639E0,-3.607416308E-1,-2.677118450E-1,1.463508305E0
1.114710550E1,-1.307009111E0,-4.735142478E-1,2.146507019E-1,1.406614192E0
1.115710850E1,-1.209968209E0,-6.641814253E-1,6.143546695E-1,1.510824838E0
1.116711150E1,-1.176580680E0,-9.251897299E-1,6.579497552E-1,1.634997252E0
1.117711550E1,-1.214599861E0,-1.267532804E0,3.755385947E-1,1.795249696E0
1.118711850E1,-1.326589390E0,-1.596880150E0,-1.326762468E-1,2.080256861E0
1.119712150E1,-1.528371832E0,-1.799705150E0,-6.698786598E-1,2.454301633E0
1.120712450E1,-1.861414618E0,-1.871170697E0,-1.190125317E0,2.895262065E0
1.121712850E1,-2.164617892E0,-1.880986418E0,-1.618612788E0,3.292960352E0
1.122713150E1,-2.216998712E0,-1.834876737E0,-1.858348630E0,3.425684685E0
1.123713450E1,-2.037452354E0,-1.774599837E0,-1.937746802E0,3.324948021E0
1.124713750E1,-1.607809326E0,-1.631500636E0,-1.858614678E0,2.949795532E0
1.125714150E1,-1.156409541E0,-1.409694112E0,-1.657489171E0,2.464100417E0
1.126714450E1,-8.593541747E-1,-1.094267233E0,-1.442037401E0,2.003841870E0
1.127714750E1,-6.570808589E-1,-6.605947432E-1,-1.225378765E0,1.539380975E0
1.128715050E1,-4.588182580E-1,-2.790083733E-1,-1.145780033E0,1.265374155E0
1.129715450E1,-1.771680030E-1,2.722785205E-2,-1.151851782E0,1.165715396E0
1.130715750E1,1.723815454E-1,3.815442699E-1,-1.352629965E0,1.415944649E0
1.131716050E1,3.639762374E-1,6.268136242E-1,-1.659863141E0,1.811220491E0
1.132716350E1,3.187361837E-1,5.665063190E-1,-1.936410713E0,2.042598496E0
1.133716717E1,2.146007630E-1,5.264119613E-1,-2.156796364E0,2.230455917E0
1.134717017E1,1.485996037E-1,4.825420564E-1,-2.012229220E0,2.074607218E0
1.135717317E1,8.439162098E-2,4.327734804E-1,-1.662738801E0,1.720207881E0
1.136717617E1,6.097385120E-3,2.829146057E-1,-1.473012441E0,1.499947833E0
1.137717917E1,-2.975874625E-2,9.015997231E-2,-1.400638529E0,1.403852803E0
1.138718317E1,2.858378481E-2,2.539738119E-2,-1.230411463E0,1.231005454E0
1.139718617E1,1.297420409E-1,-1.533256888E-2,-9.582908177E-1,9.671553010E-1
1.140718917E1,6.428648159E-2,-7.722710073E-2,-8.621111369E-1,8.679472272E-1
1.141719217E1,-1.418076607E-1,-2.087175322E-1,-1.000471462E0,1.031802097E0
1.142719617E1,-2.145086145E-1,-1.659755552E-1,-1.210818613E0,1.240823736E0
1.143719917E1,-3.476931305E-1,-2.128211081E-2,-8.948590529E-1,9.602687987E-1
1.144720217E1,-4.394690540E-1,1.126097721E-1,-5.262880003E-1,6.948331235E-1
1.145720517E1,-4.112377466E-1,2.611752427E-1,-2.992371082E-2,4.880823907E-1
1.146720917E1,-4.366161244E-1,3.511983901E-1,6.708826268E-1,8.741037971E-1
1.147721217E1,-4.633314680E-1,3.470918906E-1,1.605213894E0,1.706417438E0
1.148721517E1,-4.767986289E-1,2.665885949E-1,2.608912434E0,2.665488792E0
1.149721817E1,-5.510250116E-1,7.692363024E-2,3.359917703E0,3.405670679E0
1.150722217E1,-7.508935869E-1,-1.517755920E-1,3.560949070E0,3.642421624E0
1.151722517E1,-1.072109502E0,-2.418501949E-1,2.964011502E0,3.161214084E0
1.152722817E1,-1.140736225E0,-1.565124214E-1,1.931635877E0,2.248775764E0
1.153723117E1,-1.041982308E0,9.284150541E-2,1.073020205E0,1.498572333E0
1.154723417E1,-7.119724730E-1,5.919545710E-1,8.475813907E-1,1.255272572E0
1.155723817E1,-2.388397560E-2,1.067449563E0,1.233180705E0,1.631181677E0
1.156724117E1,8.721983148E-1,1.300868950E0,2.016113525E0,2.552979372E0
1.157724417E1,1.587352258E0,1.248380542E0,3.031683083E0,3.642697281E0
1.158724717E1,1.917706201E0,1.023660350E0,4.055952712E0,4.601763791E0
1.159725117E1,2.107903116E0,7.906634241E-1,4.890831612E0,5.384109773E0
1.160725417E1,2.221716392E0,4.540935981E-1,5.373611065E0,5.832488371E0
1.161725717E1,2.357690614E0,6.203252614E-2,5.271781220E0,5.775312138E0
1.162726017E1,2.445850985E0,-2.501868626E-1,4.373985695E0,5.017622083E0
1.163726417E1,2.418675173E0,-4.323708996E-1,2.764239040E0,3.698371487E0
1.164726717E1,2.257852623E0,-5.206220484E-1,1.022241815E0,2.532572627E0
1.165727017E1,2.312716024E0,-4.026889712E-1,-5.616279870E-1,2.413760512E0
1.166727317E1,2.405366179E0,-1.871085620E-1,-1.312291778E0,2.746435104E0
1.167727617E1,2.577128139E0,-3.465995550E-2,-1.625238853E0,3.046997225E0
1.168728017E1,2.888958396E0,-2.164931595E-2,-1.502109355E0,3.256206661E0
1.169728317E1,3.058279143E0,-8.752170861E-2,-1.065919347E0,3.239894353E0
1.170728617E1,3.089878666E0,-3.195550132E-1,-5.988607174E-1,3.163558081E0
1.171728917E1,3.082686883E0,-5.687183207E-1,-4.097436368E-1,3.161374510E0
1.172729317E1,2.982441633E0,-8.535508132E-1,-3.664643008E-1,3.123748256E0
1.173729617E1,2.729875246E0,-1.135583659E0,-4.457461131E-1,2.990059983E0
1.174729917E1,2.304082172E0,-1.305372183E0,-7.492715693E-1,2.752126283E0
1.175730217E1,1.715726269E0,-1.378180836E0,-1.096701429E0,2.458831648E0
1.176730517E1,1.081696523E0,-1.391299356E0,-1.349318102E0,2.219558652E0
1.177730917E1,4.346869817E-1,-1.412506915E0,-1.572035038E0,2.157642861E0
1.178731217E1,-5.906067878E-2,-1.469263498E0,-1.757409316E0,2.291442972E0
1.179731517E1,-3.917654952E-1,-1.530508989E0,-1.945699015E0,2.506328516E0
1.180731817E1,-5.620669667E-1,-1.580212661E0,-2.158288574E0,2.733349758E0
1.181732217E1,-6.069655430E-1,-1.592478950E0,-2.348366352E0,2.901589375E0
1.182732517E1,-5.755506460E-1,-1.528462464E0,-2.483393764E0,2.972322431E0
1.183732817E1,-3.720920996E-1,-1.401426734E0,-2.448778832E0,2.845868442E0
1.184733117E1,-2.777994615E-1,-1.243896604E0,-2.461119965E0,2.771563239E0
1.185733517E1,-3.953939849E-1,-1.065721126E0,-2.533479259E0,2.776799431E0
1.186733817E1,-4.829364511E-1,-7.292431015E-1,-2.584053581E0,2.728068186E0
1.187734117E1,-4.306874862E-1,-2.947984868E-1,-2.347768182E0,2.405080725E0
1.188734417E1,-3.675302482E-1,2.206008285E-2,-1.705038144E0,1.744339475E0
1.189734717E1,-4.694964798E-1,1.248778152E-1,-1.154648505E0,1.252690937E0
1.190735117E1,-6.962993038E-1,1.994482335E-1,-9.682269913E-1,1.209163275E0
1.191735417E1,-9.457942946E-1,3.803888601E-1,-8.890820038E-1,1.352660099E0
1.192735717E1,-1.042205598E0,5.732601455E-1,-6.523212254E-1,1.356592306E0
1.193736017E1,-9.148588693E-1,6.888607684E-1,-2.387225193E-1,1.169822358E0
1.194736417E1,-6.061627934E-1,7.262083966E-1,2.792320293E-1,9.862973657E-1
1.195736717E1,-3.613426515E-1,7.597866172E-1,7.283151484E-1,1.112783524E0
1.196737017E1,-2.043169907E-1,8.305350029E-1,9.760833102E-1,1.297795227E0
1.197737317E1,-2.570281050E-1,9.758617008E-1,1.064530048E0,1.466831186E0
1.198737717E1,-4.292479017E-1,1.118546627E0,1.065332286E0,1.603225872E0
1.199738017E1,-5.309915006E-1,1.225765266E0,8.910174322E-1,1.605728659E0
1.200738317E1,-6.836454906E-1,1.365095059E0,6.207006526E-1,1.648067043E0
1.201738617E1,-9.046231721E-1,1.608868988E0,4.632965308E-1,1.903009769E0
1.202739017E1,-9.732183208E-1,1.792235917E0,5.042913598E-1,2.100850603E0
1.203739317E1,-1.063267635E0,1.853576717E0,7.444932246E-1,2.262864307E0
1.204739617E1,-1.039413334E0,1.735816133E0,1.138926512E0,2.321764701E0
1.205739917E1,-9.636481829E-1,1.430399687E0,1.718815938E0,2.434951604E0
1.206740217E1,-8.814967033E-1,1.186457359E0,2.189845412E0,2.641995539E0
1.207740617E1,-7.552153371E-1,8.189376354E-1,2.185906727E0,2.453405241E0
1.208740917E1,-6.563031062E-1,9.282840765E-1,1.835188394E0,2.158787052E0
1.209741217E1,-4.511047938E-1,1.477859783E0,1.156697955E0,1.930159379E0
1.210741517E1,-4.750779395E-1,2.471580634E0,2.477342480E-1,2.528988362E0
1.211741917E1,-6.424380422E-1,3.684645163E0,-5.320527703E-1,3.777885224E0
1.212742217E1,-4.602954474E-1,4.614852973E0,-6.575755334E-1,4.684137642E0
1.213742517E1,7.857488394E-3,4.807552643E0,4.553934342E-1,4.829079346E0
1.214742817E1,4.382767336E-1,4.072743577E0,2.147952451E0,4.625259611E0
1.215743217E1,6.052014381E-1,2.813703561E0,3.444789453E0,4.488849617E0
1.216743517E1,4.736071089E-1,1.522595075E0,4.012402650E0,4.317635288E0
1.217743817E1,5.740189679E-2,3.976223588E-1,3.849691011E0,3.870596775E0
1.218744117E1,-5.350700432E-1,-4.562640846E-1,2.923433579E0,3.006815717E0
1.219744517E1,-1.089491666E0,-1.057218690E0,1.658469749E0,2.248382831E0
1.220744817E1,-1.533413009E0,-1.361552816E0,5.212377602E-1,2.115861605E0
1.221745117E1,-1.865435602E0,-1.398848696E0,-2.644783348E-1,2.346609565E0
1.222745417E1,-1.982462799E0,-1.343302487E0,-6.910180986E-1,2.492413756E0
1.223745817E1,-1.909567023E0,-1.287871467E0,-8.800848931E-1,2.465686223E0
1.224746117E1,-1.767784323E0,-1.304288110E0,-8.697850227E-1,2.362785405E0
1.225746417E1,-1.597708115E0,-1.403056937E0,-6.994030058E-1,2.238393298E0
1.226746717E1,-1.375565961E0,-1.598853292E0,-4.352667332E-1,2.153594830E0
1.227747117E1,-1.115348053E0,-1.875351164E0,-1.104457176E-1,2.184752051E0
1.228747417E1,-8.757416544E-1,-2.155697088E0,9.649543047E-2,2.328790404E0
1.229747717E1,-7.480136139E-1,-2.429725680E0,1.752071393E-1,2.548291347E0
1.230748017E1,-7.272243503E-1,-2.640238307E0,5.640633523E-2,2.739141334E0
1.231748417E1,-8.987263282E-1,-2.760917237E0,-2.113557959E-1,2.911192930E0
1.232748717E1,-9.743431058E-1,-2.909510774E0,-6.613405555E-1,3.138784600E0
1.233748967E1,-9.252980496E-1,-2.992241274E0,-1.253841841E0,3.373692886E0
1.234749267E1,-8.726047694E-1,-2.957849121E0,-1.847144195E0,3.594753425E0
1.235749667E1,-7.927046871E-1,-2.774424305E0,-2.437353957E0,3.777102760E0
1.236749967E1,-7.117339066E-1,-2.461405894E0,-2.931912627E0,3.893738021E0
1.237750267E1,-6.349468088E-1,-2.043926391E0,-3.254676007E0,3.895344459E0
1.238750567E1,-4.953012657E-1,-1.556632302E0,-3.284773965E0,3.668537511E0
1.239750967E1,-2.787941460E-1,-1.088015390E0,-3.119536913E0,3.315571477E0
1.240751267E1,-8.786793686E-2,-6.271735203E-1,-2.931302762E0,2.998933691E0
1.241751567E1,4.459379017E-2,-2.658161777E-1,-2.761227724E0,2.774351346E0
1.242751867E1,1.198765455E-1,-3.476462066E-2,-2.577000085E0,2.580021008E0
1.243752267E1,2.617505721E-1,9.609138787E-2,-2.418139422E0,2.434162111E0
1.244752567E1,4.570351131E-1,1.826395351E-1,-2.204547066E0,2.258819617E0
1.245752867E1,6.227657430E-1,2.803622961E-1,-2.067942660E0,2.177803258E0
1.246753167E1,6.470030366E-1,3.904899251E-1,-1.815793179E0,1.966774054E0
1.247753567E1,5.223576482E-1,5.216610986E-1,-1.422268549E0,1.602446767E0
1.248753867E1,4.434847755E-1,5.145514691E-1,-1.382696348E0,1.540548977E0
1.249754167E1,3.940649493E-1,4.344428605E-1,-1.384878529E0,1.503966862E0
1.250754467E1,3.138744432E-1,4.621610016E-1,-1.299908545E0,1.414875324E0
1.251754867E1,2.902788632E-1,5.603059316E-1,-1.064352878E0,1.237356700E0
1.252755167E1,2.500491607E-1,6.510553032E-1,-7.796794295E-1,1.046086805E0
1.253755467E1,2.078817092E-1,7.313141853E-1,-7.765757275E-1,1.086786595E0
1.254755767E1,-2.753746212E-3,7.505825150E-1,-1.025946611E0,1.271199490E0
1.255756167E1,-2.624437596E-1,7.555327678E-1,-1.365451155E0,1.582454848E0
1.256756467E1,-4.886670879E-1,7.809272254E-1,-1.711504580E0,1.943679701E0
1.257756767E1,-6.225961006E-1,7.478197056E-1,-1.711751917E0,1.968998436E0
1.258757067E1,-6.324373300E-1,8.070479071E-1,-1.185286746E0,1.567229393E0
1.259757467E1,-5.283332833E-1,9.856803453E-1,-1.152614844E-1,1.124271769E0
1.260757767E1,-3.752432372E-1,1.181406534E0,1.668294241E0,2.078397113E0
1.261758067E1,-1.408150593E-1,1.214446226E0,4.288618101E0,4.459479087E0
1.262758367E1,4.675046258E-2,9.804757386E-1,6.445871133E0,6.520181971E0
1.263758667E1,-1.356363997E-1,6.049546856E-1,7.121578882E0,7.148514054E0
1.264759067E1,-5.263557550E-1,3.592330492E-1,6.341409456E0,6.373348621E0
1.265759367E1,-7.884683063E-1,5.392635566E-1,4.744223789E0,4.839436621E0
1.266759667E1,-8.007153726E-1,1.301237032E0,3.373620068E0,3.703468008E0
1.267759967E1,-5.902910382E-2,1.915734959E0,2.823518697E0,3.412591786E0
1.268760367E1,8.237215349E-1,3.150465760E0,2.771603608E0,4.276182671E0
1.269760667E1,1.120479278E0,4.137757013E0,2.641083230E0,5.035059835E0
1.270760967E1,1.202969749E0,3.560199457E0,3.010108611E0,4.814863471E0
1.271761267E1,1.207950335E0,2.952910563E0,3.357154309E0,4.631339963E0
1.272761667E1,8.140460741E-1,1.997111244E0,3.218844854E0,3.874543396E0
1.273761967E1,2.753386608E-1,1.001357900E0,2.834895625E0,3.019132694E0
1.274762267E1,-3.050251208E-2,2.227730691E-1,2.345050396E0,2.355805510E0
1.275762567E1,-1.003536426E-1,-3.504160327E-1,1.781332029E0,1.818242571E0
1.276762967E1,-2.465507716E-2,-6.459202784E-1,1.244163530E0,1.402056977E0
1.277763267E1,2.654410058E-1,-6.650359958E-1,8.837446654E-1,1.137425354E0
1.278763567E1,6.492601349E-1,-5.335783088E-1,6.161661369E-1,1.042067773E0
1.279763867E1,1.005175035E0,-4.515763718E-1,4.260649699E-1,1.181452255E0
1.280764167E1,1.311392915E0,-5.574636000E-1,3.213267195E-1,1.460742244E0
1.281764567E1,1.581933497E0,-8.220115167E-1,3.152292430E-1,1.810410450E0
1.282764867E1,1.786939947E0,-1.165469363E0,1.921880382E-1,2.142057295E0
1.283765167E1,1.841208102E0,-1.514096732E0,1.000815278E-1,2.385907061E0
1.284765467E1,1.751516492E0,-1.889939382E0,9.777714014E-3,2.576776376E0
1.285765867E1,1.573994878E0,-2.316649300E0,-3.653223395E-2,2.801010257E0
1.286766167E1,1.391854696E0,-2.719163439E0,-1.755503708E-1,3.059726660E0
1.287766467E1,1.227009261E0,-3.011088020E0,-5.599989527E-1,3.299363820E0
1.288766767E1,9.480092930E-1,-3.118411909E0,-1.101997837E0,3.440583335E0
1.289767067E1,6.534138507E-1,-3.054862615E0,-1.575168561E0,3.498612761E0
1.290767467E1,4.457460400E-1,-2.905120685E0,-2.019380364E0,3.565993940E0
1.291767767E1,1.797301067E-1,-2.692826995E0,-2.428817022E0,3.630808762E0
1.292768067E1,-1.263214928E-1,-2.435518516E0,-2.843958224E0,3.746439102E0
1.293768367E1,-3.677870140E-1,-2.151370148E0,-3.212205926E0,3.883545765E0
1.294768767E1,-4.541131863E-1,-1.916784534E0,-3.473323281E0,3.993025964E0
1.295769067E1,-4.435093338E-1,-1.658460978E0,-3.768306540E0,4.140933170E0
1.296769367E1,-3.751726321E-1,-1.376549755E0,-4.110457533E0,4.351034918E0
1.297769667E1,-2.280547129E-1,-1.037044626E0,-4.275922626E0,4.405789920E0
1.298769967E1,-7.078631960E-2,-6.320436662E-1,-4.142010863E0,4.190554126E0
1.299770367E1,9.780973837E-2,-1.833692676E-1,-3.708977766E0,3.714795701E0
1.300770667E1,2.554596625E-1,1.298906332E-1,-3.237179968E0,3.249840821E0
1.301770967E1,2.872881769E-1,2.294155061E-1,-2.780138789E0,2.804342642E0
1.302771267E1,2.549054926E-1,1.602675033E-1,-2.379769993E0,2.398742942E0
1.303771667E1,2.358320944E-1,5.121283829E-2,-1.946291923E0,1.961196518E0
1.304771967E1,1.724534661E-1,8.174992204E-3,-1.527608478E0,1.537333630E0
1.305772267E1,1.563112041E-1,-1.765040517E-2,-1.258513767E0,1.268306599E0
1.306772567E1,2.425645785E-1,-3.101947904E-2,-1.068529544E0,1.096154719E0
1.307772867E1,3.041546897E-1,-9.969502687E-3,-8.378720891E-1,8.914253216E-1
1.308773267E1,2.307459670E-1,7.406317234E-2,-7.295699608E-1,7.687661429E-1
1.309773567E1,5.638024203E-2,1.860747743E-1,-6.987282372E-1,7.252749153E-1
1.310773867E1,-8.342061773E-2,3.575969982E-1,-5.078090447E-1,6.266615023E-1
1.311774167E1,-6.397489808E-2,6.223057133E-1,-1.803585362E-1,6.510655804E-1
1.312774567E1,9.298951305E-2,9.870567799E-1,3.769933820E-2,9.921438284E-1
1.313774867E1,3.211594161E-1,1.418118196E0,-1.380901837E-1,1.460572314E0
1.314775167E1,4.007348317E-1,1.817573656E0,-5.742649895E-1,1.947804580E0
1.315775467E1,3.341408561E-1,2.111049503E0,-8.392882848E-1,2.296210997E0
1.316775767E1,4.619649371E-1,2.137598201E0,-5.816669798E-1,2.262979043E0
1.317776167E1,7.831284097E-1,1.902168249E0,2.425770038E-1,2.071322707E0
1.318776467E1,8.706508492E-1,1.574279784E0,1.282347018E0,2.209254085E0
1.319776767E1,7.232831807E-1,1.232346307E0,2.371915428E0,2.769079049E0
1.320777067E1,5.142621781E-1,9.341903490E-1,3.461733515E0,3.622261189E0
1.321777367E1,3.285993402E-1,8.318313307E-1,4.196862423E0,4.291104181E0
1.322777767E1,4.190834675E-2,9.563483727E-1,4.189410147E0,4.297384774E0
1.323778067E1,-9.655269664E-2,1.172935672E0,3.170624036E0,3.382004922E0
1.324778367E1,-3.716039302E-1,1.669517478E0,1.338493736E0,2.171852567E0
1.325778667E1,-3.809121494E-1,2.214173922E0,-1.116397190E-1,2.249471860E0
1.326778967E1,2.656248459E-1,2.608829404E0,1.194416589E-1,2.625035947E0
1.327779367E1,1.062902841E0,2.771718214E0,1.235172266E0,3.215250353E0
1.328779667E1,1.258767974E0,2.532022718E0,2.365926710E0,3.686901823E0
1.329779967E1,8.677138659E-1,1.899292004E0,3.236972392E0,3.852042022E0
1.330780267E1,3.636541289E-1,1.123704455E0,3.830149616E0,4.008117028E0
1.331780667E1,-3.917828176E-2,3.860472107E-1,3.946051955E0,3.965084289E0
1.332780967E1,-4.512101899E-1,-1.851357114E-1,3.492105122E0,3.525998306E0
1.333781238E1,-7.925552908E-1,-4.554741257E-1,3.278129774E0,3.403194879E0
1.334781538E1,-9.993189758E-1,-6.424698365E-1,2.681417323E0,2.932815161E0
1.335781838E1,-1.024671918E0,-8.297000206E-1,1.677757375E0,2.133828595E0
1.336782238E1,-9.730332564E-1,-1.039508643E0,8.731693912E-1,1.670268458E0
1.337782538E1,-9.173309259E-1,-1.200868406E0,3.850122535E-1,1.559427905E0
1.338782838E1,-9.021530890E-1,-1.360980666E0,5.802192092E-3,1.632844829E0
1.339783138E1,-9.144548267E-1,-1.461128267E0,-2.187595403E-1,1.737520987E0
1.340783438E1,-1.113686567E0,-1.509444395E0,-3.395752949E-1,1.906313598E0
1.341783838E1,-1.506249038E0,-1.507818869E0,-3.251806194E-1,2.155932824E0
1.342784137E1,-1.860635622E0,-1.579157531E0,-3.170038730E-1,2.460933742E0
1.343784438E1,-1.997190912E0,-1.759475429E0,-3.294695520E-1,2.681990960E0
1.344784738E1,-1.920877439E0,-1.956901111E0,-2.999399436E-1,2.758477127E0
1.345785038E1,-1.753824095E0,-2.141445961E0,-4.265596443E-1,2.800650441E0
1.346785438E1,-1.593744726E0,-2.269754338E0,-7.118949974E-1,2.863320013E0
1.347785738E1,-1.453855208E0,-2.262849946E0,-1.117984709E0,2.912743492E0
1.348786038E1,-1.394943049E0,-2.122226456E0,-1.577592816E0,2.989734158E0
1.349786337E1,-1.289409723E0,-1.858464990E0,-2.039835094E0,3.045881935E0
1.350786638E1,-1.181522893E0,-1.492198325E0,-2.445504976E0,3.098894444E0
1.351786938E1,-9.764480303E-1,-1.016865593E0,-2.588451272E0,2.947464398E0
1.352787338E1,-6.860452610E-1,-4.860799143E-1,-2.440806153E0,2.581562794E0
1.353787638E1,-3.434883247E-1,3.880446196E-2,-2.108854458E0,2.136997226E0
1.354787938E1,-2.235178582E-2,4.190752083E-1,-1.740831875E0,1.790703562E0
1.355788238E1,2.750783135E-1,6.417132068E-1,-1.455962545E0,1.614710764E0
1.356788537E1,5.056710834E-1,7.107416341E-1,-1.246756185E0,1.521597154E0
1.357788938E1,6.782345503E-1,7.487622768E-1,-1.023546914E0,1.438156924E0
1.358789238E1,7.757723200E-1,7.420324239E-1,-7.635153866E-1,1.317342232E0
1.359789538E1,7.937242223E-1,7.001795161E-1,-4.339458472E-1,1.143922416E0
1.360789838E1,6.874393833E-1,6.438556266E-1,-1.669432694E-1,9.565526796E-1
1.361790138E1,4.128370332E-1,5.503145018E-1,-1.031723660E-1,6.956471836E-1
1.362790538E1,8.186496601E-2,3.837603647E-1,-1.774793673E-1,4.306655500E-1
1.363790838E1,-1.211094309E-1,1.671034831E-1,-2.739098936E-1,3.429543674E-1
1.364791138E1,-1.828795633E-1,-1.339626342E-2,-3.858758873E-1,4.272289725E-1
1.365791438E1,-1.257579674E-1,-1.171051115E-1,-4.029579431E-1,4.380682337E-1
1.366791738E1,6.701026082E-2,-1.059974483E-1,-3.679465699E-1,3.887293562E-1
1.367792138E1,2.240525130E-1,7.765511692E-2,-3.544617212E-1,4.264656581E-1
1.368792438E1,1.935521206E-1,2.926078275E-1,-4.145962411E-1,5.431130704E-1
1.369792738E1,4.836217448E-2,4.934304491E-1,-5.354353845E-1,7.297284145E-1
1.370793038E1,7.703779712E-3,5.640385017E-1,-6.427464098E-1,8.551735069E-1
1.371793338E1,-1.284311682E-2,5.649649930E-1,-6.387743962E-1,8.528675854E-1
1.372793638E1,3.399191111E-2,5.419670168E-1,-6.059995830E-1,8.137070676E-1
1.373794038E1,1.940045489E-1,5.338686231E-1,-4.543760186E-1,7.274001911E-1
1.374794338E1,3.933153728E-1,5.877027681E-1,6.715644121E-2,7.103530909E-1
1.375794638E1,4.651296329E-1,6.531211245E-1,8.298251510E-1,1.153916184E0
1.376794938E1,3.757129879E-1,7.344088241E-1,1.565529426E0,1.769575925E0
1.377795238E1,7.243223771E-2,7.177971768E-1,1.919484193E0,2.050584986E0
1.378795538E1,-2.886617609E-1,6.092781168E-1,1.856063538E0,1.974719548E0
1.379795938E1,-4.499249719E-1,4.332207924E-1,1.399624037E0,1.532664406E0
1.380796238E1,-2.708971158E-1,3.240304720E-1,5.960780275E-1,7.305409017E-1
1.381796538E1,8.056688413E-2,4.706634378E-1,2.079334205E-1,5.208180123E-1
1.382796838E1,4.943198837E-1,8.407661685E-1,5.803022397E-1,1.134896730E0
1.383797138E1,9.314120445E-1,1.205388596E0,1.583141239E0,2.197003925E0
1.384797438E1,1.349289158E0,1.249569573E0,2.896413011E0,3.430920238E0
1.385797838E1,1.506007109E0,1.037787515E0,3.729819582E0,4.154108141E0
1.386798138E1,1.370058614E0,6.061826009E-1,4.112796419E0,4.377169444E0
1.387798438E1,1.049438019E0,1.254341778E-1,3.813824775E0,3.957564062E0
1.388798738E1,7.432240865E-1,-2.361748874E-1,2.935608067E0,3.037425776E0
1.389799038E1,5.951592106E-1,-4.070202962E-1,1.948270036E0,2.077410922E0
1.390799438E1,4.484793209E-1,-3.132134154E-1,9.855441052E-1,1.127179457E0
1.391799738E1,3.678415028E-1,-6.069380611E-2,3.633430570E-1,5.205855226E-1
1.392800038E1,4.728527450E-1,2.153766337E-1,2.077246749E-1,5.595769414E-1
1.393800338E1,7.485763353E-1,3.049492532E-1,6.074175328E-1,1.011096749E0
1.394800638E1,1.143269970E0,6.940001786E-2,1.303335013E0,1.735097906E0
1.395800938E1,1.490522659E0,-3.628065750E-1,1.815505496E0,2.376835420E0
1.396801338E1,1.680783893E0,-8.490534273E-1,2.181476292E0,2.881798923E0
1.397801638E1,1.801610465E0,-1.264212171E0,2.418902484E0,3.270339723E0
1.398801938E1,1.897290794E0,-1.639975591E0,2.342175905E0,3.431474940E0
1.399802238E1,1.858655609E0,-2.028443549E0,1.466128514E0,3.117485641E0
1.400802538E1,1.624202580E0,-2.329079603E0,6.029257017E-1,2.902785769E0
1.401802838E1,1.263856806E0,-2.482579247E0,-2.461139846E-1,2.796624007E0
1.402803238E1,8.327201074E-1,-2.484866678E0,-1.044408610E0,2.821130009E0
1.403803538E1,4.332185266E-1,-2.365813859E0,-1.748759530E0,2.973703650E0
1.404803838E1,1.265970611E-1,-2.160393279E0,-2.328410389E0,3.178808091E0
1.405804138E1,-5.332909182E-2,-1.896450841E0,-2.768125684E0,3.355873894E0
1.406804438E1,-6.175653756E-2,-1.581096176E0,-3.058011340E0,3.443125375E0
1.407804738E1,7.181111723E-2,-1.140016433E0,-3.101063805E0,3.304752793E0
1.408805038E1,2.743883421E-1,-5.923264539E-1,-3.061548321E0,3.130370220E0
1.409805438E1,5.467279659E-1,-2.484540403E-2,-3.092837357E0,3.140887085E0
1.410805738E1,8.085523226E-1,4.958123124E-1,-3.271861559E0,3.406562016E0
1.411806038E1,1.049561542E0,9.033249441E-1,-3.341420036E0,3.616996439E0
1.412806338E1,1.157890860E0,1.162622938E0,-3.314360291E0,3.698295213E0
1.413806638E1,1.179433318E0,1.255779901E0,-3.298096846E0,3.720952689E0
1.414806938E1,1.178424746E0,1.195582816E0,-3.256502092E0,3.663728842E0
1.415807338E1,1.128802862E0,1.068455284E0,-3.054137560E0,3.426886171E0
1.416807638E1,9.940566279E-1,9.550982380E-1,-2.812318940E0,3.132011980E0
1.417807938E1,7.685566366E-1,8.319427201E-1,-2.614324032E0,2.849122345E0
1.418808238E1,6.005846593E-1,7.014524549E-1,-2.559711623E0,2.721187438E0
1.419808538E1,4.315924890E-1,5.597764662E-1,-2.533450608E0,2.630207929E0
1.420808838E1,2.673142709E-1,5.135214821E-1,-2.424699413E0,2.492855486E0
1.421809238E1,9.621130147E-2,5.262973559E-1,-2.294365561E0,2.355919958E0
1.422809538E1,-5.460675869E-3,5.885260561E-1,-2.049064924E0,2.131914586E0
1.423809838E1,-3.903242571E-2,7.583674979E-1,-1.594820468E0,1.766379664E0
1.424810138E1,1.260966217E-2,1.025829082E0,-9.924625307E-1,1.427398397E0
1.425810438E1,1.484800281E-1,1.336972291E0,-4.371349186E-1,1.414435634E0
1.426810738E1,1.428922461E-1,1.633403320E0,-1.790663016E-1,1.649390597E0
1.427811038E1,-7.667218169E-2,1.892350774E0,-1.019818729E-1,1.896647141E0
1.428811438E1,-1.890000997E-1,2.005636484E0,4.419734895E-2,2.015006737E0
1.429811738E1,-1.374453455E-1,2.013719967E0,3.281907660E-1,2.044912836E0
1.430812038E1,-7.505104115E-2,1.972655849E0,7.134450942E-1,2.099049227E0
1.431812338E1,7.430612415E-2,1.827225071E0,1.201283559E0,2.188002524E0
1.432812638E1,2.254717602E-1,1.510280547E0,1.893175816E0,2.432262222E0
1.433813050E1,1.760707182E-1,1.097634060E0,2.819143810E0,3.030408100E0
1.434813450E1,-1.486217866E-2,7.513485003E-1,3.817328426E0,3.890596582E0
1.435813750E1,-4.147417637E-1,6.188897699E-1,4.612880123E0,4.672654310E0
1.436814050E1,-7.616699322E-1,7.206819007E-1,4.835015261E0,4.947413067E0
1.437814350E1,-7.692302359E-1,1.019295111E0,4.058051278E0,4.254228232E0
1.438814650E1,-4.138175747E-1,1.435282405E0,2.581967295E0,2.982924015E0
1.439814950E1,1.277881207E-1,1.917432698E0,1.571419326E0,2.482385275E0
1.440815250E1,6.409893946E-1,2.258450501E0,1.751845690E0,2.929236998E0
1.441815650E1,9.871716046E-1,2.181178376E0,2.966406521E0,3.812035485E0
1.442815950E1,1.089393140E0,1.652831571E0,4.341480439E0,4.771486353E0
1.443816250E1,8.691954772E-1,8.301031861E-1,5.128824399E0,5.267771046E0
1.444816550E1,3.872330991E-1,-1.372806367E-1,5.079292635E0,5.095881584E0
1.445816850E1,-1.752919970E-1,-1.138617487E0,4.187899227E0,4.343463710E0
1.446817150E1,-7.275143722E-1,-1.951000978E0,2.985990016E0,3.640304706E0
1.447817450E1,-1.177902297E0,-2.408423981E0,2.065200900E0,3.384230290E0
1.448817750E1,-1.616226832E0,-2.590460083E0,3.746673596E-1,3.076206795E0
1.449818150E1,-2.008804359E0,-2.433330781E0,-1.042941543E0,3.323269580E0
1.450818450E1,-2.227070102E0,-1.995059748E0,-2.003183577E0,3.599006680E0
1.451818750E1,-2.179294111E0,-1.446695585E0,-2.576307775E0,3.671459204E0
1.452819050E1,-1.780566775E0,-8.963185179E-1,-2.262548522E0,3.015448679E0
1.453819350E1,-1.256372516E0,-5.556451160E-1,-1.745504969E0,2.221261127E0
1.454819650E1,-9.636940835E-1,-5.183922127E-1,-1.253605029E0,1.664019934E0
1.455819950E1,-8.744050540E-1,-6.950211024E-1,-5.779849881E-1,1.257658609E0
1.456820350E1,-9.018836054E-1,-9.861077768E-1,-4.177309334E-2,1.336991988E0
1.457820650E1,-8.913786440E-1,-1.255074727E0,3.117945886E-1,1.570663656E0
1.458820950E1,-8.478662232E-1,-1.492756442E0,5.610309863E-1,1.806088230E0
1.459821250E1,-8.608626833E-1,-1.642857391E0,8.109509236E-1,2.024279222E0
1.460821550E1,-1.016693319E0,-1.714830476E0,7.979262507E-1,2.147322791E0
1.461821850E1,-1.281409855E0,-1.717918391E0,4.037151575E-1,2.180880726E0
1.462822150E1,-1.530020308E0,-1.623273604E0,-2.359298891E-1,2.243132241E0
1.463822450E1,-1.605875506E0,-1.489836927E0,-8.918535841E-1,2.365132771E0
1.464822850E1,-1.511338747E0,-1.344185124E0,-1.641975923E0,2.605199299E0
1.465823150E1,-1.384256093E0,-1.126037495E0,-2.251600195E0,2.872947756E0
1.466823450E1,-1.158544359E0,-8.365971038E-1,-2.636946909E0,2.999268036E0
1.467823750E1,-9.109827501E-1,-4.666338292E-1,-2.830008522E0,3.009416045E0
1.468824050E1,-6.854019941E-1,-9.986488849E-2,-2.996434897E0,3.075446469E0
1.469824350E1,-4.812803004E-1,1.896190640E-1,-3.176936105E0,3.218774477E0
1.470824650E1,-2.865301584E-1,4.413627478E-1,-3.334938397E0,3.376198265E0
1.471824950E1,-1.143183285E-1,7.566259047E-1,-3.144902719E0,3.236659474E0
1.472825350E1,-3.549479172E-3,1.081206600E0,-2.681462932E0,2.891239140E0
1.473825650E1,1.974290438E-2,1.310407221E0,-2.084006131E0,2.461836392E0
1.474825950E1,3.474671356E-2,1.264815603E0,-1.489720860E0,1.954541911E0
1.475826250E1,8.743787415E-2,9.240892839E-1,-1.063443051E0,1.411558539E0
1.476826550E1,-6.178752780E-2,5.504738384E-1,-7.477355057E-1,9.305630188E-1
1.477826850E1,-2.974732225E-1,2.260899022E-1,-3.003182584E-1,4.793725256E-1
1.478827150E1,-3.466187046E-1,-4.406461716E-3,3.339584595E-1,4.813441554E-1
1.479827450E1,-2.649570756E-1,-4.014698267E-3,1.030275305E0,1.063807113E0
1.480827850E1,-1.407329059E-1,1.179710841E-1,1.392417344E0,1.404474630E0
1.481828150E1,5.810180850E-2,2.129529628E-1,1.226852263E0,1.246551748E0
1.482828450E1,1.089950234E-1,3.183940485E-1,7.217498946E-1,7.963526829E-1
1.483828750E1,3.700556606E-4,4.860360602E-1,2.251417762E-1,5.356491465E-1
1.484829050E1,-8.315040328E-2,5.807919440E-1,-1.583566332E-1,6.077088900E-1
1.485829350E1,-3.242726929E-2,5.785153306E-1,-2.376121330E-1,6.262515798E-1
1.486829650E1,1.455951581E-1,5.182869628E-1,1.077092206E-1,5.490178523E-1
1.487829950E1,2.171018547E-1,4.495658067E-1,8.829108524E-1,1.014285070E0
1.488830350E1,2.802434514E-1,4.671860987E-1,2.237612486E0,2.302978263E0
1.489830650E1,2.373166294E-1,3.380529723E-1,3.843970680E0,3.866097461E0
1.490830950E1,1.826352958E-1,8.504775167E-4,4.876374956E0,4.879793959E0
1.491831250E1,-4.017833836E-2,-2.979676777E-1,4.988982974E0,4.998034628E0
1.492831550E1,-2.146449278E-1,-3.594660607E-1,4.444396112E0,4.464072703E0
1.493831850E1,-2.260278486E-1,-6.804083258E-2,3.178290905E0,3.187044277E0
1.494832150E1,-2.352159441E-2,4.669025087E-1,1.889849920E0,1.946813791E0
1.495832450E1,5.548743799E-1,1.145886745E0,1.629483347E0,2.067887325E0
1.496832750E1,1.384316319E0,1.577976394E0,1.875480387E0,2.814918800E0
1.497833150E1,2.015307486E0,1.629261445E0,2.505284570E0,3.604498286E0
1.498833450E1,2.249549577E0,1.417274442E0,3.460617866E0,4.364059596E0
1.499833750E1,2.010444503E0,9.641482660E-1,4.103982911E0,4.670561499E0
1.500834050E1,1.465049556E0,3.487484068E-1,3.978779991E0,4.254255031E0
1.501834350E1,8.469444828E-1,-2.662374696E-1,3.204982275E0,3.325674177E0
1.502834650E1,2.132456160E-1,-8.306525320E-1,2.202167834E0,2.363260563E0
1.503834950E1,-2.688675472E-1,-1.253037118E0,1.105730115E0,1.692640205E0
1.504835250E1,-4.195615505E-1,-1.558487039E0,-3.713917494E-2,1.614401767E0
1.505835550E1,-2.497119226E-1,-1.701702746E0,-9.673352909E-1,1.973293147E0
1.506835950E1,2.442298655E-1,-1.671641333E0,-1.406600935E0,2.198308250E0
1.507836250E1,8.980203500E-1,-1.572131078E0,-1.498610381E0,2.350291419E0
1.508836550E1,1.430855039E0,-1.497224299E0,-1.532794374E0,2.576525827E0
1.509836850E1,1.722790437E0,-1.416310236E0,-1.546147660E0,2.713763837E0
1.510837150E1,1.849489952E0,-1.283371888E0,-1.333719485E0,2.616574889E0
1.511837450E1,1.944011801E0,-1.066908842E0,-1.050608413E0,2.453824443E0
1.512837750E1,1.983324094E0,-8.920523894E-1,-9.323350275E-1,2.366131976E0
1.513838050E1,1.934333490E0,-8.364251956E-1,-9.968742549E-1,2.331311098E0
1.514838350E1,1.842064719E0,-8.550532553E-1,-1.109663537E0,2.314232413E0
1.515838750E1,1.691754732E0,-8.031041063E-1,-9.978179955E-1,2.121945105E0
1.516839050E1,1.387816462E0,-6.590545866E-1,-7.829948008E-1,1.724374768E0
1.517839350E1,9.633485131E-1,-5.831865250E-1,-8.823986363E-1,1.430655176E0
1.518839650E1,4.282189380E-1,-5.578188184E-1,-1.219493542E0,1.407727883E0
1.519839950E1,-8.473149039E-2,-5.598527724E-1,-1.583329520E0,1.681531124E0
1.520840250E1,-4.201165974E-1,-5.924074379E-1,-1.910057897E0,2.043469035E0
1.521840550E1,-5.641865824E-1,-6.325763476E-1,-2.251240007E0,2.405523000E0
1.522840850E1,-5.054470620E-1,-6.116130562E-1,-2.501704320E0,2.624513625E0
1.523841150E1,-3.510089403E-1,-4.541979709E-1,-2.587081854E0,2.649999169E0
1.524841450E1,-8.391061440E-2,-1.700452173E-1,-2.479467359E0,2.486707612E0
1.525841850E1,2.042425118E-1,1.932475537E-1,-2.296413256E0,2.313562937E0
1.526842150E1,4.091992611E-1,5.668580291E-1,-2.197311721E0,2.305851440E0
1.527842450E1,5.102847558E-1,9.340791057E-1,-2.233215380E0,2.473892730E0
1.528842750E1,4.691851155E-1,1.238417033E0,-2.378729188E0,2.722528966E0
1.529843050E1,4.105707255E-1,1.417520464E0,-2.555204004E0,2.950762628E0
1.530843350E1,3.091113013E-1,1.461203989E0,-2.683316499E0,3.070969607E0
1.531843650E1,1.934333490E-1,1.398979089E0,-2.671823797E0,3.022118686E0
1.532843950E1,1.493671238E-1,1.279692966E0,-2.474019508E0,2.789390104E0
1.533844179E1,8.508488148E-2,1.100781031E0,-2.151157309E0,2.417940464E0
1.534844479E1,-3.740010694E-2,9.724690001E-1,-1.826718702E0,2.069781616E0
1.535844879E1,-4.817162834E-2,9.138899857E-1,-1.495250571E0,1.753080056E0
1.536845179E1,-1.891289212E-2,9.233110195E-1,-1.031853468E0,1.384768037E0
1.537845479E1,-9.255908489E-2,9.925307970E-1,-6.273495215E-1,1.177816620E0
1.538845779E1,-1.847730379E-1,1.030438150E0,-2.596748471E-1,1.078598573E0
1.539846079E1,-2.731056091E-1,1.055892541E0,1.687898201E-1,1.103623911E0
1.540846379E1,-3.875490680E-1,1.138594098E0,4.376775402E-1,1.279903289E0
1.541846679E1,-5.011535977E-1,1.244066174E0,5.514754665E-1,1.450165771E0
1.542846979E1,-5.680886487E-1,1.344442694E0,5.916277117E-1,1.574888637E0
1.543847279E1,-5.563962639E-1,1.503054265E0,8.460038120E-1,1.812311060E0
1.544847579E1,-3.551356128E-1,1.676833222E0,1.329881957E0,2.169441628E0
1.545847879E1,6.092608675E-2,1.658932264E0,1.918936894E0,2.537338576E0
1.546848179E1,4.650577853E-1,1.452425564E0,2.426263543E0,2.865758808E0
1.547848579E1,5.857077713E-1,1.034737608E0,3.043126084E0,3.267162664E0
1.548848879E1,3.841929855E-1,5.095702261E-1,3.945920393E0,3.997193242E0
1.549849179E1,-5.273749977E-3,9.018657714E-2,4.772544193E0,4.773399157E0
1.550849479E1,-4.301578016E-1,-1.446206465E-1,5.361089838E0,5.380263480E0
1.551849779E1,-6.482031776E-1,-1.385053360E-1,5.484056198E0,5.523968091E0
1.552850079E1,-9.524411170E-1,1.131865999E-1,4.093413484E0,4.204282250E0
1.553850379E1,-1.017032312E0,6.224428305E-1,2.131143460E0,2.442040591E0
1.554850679E1,-3.391705944E-1,1.394878437E0,6.608914894E-1,1.580348097E0
1.555850979E1,8.093161882E-1,2.495679933E0,3.510978180E-1,2.647013544E0
1.556851279E1,1.466421459E0,3.906373627E0,2.582545584E-1,4.180531333E0
1.557851579E1,1.600666368E0,5.006004803E0,3.768799460E-1,5.269179766E0
1.558851879E1,1.475505109E0,5.289992373E0,9.368601876E-1,5.571251353E0
1.559852279E1,1.089023231E0,4.507513297E0,1.664932677E0,4.927032427E0
1.560852579E1,5.521908002E-1,2.794236718E0,2.385453486E0,3.715247213E0
1.561852879E1,-1.285710628E-1,8.612986663E-1,2.759752471E0,2.893890049E0
1.562853179E1,-7.833804978E-1,-8.177062118E-1,2.617882648E0,2.852303983E0
1.563853479E1,-1.500187960E0,-2.021575409E0,2.246461077E0,3.374006287E0
1.564853779E1,-2.151850204E0,-2.761991078E0,2.004293963E0,4.034383262E0
1.565854079E1,-2.370819952E0,-3.279482527E0,8.119689238E-1,4.127358286E0
1.566854379E1,-2.455094117E0,-3.569724863E0,-2.536411053E-1,4.339902826E0
1.567854679E1,-2.438260860E0,-3.502621047E0,-8.835411823E-1,4.358223864E0
1.568854979E1,-2.343326929E0,-3.156736607E0,-1.302222873E0,4.141491460E0
1.569855279E1,-2.125664619E0,-2.721844680E0,-1.560031874E0,3.789536644E0
1.570855579E1,-1.832372959E0,-2.314460687E0,-1.695421813E0,3.404228849E0
1.571855979E1,-1.544788182E0,-1.979918968E0,-1.706151454E0,3.036017528E0
1.572856279E1,-1.341084784E0,-1.726979236E0,-1.573442463E0,2.693823837E0
1.573856579E1,-1.164183268E0,-1.561567937E0,-1.340462494E0,2.364456978E0
1.574856879E1,-1.009901559E0,-1.452970232E0,-9.729819471E-1,2.019335912E0
1.575857179E1,-8.279112111E-1,-1.395265523E0,-5.985905761E-1,1.729310131E0
1.576857479E1,-6.001752446E-1,-1.406624616E0,-4.180303109E-1,1.585418707E0
1.577857779E1,-4.334922859E-1,-1.390517876E0,-3.999846339E-1,1.510444713E0
1.578858079E1,-3.695693550E-1,-1.359563301E0,-5.857413197E-1,1.525806925E0
1.579858379E1,-4.154561473E-1,-1.311185485E0,-1.130656210E0,1.780504044E0
1.580858679E1,-5.251290091E-1,-1.238015767E0,-1.836592310E0,2.276294100E0
1.581858979E1,-6.503009393E-1,-1.082566662E0,-2.454183413E0,2.760046760E0
1.582859279E1,-7.549921927E-1,-8.807172695E-1,-2.843572308E0,3.071087688E0
1.583859579E1,-8.475663342E-1,-6.362372893E-1,-3.000081806E0,3.181769542E0
1.584859879E1,-7.585032995E-1,-4.172640333E-1,-2.884099360E0,3.011223280E0
1.585860279E1,-5.787775782E-1,-2.366186911E-1,-2.657260137E0,2.729835769E0
1.586860579E1,-3.417174223E-1,-2.348066390E-2,-2.477847680E0,2.501409855E0
1.587860879E1,-6.463373311E-2,2.095484215E-1,-2.333955304E0,2.344234507E0
1.588861179E1,9.435238939E-2,5.039384803E-1,-2.203113914E0,2.261983042E0
1.589861479E1,1.551628475E-1,8.393017334E-1,-1.963143014E0,2.140661907E0
1.590861779E1,2.667581642E-1,1.059611955E0,-1.492845027E0,1.850006402E0
1.591862079E1,3.760457676E-1,1.101275998E0,-9.531563777E-1,1.504236126E0
1.592862379E1,4.234847398E-1,1.069713020E0,-4.864947742E-1,1.249120665E0
1.593862679E1,4.708434590E-1,9.211282539E-1,-1.183336115E-1,1.041236605E0
1.594862979E1,4.167730133E-1,7.057016265E-1,4.264783680E-2,8.206907873E-1
1.595863279E1,3.164649059E-1,4.730862316E-1,-2.096577644E-2,5.695613953E-1
1.596863579E1,2.264675958E-1,3.437238944E-1,-8.072607458E-2,4.194644045E-1
1.597863879E1,-4.713833397E-2,3.966084516E-1,-7.900991678E-2,4.071398450E-1
1.598864179E1,-3.388377417E-1,4.634125981E-1,-1.959828812E-1,6.066065784E-1
1.599864479E1,-5.596400433E-1,4.923446211E-1,-3.330240744E-1,8.163977206E-1
1.600864879E1,-5.832899476E-1,5.048579550E-1,-5.039434505E-1,9.214487066E-1
1.601865179E1,-4.580443425E-1,5.204226583E-1,-4.893523085E-1,8.485929795E-1
1.602865479E1,-2.026209693E-1,4.936924043E-1,-3.257109618E-1,6.252000303E-1
1.603865779E1,3.714321317E-2,4.191287103E-1,-1.698440731E-2,4.211139563E-1
1.604866079E1,5.356294390E-2,4.025284651E-1,4.663838607E-1,6.183947442E-1
1.605866379E1,-1.583305034E-1,3.623782665E-1,1.221879206E0,1.284280091E0
1.606866679E1,-4.624899805E-1,2.323958319E-1,2.204268739E0,2.264222930E0
1.607866979E1,-6.802587102E-1,1.142548862E-1,2.937950462E0,3.017840123E0
1.608867279E1,-6.687155025E-1,-2.502228230E-2,2.776580758E0,2.856082500E0
1.609867579E1,-4.617592978E-1,-9.408345401E-2,1.717618428E0,1.781091354E0
1.610867879E1,4.211527423E-2,2.466969520E-2,6.700903291E-1,6.718655664E-1
1.611868179E1,7.043332319E-1,3.831639487E-1,3.904595196E-1,8.918287670E-1
1.612868479E1,1.263295473E0,8.494896296E-1,8.564001614E-1,1.746702413E0
1.613868779E1,1.765141528E0,1.032226813E0,1.817781817E0,2.735972869E0
1.614869079E1,2.053293484E0,7.530231428E-1,2.845500135E0,3.588861798E0
1.615869479E1,1.832702304E0,2.334831217E-1,3.663136180E0,4.102667276E0
1.616869779E1,1.151331819E0,-3.458306462E-1,4.008583249E0,4.184961583E0
1.617870079E1,5.412817596E-1,-9.897134623E-1,3.963557349E0,4.120959299E0
1.618870379E1,1.838608357E-1,-1.596193394E0,3.574279552E0,3.918815188E0
1.619870679E1,-1.258142103E-1,-2.007863688E0,2.734683704E0,3.394972867E0
1.620870979E1,-1.842257385E-1,-2.122127638E0,1.676078639E0,2.710462034E0
1.621871279E1,1.559131366E-1,-1.989168094E0,6.742231411E-1,2.106104331E0
1.622871579E1,7.404405925E-1,-1.679511247E0,-8.603008389E-2,1.837501422E0
1.623871879E1,1.199837250E0,-1.230036657E0,-2.009430742E-1,1.730022463E0
1.624872179E1,1.393921248E0,-7.292305300E-1,4.238330877E-1,1.629241571E0
1.625872479E1,1.474361978E0,-3.607968870E-1,1.416980912E0,2.076475991E0
1.626872779E1,1.519972599E0,-3.704123408E-1,2.156386474E0,2.664117984E0
1.627873079E1,1.458491319E0,-6.417351338E-1,2.555030926E0,3.011179826E0
1.628873379E1,1.333796960E0,-1.012902935E0,2.509339029E0,3.016913829E0
1.629873679E1,1.154784088E0,-1.337410540E0,1.981165887E0,2.654658455E0
1.630873979E1,9.077075784E-1,-1.532423368E0,1.012474042E0,2.048745497E0
1.631874279E1,5.627699482E-1,-1.546261681E0,-6.058007777E-2,1.646604125E0
1.632874579E1,2.069214868E-1,-1.415272063E0,-9.802886277E-1,1.734006144E0
1.633874888E1,-5.473828906E-2,-1.226771279E0,-1.768892663E0,2.153356752E0
1.634875287E1,-2.262242055E-1,-9.893278384E-1,-2.363225881E0,2.571922146E0
1.635875588E1,-2.744572661E-1,-6.963916898E-1,-2.812881442E0,2.910771407E0
1.636875888E1,-2.509223876E-1,-3.912357375E-1,-3.128676111E0,3.163011485E0
1.637876188E1,-1.659555467E-1,-7.205757737E-2,-3.357724997E0,3.362595826E0
