"Time (s)","Linear Acceleration x (m/s^2)","Linear Acceleration y (m/s^2)","Linear Acceleration z (m/s^2)","Absolute acceleration (m/s^2)"
6.369958282E-3,6.940089494E-2,7.734538990E-1,-1.749971073E0,1.914535498E0
1.637095830E-2,4.115618286E-1,2.610278928E-1,-2.203822596E0,2.257067286E0
2.637095831E-2,-2.089321542E0,-9.614635170E-2,-1.720864803E0,2.708483763E0
3.637195833E-2,-1.788642803E0,6.295878357E-1,-1.124735320E0,2.204688971E0
4.637295834E-2,-4.147658104E-1,1.744065970E0,1.141229146E0,2.125135465E0
5.637295835E-2,6.014149274E-1,1.711261336E0,1.434320245E0,2.312442397E0
6.637395825E-2,1.948972871E0,7.613022155E-1,-1.144448622E0,2.384919069E0
7.637395826E-2,3.333798775E0,1.422725509E0,-3.796076721E0,5.248672272E0
8.637495828E-2,3.799524239E0,2.078994482E0,-5.807130066E0,7.244402122E0
9.637495829E-2,4.578389152E0,1.726180214E0,-6.658613888E0,8.263079587E0
1.063759583E-1,2.606159272E0,-2.533513758E-1,-5.662581047E0,6.238675917E0
1.163759583E-1,1.546976795E0,-1.091742990E0,-4.532924711E0,4.912478641E0
1.263769583E-1,1.862913259E0,-1.445579351E0,1.367321679E0,2.725750180E0
1.363779583E-1,2.380376203E0,-9.060284042E-1,5.487707199E0,6.049959392E0
1.463779582E-1,1.815424366E0,-6.587435147E-1,5.934537386E0,6.240868741E0
1.563789583E-1,7.095916329E-1,-2.729281461E-1,2.654540597E0,2.761267071E0
1.663789583E-1,3.524264516E-1,2.731276824E-1,-2.067879510E-1,4.914920054E-1
1.763799583E-1,6.811529687E-1,3.001222305E-1,-3.012908258E0,3.103491403E0
1.863799583E-1,3.142562298E-1,-2.430583759E-1,-5.374514460E0,5.389178048E0
1.963809583E-1,-1.073447491E0,-8.331270736E-1,-5.722471154E0,5.881587060E0
2.063809583E-1,-1.107385900E0,-8.050393885E-1,-4.329029378E0,4.540362023E0
2.163819583E-1,-8.679034618E-1,-6.885321549E-1,-3.385051959E0,3.561728473E0
2.263829582E-1,-1.208351892E0,-1.271826853E0,-1.070040464E0,2.054907403E0
2.363829582E-1,-2.458570579E0,-2.781670467E0,9.625218630E-1,3.835193374E0
2.463839583E-1,-2.257681884E0,-4.916390376E0,8.591979956E0,1.015333154E1
2.563839583E-1,-2.311706064E0,-1.650744846E0,5.281261311E0,5.996721146E0
2.663849583E-1,-1.805833909E0,1.455718277E0,-3.459371240E0,4.165021150E0
2.763849583E-1,4.946953845E-1,2.909152047E0,-4.664478877E0,5.519533708E0
2.863859583E-1,2.355215926E0,4.511218092E0,-8.098234634E0,9.564493449E0
2.963859583E-1,2.046448734E0,4.134163899E0,-9.711408927E0,1.075131280E1
3.063869583E-1,1.112829073E0,3.055260518E0,-5.743040489E0,6.599660555E0
3.163879582E-1,6.099786133E-2,4.755456436E-1,2.953358459E0,2.992021154E0
3.263879583E-1,3.902424417E-1,-3.051658633E0,-4.258842909E-1,3.105847228E0
3.363889583E-1,1.115578726E0,-4.127349847E0,-4.190777226E0,5.986831082E0
3.463889583E-1,2.715301646E0,-3.564287830E0,-1.691736898E0,4.789465993E0
3.563899583E-1,4.373050141E0,-3.300794459E0,-2.382015324E-1,5.484118121E0
3.663899583E-1,5.007576535E0,-1.630141743E0,2.264934186E0,5.732635670E0
3.763909583E-1,5.553110061E0,-1.174215043E0,-3.416192476E0,6.624664772E0
3.863909583E-1,6.119429269E0,-5.128244574E-1,-5.712946039E0,8.387380756E0
3.963919583E-1,5.841399427E0,-3.002140318E0,-2.523955314E0,7.035989211E0
4.063919582E-1,3.467232821E0,-4.353552308E0,-6.390772820E0,8.474496939E0
4.163929583E-1,3.959043591E0,-4.440390477E0,-7.736948628E0,9.759685846E0
4.263939583E-1,7.547024632E-1,-5.145454465E0,-3.812677551E0,6.448394185E0
4.363939583E-1,-4.048378229E0,-7.091049399E0,-1.943909183E0,8.393517188E0
4.463949583E-1,-4.651047238E0,-9.408764062E0,-1.593586121E0,1.061586541E1
4.563949583E-1,-5.094082582E0,-1.368633443E1,-1.252908626E0,1.465725785E1
4.663959583E-1,-5.238983603E0,-1.596748880E1,-8.037149942E-1,1.682419702E1
4.763959583E-1,-3.693888441E0,-1.596684911E1,6.204609168E-1,1.640030652E1
4.863969582E-1,-1.755135918E0,-1.490964095E1,2.354631643E0,1.519612402E1
4.963969582E-1,-1.450127023E-1,-1.345920870E1,2.882272105E0,1.376513058E1
5.063979583E-1,1.229112797E0,-1.165043218E1,2.428008353E0,1.196405085E1
5.163989583E-1,4.072857597E0,-9.533781041E0,3.135644823E0,1.083113191E1
5.263989583E-1,8.835418839E0,-7.444995981E0,4.560872063E0,1.242151944E1
5.363999583E-1,1.292098536E1,-5.039764287E0,6.815330962E0,1.545314929E1
5.463999583E-1,1.691162117E1,-4.053424376E-1,7.573775058E0,1.853454347E1
5.564009583E-1,2.007652253E1,4.461464134E0,5.898681090E0,2.139546349E1
5.664009583E-1,2.205607166E1,8.554147301E0,3.785714870E0,2.395778308E1
5.764014167E-1,2.370791476E1,1.047843849E1,2.000368727E0,2.599739161E1
5.864014166E-1,2.605240032E1,1.279985210E1,-1.897831369E0,2.908892470E1
5.964024166E-1,2.907281465E1,1.597761617E1,-4.606650499E0,3.349229760E1
6.064034166E-1,2.890514925E1,1.698797177E1,-6.541812247E0,3.415983234E1
6.164034166E-1,2.739929475E1,1.629768223E1,-8.912969291E0,3.310251985E1
6.264044166E-1,2.491567353E1,1.504308961E1,-1.122218912E1,3.119331436E1
6.364044166E-1,1.939836012E1,1.255743590E1,-1.228656480E1,2.617145862E1
6.464054167E-1,1.329728058E1,1.014089627E1,-1.243860410E1,2.084164869E1
6.564054167E-1,9.588262473E0,8.589871450E0,-1.326702826E1,1.848606793E1
6.664064167E-1,7.925661081E0,8.107880201E0,-1.266756937E1,1.700062172E1
6.764064166E-1,5.947102468E0,6.531400695E0,-1.262254464E1,1.540635765E1
6.864074166E-1,3.710665857E0,3.449112884E0,-1.337902115E1,1.430606961E1
6.964074166E-1,-3.575104594E-1,-3.100158656E-1,-1.329941950E1,1.330783538E1
7.064084166E-1,-7.925509053E-1,-1.979132225E0,-1.389309900E1,1.405572129E1
7.164094166E-1,3.551600541E0,3.963026422E-1,-1.110194464E1,1.166293689E1
7.264094166E-1,1.009998214E1,6.015205573E0,8.567831540E-1,1.178670499E1
7.364104167E-1,9.452330496E0,4.525468926E0,2.409117168E-1,1.048257885E1
7.464104167E-1,1.921073467E0,1.659847938E0,8.068072942E-1,2.663936270E0
7.564114166E-1,6.471990645E-2,1.447659498E0,4.156096221E0,4.401481851E0
7.664114166E-1,-1.079473193E0,-6.283903259E-1,6.475620596E0,6.594982857E0
7.764124166E-1,-4.645370176E0,-3.514785887E0,9.460454618E0,1.111005785E1
7.864124166E-1,-7.091741125E0,-6.556475310E0,7.934614922E0,1.249953098E1
7.964134166E-1,-6.782366699E0,-7.413442651E0,3.338574781E0,1.058799847E1
8.064134166E-1,-5.282835966E0,-5.146077778E0,1.616812431E0,7.550136076E0
8.164144167E-1,-4.131209301E0,-3.353990380E0,-6.397122896E-1,5.359605729E0
8.264154167E-1,-3.008311762E0,-2.150724615E0,-3.002392625E0,4.763393486E0
8.364154167E-1,-2.080698946E0,-2.214632344E0,-2.271188952E0,3.793705810E0
8.464164166E-1,-5.871920139E-1,-2.530056884E0,-9.071398138E-1,2.751160653E0
8.564164166E-1,9.409690261E-1,-1.864160762E0,-8.262332795E-1,2.245702449E0
8.664174166E-1,2.184553097E0,-1.065894789E0,-1.800921371E0,3.025181270E0
8.764174166E-1,3.184391305E0,-4.211907309E-1,-3.010602701E0,4.402440032E0
8.864184166E-1,3.775016804E0,-1.055379741E0,-3.837516523E0,5.485536558E0
8.964184166E-1,3.221696541E0,-2.260248227E0,-3.807560068E0,5.475907625E0
9.064194167E-1,1.964622359E0,-2.794723499E0,-7.190332782E-1,3.491021241E0
9.164194167E-1,7.815558010E-1,-2.796294646E0,-4.517289841E-1,2.938392807E0
9.264204167E-1,5.630985618E-2,-3.247022586E0,3.335947627E-1,3.264599814E0
9.364204166E-1,1.519423546E0,-5.015446887E0,3.166250319E0,6.122785026E0
9.464214166E-1,2.356577597E0,-6.593905091E0,4.688381710E0,8.426978425E0
9.564224166E-1,2.171819615E-1,-3.488633046E0,5.007530342E0,6.106806748E0
9.664224166E-1,6.112737715E-2,-2.530060977E-1,3.542862462E0,3.552410881E0
9.764234166E-1,4.984347886E-1,6.467920983E-1,-6.647834692E-1,1.052955041E0
9.864234166E-1,1.810522499E0,1.415565301E0,-3.048368697E0,3.817639134E0
9.964244167E-1,2.671706268E0,1.444220751E0,-5.877362435E-1,3.093415887E0
1.006424417E0,5.396866027E-1,1.749664094E0,1.336452473E0,2.266868166E0
1.016425417E0,-5.158682621E-1,4.095509126E0,1.352644583E0,4.343841898E0
1.026425417E0,-5.440857553E-1,4.589483074E0,1.017895726E0,4.732387971E0
1.036426417E0,-7.505863157E-1,3.637666293E0,2.580806623E0,4.522892736E0
1.046427417E0,-1.337367563E0,2.299668986E0,3.421571914E0,4.334072427E0
1.056427417E0,-2.108620424E0,2.322782444E0,2.461529270E0,3.987571281E0
1.066428417E0,-1.282382393E0,3.593350831E0,-6.762071013E-2,3.815920250E0
1.076428417E0,-8.207876945E-1,6.040143948E0,-4.647374602E0,7.665188976E0
1.086429417E0,-6.441911398E0,2.161178268E0,-3.510655999E0,7.648112153E0
1.096429417E0,-9.517477834E0,-8.788458096E0,2.041863493E0,1.311444191E1
1.106430417E0,-1.301908410E1,-2.902316009E1,1.045115538E1,3.348233894E1
1.116430417E0,-9.101113395E0,-1.318888607E1,1.444201455E1,2.157194393E1
1.126431417E0,-7.088708174E0,-1.766853154E0,9.644343118E0,1.209896309E1
1.136431417E0,-2.565377575E0,2.606975836E0,2.825937398E-1,3.668425321E0
1.146432417E0,1.524840699E0,4.884744660E0,-1.336575850E1,1.431186116E1
1.156432417E0,4.108862705E0,4.400423881E0,-2.141662951E1,2.224676387E1
1.166433417E0,3.974769385E0,3.952004421E0,-8.835677871E0,1.046357176E1
1.176433417E0,3.531104881E0,4.296551603E0,-5.332988119E-1,5.586901197E0
1.186434417E0,3.933994412E0,5.224688914E0,2.282647741E0,6.927060487E0
1.196435417E0,3.715387191E0,6.044574383E0,3.812123820E0,8.054394420E0
1.206435417E0,3.409674000E0,6.288937127E0,3.452584376E0,7.943358600E0
1.216436417E0,2.510433043E0,5.735268370E0,2.416532461E0,6.710827555E0
1.226436417E0,1.696570352E0,5.261016496E0,1.783525904E0,5.808408576E0
1.236437417E0,1.803810626E0,4.957079980E0,7.471127772E-1,5.327715478E0
1.246437417E0,2.628742096E0,3.576490969E0,-2.783964622E-1,4.447367452E0
1.256438417E0,3.648058257E0,1.704769757E0,-2.110203850E0,4.546155437E0
1.266438417E0,3.781427399E0,1.122595239E-1,-4.225140728E0,5.671296990E0
1.276439417E0,3.536108344E0,-1.054923658E0,-5.182724032E0,6.362197304E0
1.286439417E0,2.817366841E0,-2.746665233E0,-5.264465768E0,6.572391167E0
1.296440417E0,1.299208926E-1,-5.600688270E0,-6.008746154E0,8.215206563E0
1.306440417E0,-1.842452243E0,-7.480326027E0,-6.690085942E0,1.020329151E1
1.316441417E0,-1.058814249E0,-7.055983062E0,-6.441416724E0,9.612483238E0
1.326441417E0,-1.214963120E0,-5.117103655E0,-6.284362850E0,8.194760621E0
1.336442417E0,-1.391018836E0,-2.734883679E0,-5.560021470E0,6.350461470E0
1.346443417E0,-4.342744607E-1,-5.427993679E-1,-4.466682482E0,4.520451068E0
1.356443417E0,1.988382228E-1,8.764426625E-1,-3.056283488E0,3.185680012E0
1.366444417E0,6.843530037E-1,1.522730146E0,-2.313455551E0,2.852914775E0
1.376444417E0,1.181487371E0,1.141354861E0,-3.277101541E0,3.665787478E0
1.386445417E0,1.288945162E0,-5.944296974E-1,-4.465869134E0,4.686012529E0
1.396445417E0,-3.217200910E-1,-3.627851742E0,-4.165184548E0,5.532953497E0
1.406446417E0,-3.906935252E0,-6.272556737E0,9.806261583E-1,7.454578375E0
1.416446417E0,-6.538603295E0,-6.856864319E0,4.901344321E0,1.066738475E1
1.426447417E0,-7.153512281E0,-6.703026999E0,4.248602096E0,1.068428419E1
1.436447417E0,-5.642989367E0,-4.303631997E0,6.895539558E0,9.895101978E0
1.446448417E0,-4.998909792E0,-1.778185058E0,9.550126348E0,1.092501508E1
1.456448417E0,-4.730163574E0,-4.518465132E-1,5.984988917E0,7.641904543E0
1.466449417E0,-3.366132123E0,1.653711285E0,2.041613817E-1,3.755967033E0
1.476449417E0,-1.906488610E0,2.977971729E0,-1.017829506E0,3.679536838E0
1.486450417E0,-1.626065357E0,1.969785451E0,1.555519577E0,2.990616061E0
1.496451417E0,-1.899248003E0,-6.749300694E-1,3.445933753E0,3.992133892E0
1.506451417E0,-1.051265932E0,-2.965067509E0,3.533423302E0,4.730947645E0
1.516452417E0,8.346096352E-2,-3.568542264E0,3.046067818E0,4.692546086E0
1.526452417E0,1.040174276E0,-2.886366325E0,2.244545529E0,3.801454685E0
1.536453417E0,1.729880040E0,-1.267059472E0,1.050960415E0,2.387978738E0
1.546453417E0,2.006843057E0,2.371648210E-1,4.337346896E-1,2.066831389E0
1.556454417E0,2.218265511E0,1.140616942E0,8.485087591E-1,2.634706056E0
1.566454417E0,2.286757456E0,1.723797766E0,1.927291249E0,3.451838635E0
1.576455417E0,1.561195762E0,1.892255464E0,2.790515258E0,3.715499745E0
1.586456042E0,4.815119232E-1,1.469677189E0,3.205245400E0,3.558848528E0
1.596457042E0,-6.192512740E-1,5.436881447E-1,3.484967426E0,3.581070636E0
1.606457042E0,-1.836596403E0,-2.303808814E-1,3.131164101E0,3.637354853E0
1.616458042E0,-2.537616749E0,-3.185884684E-1,2.094355849E0,3.305650283E0
1.626458042E0,-2.991437282E0,1.185984904E-1,1.187443784E0,3.220680884E0
1.636459042E0,-3.125371850E0,9.325969827E-1,2.679936808E-1,3.272538303E0
1.646459042E0,-2.851378341E0,1.807013000E0,4.871856228E-2,3.376096551E0
1.656460042E0,-2.223769203E0,3.186533725E0,2.547497374E-1,3.894103758E0
1.666461042E0,-1.328690002E0,4.552012947E0,4.715434438E-1,4.765353314E0
1.676461042E0,-1.210108761E0,5.124940093E0,2.971876591E-1,5.274248257E0
1.686462042E0,-1.697931146E0,5.397409233E0,-1.002753630E-2,5.658188505E0
1.696462042E0,-2.005824472E0,5.842843689E0,-4.068331122E-1,6.190934289E0
1.706463042E0,-2.118262921E0,6.145339451E0,-5.476630819E-1,6.523202405E0
1.716463042E0,-2.322331039E0,6.063328158E0,-4.399176816E-1,6.507741342E0
1.726464042E0,-2.322463771E0,5.802325408E0,-4.750104772E-1,6.267890639E0
1.736464042E0,-2.125375181E0,5.381680807E0,-5.192391819E-1,5.809416262E0
1.746465042E0,-1.922320093E0,4.857104287E0,-5.477053280E-1,5.252309751E0
1.756465042E0,-1.674903933E0,4.268218920E0,-5.424584752E-1,4.617061525E0
1.766466042E0,-1.239140772E0,3.616405817E0,-5.773739541E-1,3.866163676E0
1.776466042E0,-1.023717653E0,2.907102891E0,-9.944780660E-1,3.238553948E0
1.786467042E0,-6.357946551E-1,2.348398511E0,-1.508291616E0,2.862543277E0
1.796467042E0,-1.351107350E-1,1.907700300E0,-2.157540130E0,2.883150145E0
1.806468042E0,2.007653189E-1,1.323832428E0,-2.724687889E0,3.035912235E0
1.816468042E0,5.336575386E-1,4.241944456E-1,-2.968150161E0,3.045430458E0
1.826469042E0,8.349955514E-1,-7.139859617E-1,-2.866770551E0,3.070076044E0
1.836469042E0,1.250690777E0,-2.020817610E0,-2.415990570E0,3.388944034E0
1.846470042E0,2.072975358E0,-3.326155879E0,-2.118501779E0,4.455175593E0
1.856471042E0,2.989099273E0,-4.704462723E0,-2.084915957E0,5.950929215E0
1.866471042E0,4.383928008E0,-5.831314149E0,-2.196549683E0,7.618915934E0
1.876472042E0,5.536795744E0,-6.215782027E0,-2.672893837E0,8.742792162E0
1.886472042E0,5.756227130E0,-5.859374353E0,-3.549752821E0,8.948025685E0
1.896473042E0,5.400622863E0,-5.564047278E0,-4.827458904E0,9.133986472E0
1.906473042E0,5.021685866E0,-5.726147883E0,-5.590111826E0,9.447510188E0
1.916474042E0,5.247393068E0,-5.472633078E0,-6.906654530E0,1.025605790E1
1.926474042E0,5.802879725E0,-4.208160414E0,-7.962245355E0,1.071351381E1
1.936475042E0,5.984602416E0,-2.362877387E0,-7.614260595E0,9.968732118E0
1.946475042E0,5.922131934E0,-1.653371562E0,-6.342971247E0,8.833944102E0
1.956476042E0,4.772879239E0,-2.409276797E0,-4.821695303E0,7.199565022E0
1.966476042E0,2.223504616E0,-3.351550337E0,-3.189792379E0,5.133384640E0
1.976477042E0,-6.652590671E-1,-3.603853599E0,-1.281431344E0,3.882318467E0
1.986477042E0,-2.487704624E0,-3.318893638E0,-1.062782608E-1,4.149099220E0
1.996478042E0,-4.345058058E0,-4.241167946E0,8.030887574E-1,6.124702982E0
2.006478042E0,-5.045278212E0,-5.927548794E0,2.060373439E0,8.052068408E0
2.016479042E0,-3.551115807E0,-5.424207022E0,3.030452828E0,7.156541738E0
2.026479042E0,-2.965351099E0,-4.977194987E0,3.000824402E0,6.524624447E0
2.036480042E0,-3.537767491E0,-4.680473351E0,3.909945399E0,7.050553356E0
2.046480042E0,-3.645909113E0,-3.501368281E0,5.018548250E0,7.123065326E0
2.056481042E0,-3.042293148E0,-1.662445271E0,4.730256545E0,5.864690858E0
2.066481042E0,-2.828953684E0,9.598894465E-1,5.793784381E0,6.518612133E0
2.076482042E0,-1.809923744E0,3.124964299E0,1.018166774E1,1.080312842E1
2.086482042E0,-3.410931151E0,7.058045375E-1,6.867918481E0,7.700708774E0
2.096483042E0,-5.802819498E0,-2.747379178E0,2.450055279E0,6.871941309E0
2.106484042E0,-5.146744945E0,-2.413110816E0,3.378117161E0,6.612394642E0
2.116484042E0,-3.970660255E0,-1.102036428E0,2.022389926E0,4.590281926E0
2.126485042E0,-2.547205598E0,-2.315339524E-1,1.468600717E0,2.949347791E0
2.136485042E0,-2.159181005E0,-2.095232785E-1,3.126927209E-1,2.191743451E0
2.146486042E0,-1.510472189E0,3.688078648E-1,-1.448925421E0,2.125307119E0
2.156486042E0,-1.125654210E0,1.071152020E0,-2.567390186E0,3.000992572E0
2.166487042E0,-1.241901096E0,1.495681511E0,-3.330291030E0,3.856192405E0
2.176487042E0,-9.361775252E-1,2.022804494E0,-2.534413644E0,3.375117613E0
2.186488042E0,-4.461463550E-1,3.065359536E0,-1.327685743E0,3.370196595E0
2.196488042E0,-3.809251960E-1,3.808526028E0,-3.435519862E-1,3.842915882E0
2.206489042E0,-8.096200973E-2,4.427337445E0,1.660141651E-1,4.431188599E0
2.216489042E0,1.372019917E-2,4.721067646E0,7.653666151E-1,4.782724539E0
2.226490042E0,1.445247522E-1,5.143279885E0,1.796162907E0,5.449808856E0
2.236490042E0,2.309629717E-1,5.662552396E0,2.423939860E0,6.163872807E0
2.246491042E0,4.356307223E-1,6.105337479E0,2.639924312E0,6.665892306E0
2.256491042E0,5.621751402E-1,6.345687279E0,2.722320936E0,6.927829328E0
2.266492042E0,5.455121836E-1,6.436069445E0,2.847935500E0,7.059129554E0
2.276492042E0,5.644198863E-1,6.413216187E0,2.953136265E0,7.083002575E0
2.286493042E0,6.067304850E-1,6.237957008E0,3.048330106E0,6.969400688E0
2.296493042E0,7.617859264E-1,5.867516600E0,3.485409476E0,6.867033426E0
2.306494042E0,9.899533443E-1,5.430378174E0,3.273320439E0,6.417448202E0
2.316494042E0,1.066767778E0,5.070547539E0,2.908740696E0,5.942156029E0
2.326495042E0,9.894658327E-1,4.858145092E0,2.217905030E0,5.431364385E0
2.336495042E0,8.725285363E-1,4.542002513E0,1.291741154E0,4.802050405E0
2.346496042E0,8.901521905E-1,4.195014119E0,1.655358446E-1,4.291610012E0
2.356496042E0,1.031207643E0,3.487348997E0,-7.878900898E-1,3.720989522E0
2.366497042E0,1.532135831E0,2.710162820E0,-1.969182018E0,3.683761737E0
2.376497042E0,2.139935333E0,1.667338806E0,-3.457803601E0,4.394968449E0
2.386498042E0,2.456620241E0,-1.112988263E-1,-4.477297225E0,5.108185674E0
2.396499042E0,2.212185722E0,-3.867653072E0,-5.753371350E0,7.276935333E0
2.406499042E0,1.999003256E0,-8.480925543E0,-8.986976330E0,1.251750197E1
2.416500042E0,3.852986209E0,-1.065143655E1,-1.092187729E1,1.573486596E1
2.426500042E0,5.487151129E0,-8.763270630E0,-8.057059711E0,1.310801094E1
2.436501042E0,4.938206922E0,-4.529653194E0,-6.858789808E0,9.588881232E0
2.446501042E0,4.050647826E0,-7.514198363E-2,-5.314779890E0,6.682834683E0
2.456502042E0,3.545065986E0,3.427308033E0,-2.261614137E0,5.424834716E0
2.466502042E0,3.530166988E0,4.723967865E0,8.681147656E-1,5.960836736E0
2.476503042E0,3.640819989E0,2.651063257E0,2.143286080E0,4.987723109E0
2.486503042E0,2.910122393E0,-2.242089699E0,2.148812868E0,4.255957625E0
2.496504042E0,2.378343272E-1,-5.478557476E0,3.443751572E0,6.475382775E0
2.506504042E0,-2.206146280E0,-6.553576260E0,4.153575486E0,8.066513034E0
2.516505042E0,-2.983215804E0,-6.756095159E0,5.320127753E0,9.102096332E0
2.526505042E0,-3.410424197E0,-5.953457807E0,4.507819691E0,8.209451347E0
2.536506042E0,-2.734847426E0,-4.637323238E0,8.080277543E-1,5.443993581E0
2.546506042E0,-5.559854239E-1,-3.742771164E0,-7.454267911E0,8.359639099E0
2.556507042E0,-9.761040679E-1,-3.052409123E0,-1.426627765E1,1.462178712E1
2.566507042E0,-5.067767188E-1,-4.418466049E-1,3.077905322E0,3.150484445E0
2.576508042E0,1.631043969E0,-2.068961245E-1,1.211312586E1,1.222419439E1
2.586507792E0,2.635027853E0,-1.472935258E0,1.130157443E1,1.169779871E1
2.596508792E0,3.461800173E0,-2.429374262E0,8.300344813E0,9.315666576E0
2.606508792E0,3.385213635E0,-2.651181956E0,5.140815868E0,6.701971718E0
2.616509792E0,3.881045535E0,-2.638236805E0,2.980528132E0,5.559348508E0
2.626509792E0,4.347404838E0,-2.217786332E0,3.386233681E-1,4.892154006E0
2.636510792E0,4.434474264E0,-1.375090290E0,-8.936779153E-1,4.728011794E0
2.646510792E0,4.789927088E0,-2.041491026E-1,1.486073366E0,5.019311947E0
2.656511792E0,4.011453355E0,4.234313840E-1,4.246470201E0,5.856924220E0
2.666511792E0,2.457913645E0,1.033741534E0,5.433136305E0,6.052183999E0
2.676512792E0,5.645814157E-1,1.610050710E0,4.673085979E0,4.974811356E0
2.686512792E0,-7.863815081E-1,1.981419656E0,3.617155430E0,4.198598949E0
2.696513792E0,-1.420346569E0,2.440874566E0,3.077249265E0,4.176687211E0
2.706513792E0,-1.551503710E0,3.143604053E0,2.596889389E0,4.362710706E0
2.716514792E0,-2.345828660E0,3.242926027E0,1.698480492E0,4.347909532E0
2.726514792E0,-2.997054702E0,3.313535249E0,6.881944782E-1,4.520560184E0
2.736515792E0,-3.401811833E0,3.325317973E0,3.239774086E-2,4.757216937E0
2.746515792E0,-3.363083678E0,3.477126895E0,-1.935883733E-1,4.841303515E0
2.756516792E0,-2.941778634E0,3.836654643E0,5.419638008E-1,4.864946571E0
2.766516792E0,-2.418338520E0,4.212577985E0,1.772277031E0,5.170603480E0
2.776517792E0,-2.235038834E0,4.572857686E0,2.618187872E0,5.723751719E0
2.786517792E0,-3.014770011E0,4.426707115E0,2.746201549E0,6.018820238E0
2.796518792E0,-3.811155228E0,3.762282738E0,1.948325585E0,5.698740928E0
2.806518792E0,-4.202248294E0,3.060134465E0,1.061933300E0,5.305753104E0
2.816519792E0,-4.354709764E0,2.572676069E0,1.347835833E-1,5.059676462E0
2.826519792E0,-4.267780671E0,2.056608417E0,-5.013081104E-1,4.763916441E0
2.836520792E0,-3.897428849E0,1.921152989E0,-9.998522419E-1,4.458753743E0
2.846520792E0,-3.651064019E0,1.679306887E0,-1.406307551E0,4.257703726E0
2.856521792E0,-3.212795325E0,1.608754967E0,-1.697659689E0,3.973939451E0
2.866521792E0,-2.822010115E0,1.582588677E0,-1.981560135E0,3.794062280E0
2.876522792E0,-2.503016727E0,1.503457723E0,-2.486416774E0,3.835067957E0
2.886522792E0,-2.318548183E0,1.115287389E0,-3.232293450E0,4.131253149E0
2.896523792E0,-1.732244946E0,5.945016181E-1,-3.785560504E0,4.205302968E0
2.906523792E0,-1.155482611E0,1.726361185E-1,-3.927496986E0,4.097581710E0
2.916524792E0,-7.941226369E-1,-3.130961788E-1,-3.774177144E0,3.869505536E0
2.926524792E0,1.888358295E-2,-8.600447309E-1,-3.760202299E0,3.857350756E0
2.936525792E0,8.919255048E-1,-1.451682383E0,-3.635775304E0,4.015193010E0
2.946525792E0,1.873414274E0,-2.151779453E0,-3.642931126E0,4.627178735E0
2.956526792E0,2.895011433E0,-2.761946347E0,-4.046429937E0,5.690609287E0
2.966526792E0,3.843829469E0,-3.595761053E0,-4.353923314E0,6.830898240E0
2.976527792E0,4.629565445E0,-4.240395529E0,-4.681210100E0,7.831191381E0
2.986527792E0,5.248347334E0,-4.189310160E0,-5.151539662E0,8.463677111E0
2.996528792E0,5.189133750E0,-3.772493731E0,-5.264158205E0,8.298805916E0
3.006528792E0,4.522566661E0,-3.287021635E0,-5.056382659E0,7.538244227E0
3.016529792E0,4.033334220E0,-2.461032842E0,-4.576740822E0,6.578071460E0
3.026529792E0,3.993170573E0,-2.458365342E0,-4.307885846E0,6.367640995E0
3.036530792E0,4.517462334E0,-3.349602630E0,-4.172523388E0,7.002660576E0
3.046530792E0,4.411206146E0,-4.504680905E0,-3.725190926E0,7.323109801E0
3.056531792E0,3.576245678E0,-4.802611161E0,-2.580218393E0,6.520132979E0
3.066531792E0,2.732455038E0,-4.469992298E0,-7.095632008E-1,5.286834745E0
3.076532792E0,1.520252681E0,-4.109420237E0,9.212924876E-1,4.477419206E0
3.086532792E0,-3.828192553E-1,-3.346094300E0,2.110766498E0,3.974699090E0
3.096533792E0,-2.384679900E0,-2.312698921E0,2.611541342E0,4.225567738E0
3.106533792E0,-2.948278399E0,-1.828638927E0,2.952336951E0,4.555497702E0
3.116534792E0,-2.582897879E0,-2.423386713E0,3.229109641E0,4.792839836E0
3.126534792E0,-2.612795862E0,-4.062278815E0,3.903928614E0,6.210432353E0
3.136535792E0,-3.041666619E0,-5.212070038E0,5.066618210E0,7.879595801E0
3.146535792E0,-3.361569249E0,-6.322856825E0,6.221442132E0,9.486042823E0
3.156536792E0,-3.822768091E0,-7.172394694E0,6.820943120E0,1.061046967E1
3.166536792E0,-4.089941407E0,-6.510372353E0,6.348070019E0,9.970484535E0
3.176537792E0,-4.108876738E0,-4.409390001E0,5.489070770E0,8.152023439E0
3.186537792E0,-4.120949484E0,-1.764941114E0,3.489720335E0,5.681143354E0
3.196538792E0,-4.429757315E0,-7.485693187E-1,2.167223119E0,4.987981751E0
3.206538792E0,-5.175794497E0,-2.249160737E-1,2.805970618E0,5.891766036E0
3.216539792E0,-5.330971999E0,2.870626205E-1,3.790754585E0,6.547632223E0
3.226539792E0,-5.060572189E0,1.090208096E0,4.119843484E0,6.615969687E0
3.236540792E0,-4.825263859E0,1.856117333E0,3.774316308E0,6.401078538E0
3.246540792E0,-4.608154403E0,2.686244200E0,2.619331588E0,5.942381077E0
3.256541792E0,-4.041211005E0,3.322955114E0,9.363340844E-1,5.315085944E0
3.266541792E0,-3.720299145E0,3.435173122E0,-9.356902329E-1,5.149422911E0
3.276542792E0,-3.526158137E0,3.235983628E0,-3.145431892E0,5.727051862E0
3.286542792E0,-3.170265017E0,3.376914389E0,-4.428409240E0,6.408193151E0
3.296543792E0,-2.579696236E0,3.686838453E0,-4.756798811E0,6.547880984E0
3.306543792E0,-2.046335736E0,4.041945707E0,-3.699183680E0,5.848826801E0
3.316544792E0,-1.749408278E0,4.286511934E0,-1.806331215E0,4.969652537E0
3.326544792E0,-1.605637817E0,4.558246078E0,-8.765946901E-1,4.911628891E0
3.336545792E0,-1.623496968E0,4.907416654E0,-2.855066764E-1,5.176871129E0
3.346545792E0,-1.235928896E0,5.257035127E0,5.531723285E-1,5.428622126E0
3.356546792E0,-8.100954759E-1,5.554905156E0,1.558528554E0,5.825996672E0
3.366546792E0,-3.483484572E-1,5.634340165E0,3.015935361E0,6.400234515E0
3.376547792E0,6.250673532E-4,5.470797052E0,4.087236485E0,6.828991350E0
3.386547792E0,1.964684924E-1,4.992245135E0,4.450647078E0,6.690991763E0
3.396548792E0,5.014510748E-1,4.435763283E0,4.095533684E0,6.058122254E0
3.406548792E0,5.362668586E-1,3.759421111E0,2.927473128E0,4.794885624E0
3.416549792E0,5.869315204E-1,3.283281171E0,1.651667829E0,3.721885339E0
3.426549792E0,7.780196974E-1,2.950633072E0,5.969318672E-1,3.109321121E0
3.436550792E0,1.255491341E0,2.491814924E0,-3.990677905E-1,2.818626478E0
3.446550792E0,1.955953862E0,2.013866440E0,-1.293367703E0,3.090989092E0
3.456551792E0,2.817115411E0,1.485293933E0,-1.741575494E0,3.629782708E0
3.466551792E0,3.574136295E0,7.115628755E-1,-2.588609147E0,4.470086051E0
3.476552792E0,4.138987852E0,-9.345318264E-1,-4.082187999E0,5.888024205E0
3.486552792E0,5.033389653E0,-3.291974226E0,-6.113487328E0,8.575945022E0
3.496553792E0,5.513922021E0,-6.315897469E0,-9.447885443E0,1.263156507E1
3.506553792E0,6.085207270E0,-8.152275771E0,-1.014045539E1,1.436378026E1
3.516554792E0,6.532547919E0,-6.474320176E0,-7.816633898E0,1.207024314E1
3.526554792E0,4.917666239E0,-3.049246364E0,-5.896756772E0,8.261542534E0
3.536555792E0,2.416456593E0,7.780574119E-1,-4.717640300E0,5.357309568E0
3.546555792E0,1.413107424E0,2.686658183E0,-3.617498954E0,4.722425591E0
3.556556792E0,9.836329427E-1,2.306558175E0,-2.036639298E0,3.230424742E0
3.566556792E0,9.754366082E-1,-8.930142564E-1,-6.645547700E-1,1.480062188E0
3.576557792E0,4.738808683E-1,-5.751141806E0,1.223850010E0,5.898983302E0
3.586557292E0,-1.608943248E0,-9.043694907E0,4.646389346E0,1.029398125E1
3.596558292E0,-3.873270785E0,-8.801200933E0,6.627313743E0,1.167838396E1
3.606558292E0,-4.073615104E0,-6.830157162E0,5.980754364E0,9.950618555E0
3.616559292E0,-3.956237805E0,-4.859114560E0,3.955207525E0,7.409890583E0
3.626559292E0,-4.301800649E0,-2.059026825E0,3.608257138E0,5.980351148E0
3.636560292E0,-3.681375107E0,-2.855762583E-1,-4.604096143E-1,3.721028553E0
3.646560292E0,-2.683819652E0,9.756418455E-1,-4.733147993E0,5.527879780E0
3.656561292E0,-6.859704897E-1,2.280352124E0,3.004113461E0,3.833439579E0
3.666561292E0,1.458198812E0,8.457956511E-1,9.493646922E0,9.642149446E0
3.676562292E0,2.636440833E0,-1.824593239E0,1.017508377E1,1.066828433E1
3.686562292E0,3.156011844E0,-3.436347243E0,7.836117990E0,9.119958240E0
3.696563292E0,2.490123909E0,-3.651580912E0,3.726707693E0,5.781272392E0
3.706563292E0,2.212606868E0,-3.362685775E0,8.558294731E-1,4.115304224E0
3.716564292E0,2.678188783E0,-2.514364126E0,1.397092686E-1,3.676172031E0
3.726564292E0,3.176695785E0,-1.267043685E0,7.847799557E-1,3.508942204E0
3.736565292E0,3.303518092E0,-8.734453797E-2,1.263171074E0,3.537861220E0
3.746565292E0,2.631390300E0,8.593991983E-1,1.508355936E0,3.152446593E0
3.756566292E0,1.791992965E0,1.801830613E0,8.674268407E-1,2.685193041E0
3.766566292E0,5.578606260E-1,2.270867940E0,-6.031287828E-2,2.339163809E0
3.776567292E0,-4.429949981E-1,2.500393374E0,-1.389491671E-1,2.543131625E0
3.786567292E0,-1.020162838E0,2.353897233E0,7.513730586E-2,2.566556061E0
3.796567292E0,-1.650499702E0,2.068977032E0,5.133516204E-1,2.695986853E0
3.806568292E0,-1.966589070E0,2.140155773E0,9.910662156E-1,3.070822618E0
3.816568292E0,-2.416823506E0,2.219846306E0,6.213181186E-1,3.339878693E0
3.826569292E0,-2.772151492E0,2.904012052E0,1.460435665E-1,4.017392017E0
3.836569292E0,-2.564255494E0,3.894746731E0,1.655972403E-1,4.666034803E0
3.846570292E0,-1.897151923E0,4.725693963E0,9.082374823E-1,5.172645761E0
3.856570292E0,-2.114064912E0,4.946609956E0,1.730280574E0,5.650848730E0
3.866571292E0,-2.943869890E0,4.551779058E0,1.451468375E0,5.611757565E0
3.876571292E0,-3.449242985E0,3.973019314E0,4.169947690E-1,5.277882556E0
3.886572292E0,-3.532248597E0,3.398789408E0,-5.741093805E-1,4.935397772E0
3.896572292E0,-3.437641817E0,3.045343933E0,-1.462196261E0,4.819701115E0
3.906573292E0,-3.528638526E0,2.727192836E0,-2.064871702E0,4.914525995E0
3.916573292E0,-3.232552774E0,2.648810910E0,-2.357766920E0,4.798401976E0
3.926574292E0,-2.648154268E0,2.131121825E0,-2.433824578E0,4.180658242E0
3.936574292E0,-2.076356511E0,1.543923964E0,-2.431829508E0,3.550880500E0
3.946575292E0,-1.553475098E0,1.344984730E0,-2.375126719E0,3.140620279E0
3.956575292E0,-1.241663553E0,1.213020090E0,-2.502263314E0,3.045401091E0
3.966576292E0,-8.775486633E-1,1.014529338E0,-2.958298187E0,3.248213293E0
3.976576292E0,-2.730339807E-1,7.897255307E-1,-3.436002257E0,3.536145569E0
3.986577292E0,3.974393409E-1,5.542207342E-1,-3.622196900E0,3.685841699E0
3.996577292E0,1.065784861E0,2.912205756E-1,-3.521220748E0,3.690488091E0
4.006578292E0,1.817610202E0,-7.976011455E-2,-3.094455281E0,3.589668788E0
4.016578292E0,2.727231135E0,-3.892579168E-1,-2.522187116E0,3.735068840E0
4.026579292E0,3.580341945E0,-8.462067103E-1,-2.009426649E0,4.191981596E0
4.036579292E0,4.450464352E0,-1.794514577E0,-1.351918944E0,4.985438832E0
4.046580292E0,5.121787859E0,-3.250443208E0,-6.630147596E-1,6.102268471E0
4.056580292E0,5.379859400E0,-4.383975663E0,-7.002765799E-1,6.975135631E0
4.066581292E0,4.975814459E0,-4.848456255E0,-1.583244296E0,7.125511918E0
4.076581292E0,4.166299904E0,-4.825462664E0,-2.961349264E0,7.029419200E0
4.086582292E0,3.277750582E0,-4.285064748E0,-4.086099787E0,6.767690909E0
4.096582292E0,2.485839654E0,-3.465334815E0,-4.487066168E0,6.190452888E0
4.106583292E0,1.671488282E0,-2.925384795E0,-4.520265489E0,5.637778762E0
4.116583292E0,1.466348369E0,-3.092636797E0,-4.845610415E0,5.932496961E0
4.126584292E0,1.540432591E0,-4.027259256E0,-5.146602858E0,6.714109819E0
4.136584292E0,1.438145786E0,-4.852254606E0,-4.724823897E0,6.923626140E0
4.146584292E0,5.438933820E-2,-4.620772110E0,-3.408369486E0,5.742079383E0
4.156585292E0,-1.448345377E0,-3.440322765E0,-2.207009913E0,4.336406094E0
4.166585292E0,-2.308774855E0,-2.613389062E0,-1.027686743E0,3.635434467E0
4.176586292E0,-2.530114479E0,-2.463032590E0,2.814428616E-1,3.542205372E0
4.186586292E0,-2.319093144E0,-2.431576324E0,1.597358744E0,3.720525686E0
4.196587292E0,-1.672467691E0,-2.395094960E0,2.792687498E0,4.041377427E0
4.206587292E0,-7.997520438E-1,-2.316549312E0,3.940411146E0,4.640349561E0
4.216588292E0,-4.874885085E-1,-2.450387986E0,5.000786748E0,5.590162290E0
4.226588292E0,-1.305014918E0,-3.249355041E0,5.535725704E0,6.550239018E0
4.236589292E0,-1.526053411E0,-3.203192443E0,5.567570225E0,6.602054154E0
4.246589292E0,-1.889702862E0,-2.679845007E0,5.926908524E0,6.773536065E0
4.256590292E0,-2.462995460E0,-1.882665446E0,5.134277512E0,5.997631314E0
4.266590292E0,-2.678529676E0,-1.761962543E0,3.036608192E0,4.415882985E0
4.276591292E0,-2.817305738E0,-1.830832218E0,2.503604665E0,4.190130612E0
4.286591292E0,-3.023197896E0,-1.141302820E0,3.150825949E0,4.513313838E0
4.296592292E0,-3.202433182E0,-4.049366409E-1,3.467432211E0,4.737366157E0
4.306592292E0,-3.198479879E0,6.502980888E-2,2.643061928E0,4.149732373E0
4.316593292E0,-2.989099273E0,6.532678896E-1,1.535929066E0,3.423529099E0
4.326593292E0,-2.792875486E0,1.356924745E0,5.449113091E-1,3.152511155E0
4.336594292E0,-2.637655884E0,1.853554498E0,-3.226394194E-1,3.239905714E0
4.346594292E0,-2.307801001E0,1.996147038E0,-9.487247729E-1,3.195407196E0
4.356594292E0,-1.943913276E0,2.110363625E0,-1.616686131E0,3.293342906E0
4.366595292E0,-1.623672676E0,2.317297756E0,-2.284565628E0,3.636677324E0
4.376595292E0,-1.299464157E0,2.671284683E0,-2.374437917E0,3.802936283E0
4.386596292E0,-1.008583012E0,3.098709716E0,-1.800601528E0,3.723091116E0
4.396596292E0,-8.070528772E-1,3.660698476E0,-8.996713114E-1,3.855055920E0
4.406597292E0,-6.715100330E-1,4.073893724E0,2.604431895E-1,4.137072208E0
4.416597292E0,-6.079347190E-1,4.417511199E0,1.172944443E0,4.610833817E0
4.426598292E0,-2.224783695E-1,4.816134017E0,1.823153654E0,5.154467260E0
4.436598292E0,2.416797486E-1,5.100182982E0,2.327430396E0,5.611346345E0
4.446599292E0,4.498950049E-1,5.353360988E0,2.432855548E0,5.897428719E0
4.456599292E0,7.458874932E-1,5.546574043E0,2.315835367E0,6.056725618E0
4.466600292E0,9.217539060E-1,5.547714250E0,2.562095532E0,6.179894593E0
4.476600292E0,1.007212717E0,5.451412947E0,2.670509927E0,6.153373372E0
4.486601292E0,9.554961410E-1,5.244116288E0,2.642994100E0,5.949718173E0
4.496601292E0,9.185598645E-1,5.178353823E0,2.332952507E0,5.753413590E0
4.506602292E0,1.000801245E0,5.089998887E0,1.698556505E0,5.458460039E0
4.516602292E0,1.075785939E0,4.838251694E0,8.739084792E-1,5.032863089E0
4.526603292E0,1.188771102E0,4.379782040E0,-6.615890622E-2,4.538727184E0
4.536603292E0,1.326665404E0,3.723033303E0,-8.497395980E-1,4.042656979E0
4.546604292E0,1.576778592E0,2.941806700E0,-2.392000029E0,4.106351364E0
4.556604292E0,1.871055507E0,1.927631119E0,-5.070882000E0,5.738506312E0
4.566604292E0,2.159835162E0,1.683998108E-3,-6.959972366E0,7.287393642E0
4.576605292E0,2.077473621E0,-4.673729757E0,-7.188623056E0,8.822468359E0
4.586605792E0,2.760907589E0,-9.110072499E0,-8.969059292E0,1.307899294E1
4.596606792E0,4.113083225E0,-1.031922466E1,-7.732833942E0,1.353516058E1
4.606606792E0,4.574769725E0,-8.149480217E0,-5.533271627E0,1.086092265E1
4.616607792E0,3.659029973E0,-4.304860497E0,-4.057302250E0,6.955718926E0
4.626607792E0,2.403685982E0,-3.854332530E-1,-4.058594777E0,4.732700778E0
4.636608792E0,1.982710721E0,2.456420558E0,-2.542135477E0,4.053097155E0
4.646608792E0,2.021692938E0,3.265275255E0,-2.110315678E-1,3.846270811E0
4.656609792E0,2.649332482E0,1.275656049E0,1.994161323E0,3.552877754E0
4.666609792E0,2.603317233E0,-3.035887815E0,3.509668112E0,5.320868886E0
4.676610792E0,-6.725028902E-2,-5.509037257E0,4.812808120E0,7.315540726E0
4.686610792E0,-2.290790573E0,-6.311728989E0,5.321911154E0,8.567869199E0
4.696611792E0,-2.355123686E0,-7.189226489E0,5.055928330E0,9.099120637E0
4.706611792E0,-2.140385569E0,-6.623719459E0,3.848929703E0,7.954191959E0
4.716612792E0,-2.803097589E0,-4.309062306E0,1.428105240E0,5.335246819E0
4.726612792E0,-2.563321109E0,-2.154329424E0,-2.162652351E0,3.986077717E0
4.736612792E0,-1.925783399E-1,-1.130432262E0,-9.743927633E0,9.811171654E0
4.746613792E0,-8.679487047E-1,-8.953104579E-1,-6.476828631E0,6.595773259E0
4.756613792E0,3.201315486E-1,-7.124072134E-1,7.672311752E0,7.711963165E0
4.766614792E0,1.547581982E0,-2.414443397E0,1.044429075E1,1.083087052E1
4.776614792E0,2.435200720E0,-3.541904104E0,8.765462751E0,9.762613609E0
4.786615792E0,2.771072096E0,-3.056924343E0,5.240921370E0,6.670148709E0
4.796615792E0,3.405232747E0,-2.324727813E0,2.687127714E0,4.921445399E0
4.806616792E0,4.270576225E0,-1.844548032E0,9.091367841E-1,4.739905951E0
4.816616792E0,4.862905310E0,-1.413498895E0,-1.180228904E0,5.199881484E0
4.826617792E0,4.820497501E0,-9.425933826E-1,-2.569480566E0,5.543276001E0
4.836617792E0,4.898335051E0,3.917634487E-1,-2.272872366E0,5.414158629E0
4.846618792E0,4.213139318E0,2.160592377E0,9.513560200E-1,4.829470013E0
4.856618792E0,3.354758412E0,3.111149667E0,3.131231929E0,5.544210462E0
4.866619792E0,2.042604920E0,3.284849394E0,3.748856946E0,5.386687183E0
4.876619792E0,4.504732946E-1,3.500791161E0,3.566711501E0,5.017957341E0
4.886619792E0,-1.409541500E0,3.519985816E0,2.937335919E0,4.796357960E0
4.896620792E0,-2.930927371E0,3.544890277E0,2.590316534E0,5.278856133E0
4.906620792E0,-3.577726486E0,3.770989242E0,2.150733971E0,5.625490493E0
4.916621792E0,-3.473227679E0,4.439452876E0,2.855569040E0,6.318728265E0
4.926621792E0,-2.787482892E0,5.151868860E0,3.900933670E0,7.037691178E0
4.936622792E0,-3.048219886E0,4.975781715E0,4.358406374E0,7.283251627E0
4.946622792E0,-4.030319688E0,4.528113622E0,3.923106896E0,7.220668770E0
4.956623792E0,-4.775894940E0,4.003421912E0,3.120349676E0,6.969443420E0
4.966623792E0,-5.144627084E0,3.393939727E0,2.198336154E0,6.543599663E0
4.976624792E0,-5.532202756E0,2.637226406E0,1.362666126E0,6.278303069E0
4.986624792E0,-5.812775552E0,1.865428439E0,2.342195054E-1,6.109258683E0
4.996625792E0,-5.240480490E0,1.546023699E0,-9.747815739E-1,5.550047221E0
5.006625792E0,-4.564978563E0,1.380611231E0,-1.807821085E0,5.100326825E0
5.016626792E0,-3.944996825E0,1.199086175E0,-2.286045412E0,4.714531921E0
5.026626792E0,-3.315804554E0,9.370519763E-1,-2.498867543E0,4.256402852E0
5.036626792E0,-2.521824296E0,6.904269451E-1,-2.093883832E0,3.349721877E0
5.046627792E0,-1.474878580E0,4.712744719E-1,-2.008085444E0,2.535699825E0
5.056627792E0,-7.905391708E-1,3.559463292E-1,-2.410487756E0,2.561659850E0
5.066628792E0,-4.122050223E-1,5.357885563E-1,-3.085864552E0,3.159041372E0
5.076628792E0,-4.260602921E-2,7.674739516E-1,-4.127982223E0,4.198936624E0
5.086629792E0,3.858905053E-1,5.098859757E-1,-5.022722577E0,5.063263501E0
5.096629792E0,8.296623060E-1,-4.222227645E-1,-5.243931516E0,5.325920517E0
5.106630792E0,1.670056884E0,-1.159659569E0,-5.077227398E0,5.469199061E0
5.116630792E0,2.991976688E0,-2.050958253E0,-5.104033374E0,6.261749830E0
5.126631792E0,4.349482353E0,-2.965783208E0,-5.297851616E0,7.468674482E0
5.136631792E0,5.484941466E0,-3.573872586E0,-5.337220334E0,8.446482643E0
5.146632792E0,6.156816366E0,-3.611515791E0,-4.784141561E0,8.592871728E0
5.156632792E0,6.108042986E0,-3.493918929E0,-5.045351302E0,8.658592747E0
5.166632792E0,6.030362141E0,-2.967063748E0,-4.671918290E0,8.185081267E0
5.176633792E0,5.552961541E0,-2.544900625E0,-3.791662658E0,7.189478895E0
5.186633792E0,5.253457800E0,-2.477857035E0,-3.160653364E0,6.612739526E0
5.196634792E0,5.493103595E0,-3.167156053E0,-2.928784366E0,6.984471521E0
5.206634792E0,5.546774603E0,-4.885015971E0,-2.329061915E0,7.749491527E0
5.216635792E0,4.955125841E0,-6.137791865E0,-1.057115779E0,7.958847583E0
5.226635792E0,2.901567039E0,-5.666878166E0,5.171486561E-1,6.387491070E0
5.236636792E0,6.770040768E-1,-4.774718773E0,1.292090818E0,4.992571738E0
5.246636792E0,-1.096760486E0,-3.987045615E0,1.757212265E0,4.493018055E0
5.256637792E0,-3.035114229E0,-3.263740945E0,2.344713596E0,5.036030698E0
5.266637792E0,-3.630005564E0,-2.979662159E0,2.685365363E0,5.409853428E0
5.276638792E0,-2.973608244E0,-2.750832544E0,3.235603559E0,5.184453305E0
5.286638792E0,-2.738921473E0,-3.052773405E0,4.387978082E0,6.006285703E0
5.296638792E0,-3.527525216E0,-4.102544496E0,5.158172159E0,7.475362567E0
5.306639792E0,-4.028451795E0,-4.997375482E0,5.420999240E0,8.401750909E0
5.316639792E0,-4.433029417E0,-5.287057071E0,5.371054078E0,8.743737427E0
5.326640792E0,-4.791214938E0,-4.329706485E0,5.395293126E0,8.414944250E0
5.336640792E0,-5.038969651E0,-3.300236342E0,4.246272565E0,7.369776506E0
5.346641792E0,-5.765106711E0,-3.268633311E0,3.359566285E0,7.430148366E0
5.356641792E0,-6.126079892E0,-3.125066040E0,3.689661489E0,7.804389438E0
5.366642792E0,-5.922607897E0,-2.193841399E0,4.083327622E0,7.520890164E0
5.376642792E0,-5.647950729E0,-1.179235463E0,3.587249261E0,6.793990063E0
5.386643792E0,-5.282227271E0,-1.368821490E-1,2.310819626E0,5.767195939E0
5.396643792E0,-4.820184383E0,9.191442937E-1,1.220946575E0,5.056650498E0
5.406643792E0,-4.139284891E0,1.825604807E0,4.448194025E-1,4.545808687E0
5.416644792E0,-3.335966630E0,2.256437597E0,-5.472520226E-1,4.064439539E0
5.426644792E0,-2.683153946E0,2.501585037E0,-1.300292707E0,3.892043669E0
5.436645792E0,-2.117640777E0,3.114549823E0,-1.588436478E0,4.087536361E0
5.446645792E0,-2.016198017E0,3.535236524E0,-2.096874098E0,4.578190986E0
5.456646792E0,-1.692626844E0,4.119609595E0,-2.259332553E0,4.994071729E0
5.466646792E0,-1.244535120E0,4.691868405E0,-1.568546589E0,5.101258197E0
5.476647792E0,-9.330413711E-1,5.315455828E0,-8.781605744E-1,5.467705447E0
5.486647792E0,-5.714463392E-1,5.887416430E0,1.515317631E-1,5.917025013E0
5.496648792E0,-2.402015725E-1,6.321390928E0,1.424301041E0,6.484312879E0
5.506648792E0,-3.064671904E-2,6.595180954E0,2.370233184E0,7.008234898E0
5.516648792E0,2.273444223E-1,6.621205741E0,2.901501843E0,7.232618053E0
5.526649792E0,2.656670737E-1,6.457112405E0,3.121670562E0,7.177026313E0
5.536649792E0,1.319555774E-1,6.120462472E0,2.976163770E0,6.806983468E0
5.546650792E0,-1.357469121E-1,5.647372440E0,2.799083183E0,6.304451551E0
5.556650792E0,-1.882323968E-1,5.130992546E0,3.154407953E0,6.026010743E0
5.566651792E0,1.760023606E-1,4.721541855E0,3.286793593E0,5.755601310E0
5.576651792E0,6.923252437E-1,4.572932530E0,3.156286079E0,5.599389965E0
5.586652292E0,1.361798691E0,4.419802723E0,2.765651143E0,5.388689825E0
5.596652292E0,1.959444065E0,4.321579440E0,2.031647823E0,5.161691852E0
5.606653292E0,2.316648130E0,4.093582469E0,9.584907194E-1,4.800310453E0
5.616653292E0,2.555490225E0,3.263307082E0,-6.866626538E-2,4.145409323E0
5.626653292E0,3.095223898E0,2.141700608E0,-1.651776441E0,4.110432810E0
5.636654292E0,3.882787713E0,9.787730294E-1,-4.630589000E0,6.121796432E0
5.646654292E0,4.267930652E0,-1.169209827E0,-6.442183878E0,7.815626449E0
5.656655292E0,3.547540527E0,-6.012953811E0,-4.996241122E0,8.585049952E0
5.666655292E0,2.790627232E0,-1.023778931E1,-8.475772977E0,1.358081949E1
5.676656292E0,3.096461461E0,-1.150108493E1,-1.193023080E1,1.685803770E1
5.686656292E0,3.748079267E0,-9.227930147E0,-9.382483166E0,1.368333963E1
5.696657292E0,3.664909056E0,-4.521824942E0,-6.928805537E0,9.049132851E0
5.706657292E0,2.934767237E0,3.503990757E-1,-5.974760967E0,6.665838797E0
5.716658292E0,2.145765299E0,2.611679921E0,-4.571782383E0,5.685628803E0
5.726658292E0,1.688102269E0,2.574764110E0,-1.678239624E0,3.506506484E0
5.736658292E0,1.799370397E0,6.280880249E-1,1.022694390E0,2.162899029E0
5.746659292E0,1.857611004E0,-2.684181302E0,3.297281159E0,4.639785657E0
5.756659292E0,-1.234320912E-1,-4.385675449E0,4.546367168E0,6.318135725E0
5.766660292E0,-2.349232617E0,-3.886461226E0,5.666924944E0,7.262059837E0
5.776660292E0,-2.527204612E0,-4.079721644E0,6.041509273E0,7.715615733E0
5.786661292E0,-2.051881820E0,-4.061396470E0,5.026409247E0,6.780114321E0
5.796661292E0,-1.857076861E0,-3.037634963E0,3.381033168E0,4.909923209E0
5.806662292E0,-1.369979823E0,-1.716137913E0,6.052394450E-1,2.277781561E0
5.816662292E0,-5.477274013E-1,-1.076036199E0,-5.448560675E0,5.580741227E0
5.826662292E0,-1.951279013E0,-1.384559855E0,-1.192246102E1,1.216016334E1
5.836663292E0,-5.853492638E-1,-6.175747311E-1,9.457111180E-1,1.272164230E0
5.846663292E0,2.195380678E0,-1.177170811E0,1.088757168E1,1.116891420E1
5.856664292E0,2.839984456E0,-2.259407398E0,1.021900572E1,1.084428473E1
5.866664292E0,2.603777409E0,-2.104169669E0,6.094266361E0,6.953220065E0
5.876665292E0,1.865800322E0,-2.347367063E0,2.678430566E0,4.020613543E0
5.886665292E0,1.871663032E0,-2.713402178E0,1.201784080E0,3.508555096E0
5.896666292E0,2.316369803E0,-2.696706623E0,8.662731850E-1,3.658992335E0
5.906666292E0,3.152936209E0,-1.755199653E0,4.158142161E-1,3.632441881E0
5.916666292E0,2.832593576E0,-6.129413974E-1,1.520755633E-1,2.902138952E0
5.926667292E0,2.312083502E0,6.239610600E-1,9.637380838E-1,2.581443127E0
5.936667292E0,1.973927326E0,1.593308963E0,2.258641412E0,3.396539940E0
5.946668292E0,1.221746767E0,1.734215750E0,3.004399974E0,3.677851089E0
5.956668292E0,6.108440012E-2,1.694422524E0,2.619288318E0,3.120171516E0
5.966669292E0,-9.372855726E-1,1.940044173E0,2.026365448E0,2.957774935E0
5.976669292E0,-1.535876733E0,2.325680909E0,1.292148120E0,3.072027962E0
5.986670292E0,-1.711319223E0,2.797749433E0,7.816943800E-1,3.371507300E0
5.996670292E0,-1.643597064E0,3.604558189E0,5.243443859E-1,3.996146654E0
6.006670292E0,-1.646561894E0,4.420766344E0,1.188997389E0,4.864982624E0
6.016671292E0,-2.081462592E0,4.944692069E0,2.135147048E0,5.774194238E0
6.026671292E0,-2.893641431E0,5.109822702E0,2.922867569E0,6.559466716E0
6.036672292E0,-3.618193896E0,4.762768233E0,2.968185829E0,6.677231120E0
6.046672292E0,-4.314536469E0,4.016990376E0,2.583644861E0,6.436354355E0
6.056673292E0,-4.867239266E0,3.365440983E0,1.881990092E0,6.209516711E0
6.066673292E0,-5.202810388E0,2.837509330E0,7.337144673E-1,5.971518404E0
6.076674292E0,-4.908854485E0,2.822201904E0,-9.376413757E-1,5.739411754E0
6.086674292E0,-4.306783646E0,2.910943927E0,-3.068455052E0,6.036339646E0
6.096674292E0,-3.750649118E0,2.735945533E0,-3.639653177E0,5.899139091E0
6.106675292E0,-3.328458513E0,2.153672782E0,-2.671986934E0,4.780842677E0
6.116675292E0,-2.934976568E0,1.605692781E0,-1.663201316E0,3.736117688E0
6.126676292E0,-2.784397316E0,1.185628808E0,-1.474465474E0,3.366397558E0
6.136676292E0,-2.672930675E0,1.127271257E0,-2.201471431E0,3.641672052E0
6.146677292E0,-2.238102775E0,1.159509881E0,-3.300252714E0,4.152738274E0
6.156677292E0,-1.490269913E0,7.608630896E-1,-3.996919808E0,4.333034157E0
6.166678292E0,-5.702002975E-1,9.593936026E-2,-4.257959980E0,4.297040369E0
6.176678292E0,4.517158279E-1,-5.009777427E-1,-4.346119035E0,4.398156040E0
6.186678292E0,1.600087932E0,-1.216747690E0,-4.254290267E0,4.705288727E0
6.196679292E0,2.891472406E0,-1.722433611E0,-4.054811336E0,5.269619074E0
6.206679292E0,4.142080445E0,-2.338620797E0,-3.681165485E0,6.014728337E0
6.216680292E0,5.216306346E0,-3.213680593E0,-3.889486576E0,7.257113798E0
6.226680292E0,6.083597531E0,-3.701789784E0,-3.866413463E0,8.103243770E0
6.236681292E0,6.545545110E0,-3.671869581E0,-3.643729271E0,8.342874205E0
6.246681292E0,6.507257541E0,-3.404623175E0,-3.564398927E0,8.163381614E0
6.256682292E0,6.285947446E0,-3.033217392E0,-3.733217983E0,7.915204328E0
6.266682292E0,6.041503426E0,-2.636206067E0,-4.061137438E0,7.742233745E0
6.276682292E0,5.930298155E0,-2.388784060E0,-4.642972233E0,7.901387008E0
6.286683292E0,5.900200782E0,-2.761824725E0,-5.172922345E0,8.318603889E0
6.296683292E0,5.344169165E0,-4.134628168E0,-5.061273270E0,8.442261621E0
6.306684292E0,3.888565639E0,-4.489756472E0,-3.502355291E0,6.895313517E0
6.316684292E0,1.833281032E0,-3.963454438E0,-1.803516950E0,4.724676054E0
6.326685292E0,-2.074241281E-2,-3.709270712E0,-4.653611827E-1,3.738406143E0
6.336685292E0,-1.859262550E0,-3.511703820E0,1.115399070E0,4.127109889E0
6.346686292E0,-3.435585643E0,-3.514369565E0,2.442839230E0,5.488306265E0
6.356686292E0,-4.143551312E0,-3.191388668E0,3.300614657E0,6.184499674E0
6.366686292E0,-4.152741381E0,-3.161487762E0,3.826836584E0,6.471857854E0
6.376687292E0,-3.579894633E0,-3.231476009E0,4.201870564E0,6.396389530E0
6.386687292E0,-3.617743660E0,-3.835894505E0,4.521024458E0,6.945633016E0
6.396688292E0,-3.882985349E0,-4.695291365E0,4.562111673E0,7.611583221E0
6.406688292E0,-4.980196363E0,-5.541127362E0,4.707504444E0,8.812890918E0
6.416689292E0,-5.651063787E0,-5.507900559E0,4.313631905E0,8.993270300E0
6.426689292E0,-5.541373529E0,-4.301334625E0,4.320546822E0,8.238654319E0
6.436689292E0,-5.728581494E0,-2.909312553E0,3.680422304E0,7.404475255E0
6.446690292E0,-5.936611394E0,-1.559047202E0,3.037333832E0,6.848312188E0
6.456690292E0,-6.171373594E0,-1.636837390E0,3.589102244E0,7.324393735E0
6.466691292E0,-6.002380875E0,-1.609574162E0,4.142511969E0,7.468581564E0
6.476691292E0,-5.341847236E0,-4.934377581E-1,3.884519366E0,6.623315138E0
6.486692292E0,-4.742488628E0,7.347856772E-1,2.859818797E0,5.586561727E0
6.496692292E0,-4.030980131E0,1.599712248E0,1.452667054E0,4.573633311E0
6.506692292E0,-3.115631850E0,2.303192518E0,2.408935905E-1,3.881995276E0
6.516693292E0,-2.431377518E0,3.108800840E0,-3.923119175E-1,3.966125054E0
6.526693292E0,-1.947088898E0,3.919250073E0,-2.803248739E-1,4.385231846E0
6.536694292E0,-1.653470087E0,4.621911147E0,8.891276121E-3,4.908778365E0
6.546694292E0,-1.339010338E0,5.208119659E0,-4.039736044E-1,5.392648120E0
6.556695292E0,-9.026235706E-1,5.799873671E0,-1.166179215E0,5.984416251E0
6.566695292E0,-5.885058832E-1,6.027639678E0,-1.601131368E0,6.264375541E0
6.576695292E0,-2.177134734E-1,6.056339566E0,-1.500041195E0,6.243137968E0
6.586695958E0,5.364791125E-1,6.262210674E0,-1.595366013E0,6.484464903E0
6.596695958E0,8.296631831E-1,6.059750247E0,-4.264374375E-2,6.116431357E0
6.606696958E0,3.777160978E-1,5.526104110E0,2.647013476E0,6.138988225E0
6.616696958E0,5.211623311E-3,5.320123075E0,4.330663090E0,6.859911041E0
6.626697958E0,1.076916790E-1,5.543043494E0,4.328949856E0,7.033970111E0
6.636697958E0,1.209186655E-1,5.684777663E0,3.173526009E0,6.511726786E0
6.646698958E0,4.749003303E-1,5.727098640E0,2.371907827E0,6.217003772E0
6.656698958E0,7.277766198E-1,5.333029050E0,1.800286656E0,5.675551929E0
6.666698958E0,9.118560317E-1,4.972013769E0,1.456812730E0,5.260675401E0
6.676699958E0,1.507133868E0,4.815308974E0,7.372366838E-1,5.099232388E0
6.686699958E0,2.071891285E0,4.325145072E0,6.073970675E-2,4.796175842E0
6.696700958E0,2.773410982E0,3.568804219E0,-1.352956824E0,4.717908880E0
6.706700958E0,3.433286518E0,2.501959258E0,-3.282681831E0,5.368729501E0
6.716701958E0,3.772665054E0,1.271542532E0,-6.031770151E0,7.227176016E0
6.726701958E0,3.812112418E0,-1.181340460E0,-6.316206787E0,7.471427878E0
6.736701958E0,3.241817980E0,-5.890440609E0,-4.353269595E0,8.009845851E0
6.746702958E0,2.275534018E0,-9.856154412E0,-8.383688686E0,1.313803908E1
6.756702958E0,1.998322494E0,-1.125114219E1,-1.104183175E1,1.589036003E1
6.766703958E0,2.475538030E0,-9.408227872E0,-8.186455085E0,1.271460133E1
6.776703958E0,2.051641207E0,-5.368180171E0,-6.586433519E0,8.741149610E0
6.786704958E0,1.257224748E0,-1.470242615E0,-5.307396026E0,5.648953884E0
6.796704958E0,2.041900331E-1,1.501453298E0,-4.266067729E0,4.527183390E0
6.806704958E0,-3.037175372E-1,2.874714578E0,-2.846832423E0,4.057176739E0
6.816705958E0,1.187820929E0,7.980771089E-1,-1.236023036E0,1.890925323E0
6.826705958E0,2.527950424E0,-3.795261034E0,-1.992086439E-1,4.564452185E0
6.836706958E0,1.889143284E0,-6.004037976E0,2.831785491E0,6.901908680E0
6.846706958E0,5.047980210E-1,-5.815852942E0,5.369629111E0,7.931701159E0
6.856707958E0,-7.133784360E-1,-6.042353026E0,6.638945024E0,9.005250131E0
6.866707958E0,-1.636966029E0,-5.647511019E0,7.004090778E0,9.145016463E0
6.876707958E0,-2.404266318E0,-3.835995662E0,6.159370430E0,7.644161389E0
6.886708958E0,-2.483286760E0,-1.387973460E0,3.413674664E0,4.443687452E0
6.896708958E0,-1.460081908E0,7.263493145E-1,-1.203857649E0,2.026991797E0
6.906709958E0,-1.093433420E0,2.408838256E0,-6.085442913E0,6.635564319E0
6.916709958E0,-4.368209231E-1,2.725053340E0,3.271094696E-1,2.779159734E0
6.926710958E0,1.469911370E0,8.355840737E-1,8.538089093E0,8.703895998E0
6.936710958E0,2.571995161E0,-1.791858771E0,9.276228733E0,9.791544131E0
6.946710958E0,2.787834894E0,-3.143908693E0,6.069132689E0,7.381771933E0
6.956711958E0,2.512026410E0,-3.467079624E0,3.204198164E0,5.347691434E0
6.966711958E0,2.705732093E0,-3.328044530E0,2.513202285E0,4.971222413E0
6.976712958E0,3.436709478E0,-2.193685863E0,2.482005050E0,4.773214721E0
6.986712958E0,3.801814301E0,-3.764776576E-1,2.084781471E0,4.352222558E0
6.996713958E0,3.772891341E0,1.019943860E0,8.326435089E-4,3.908323841E0
7.006713958E0,3.102200503E0,1.625228328E0,-2.098423026E0,4.082694487E0
7.016713958E0,2.390003205E0,2.479856783E0,-1.437264318E0,3.731961107E0
7.026714958E0,1.364155996E0,2.858062293E0,1.315512425E0,3.429287768E0
7.036714958E0,2.019397321E-1,2.581837487E0,2.976987058E0,3.945771966E0
7.046715958E0,-9.620798135E-1,2.149528275E0,2.796753652E0,3.656213938E0
7.056715958E0,-2.055879854E0,1.991648775E0,2.296337242E0,3.669669133E0
7.066715958E0,-2.865693786E0,2.182948036E0,1.656944211E0,3.965214638E0
7.076716958E0,-2.729912376E0,2.866830778E0,1.918110098E0,4.398896070E0
7.086716958E0,-2.221779395E0,3.968136304E0,2.615562472E0,5.246291686E0
7.096717958E0,-2.605418430E0,4.486122428E0,3.198998820E0,6.094841514E0
7.106717958E0,-3.597295362E0,4.105475705E0,2.764037896E0,6.118445079E0
7.116718958E0,-4.353795260E0,3.476929259E0,1.503408022E0,5.771031616E0
7.126718958E0,-4.546276243E0,3.234425345E0,3.777528987E-1,5.592211749E0
7.136718958E0,-4.578985568E0,2.757890718E0,-9.467706335E-1,5.428576671E0
7.146719958E0,-4.453426552E0,2.358988988E0,-1.903845230E0,5.387250111E0
7.156719958E0,-4.076473223E0,2.335824659E0,-2.542704996E0,5.342196128E0
7.166720958E0,-3.912596526E0,1.976715571E0,-2.884445515E0,5.247460524E0
7.176720958E0,-3.580695117E0,1.507961249E0,-2.996044303E0,4.906282311E0
7.186721958E0,-3.192844333E0,1.151208588E0,-2.918289784E0,4.476153640E0
7.196721958E0,-2.928098488E0,7.561578351E-1,-2.997855771E0,4.258247838E0
7.206721958E0,-2.660950314E0,3.000802767E-1,-3.153596944E0,4.137134085E0
7.216722958E0,-2.265408687E0,2.163002014E-2,-3.340193290E0,4.036017294E0
7.226722958E0,-1.807469375E0,-3.441168272E-1,-3.532602353E0,3.983044228E0
7.236723958E0,-1.149005065E0,-9.974730098E-1,-3.909358338E0,4.195026539E0
7.246723958E0,-2.103220081E-1,-1.623456037E0,-4.117540850E0,4.431025559E0
7.256724958E0,1.147953151E0,-1.808843763E0,-3.990588443E0,4.529294461E0
7.266724958E0,2.659268655E0,-1.653910675E0,-3.612392873E0,4.780848520E0
7.276724958E0,4.088674316E0,-1.674392302E0,-3.182456462E0,5.445078179E0
7.286725958E0,5.659839873E0,-1.612173834E0,-2.633530381E0,6.447354041E0
7.296725958E0,6.522137536E0,-1.697039153E0,-2.071296623E0,7.050424783E0
7.306726958E0,6.584336708E0,-1.340119262E0,-1.906893969E0,6.984672800E0
7.316726958E0,6.026973680E0,-1.129414262E0,-1.961494099E0,6.437969199E0
7.326726958E0,5.518144881E0,-1.338208977E0,-2.214451665E0,6.094630618E0
7.336727958E0,5.196046913E0,-1.559155376E0,-2.590960897E0,6.011900480E0
7.346727958E0,5.085772519E0,-1.591277055E0,-3.274581099E0,6.254608393E0
7.356728958E0,5.222438321E0,-1.489503343E0,-3.920033015E0,6.697696699E0
7.366728958E0,5.113291855E0,-2.370910292E0,-4.515811080E0,7.222154728E0
7.376729958E0,4.596124926E0,-4.189938151E0,-4.223629223E0,7.517911269E0
7.386729958E0,3.195405998E0,-5.313768321E0,-2.992194496E0,6.884764424E0
7.396729958E0,1.446285987E0,-4.979504637E0,-1.248579347E0,5.333494162E0
7.406730958E0,-3.630188289E-1,-4.077147115E0,5.152005831E-1,4.125571828E0
7.416730958E0,-2.635697944E0,-3.546511710E0,1.626543952E0,4.708534187E0
7.426731958E0,-4.369081051E0,-2.878159758E0,1.545738793E0,5.455454265E0
7.436731958E0,-5.533185089E0,-2.038987248E0,1.469767821E0,6.077320435E0
7.446731958E0,-5.608318301E0,-1.844602996E0,1.927417111E0,6.210533882E0
7.456732958E0,-4.622887048E0,-2.463464699E0,2.969024320E0,6.021199913E0
7.466732958E0,-3.960225606E0,-3.380844887E0,4.718124742E0,7.026677742E0
7.476733958E0,-3.743704965E0,-4.592233019E0,5.915756714E0,8.372580753E0
7.486733958E0,-3.513277598E0,-5.502948552E0,6.222756001E0,9.019326721E0
7.496733958E0,-3.632668386E0,-5.347911968E0,5.825645859E0,8.702562363E0
7.506734958E0,-3.623880898E0,-4.305492581E0,5.890337114E0,8.146523825E0
7.516734958E0,-3.821585492E0,-3.152122861E0,5.152395110E0,7.147556895E0
7.526735958E0,-4.046277032E0,-2.510259381E0,4.043833773E0,6.247107456E0
7.536735958E0,-4.410531963E0,-2.168943955E0,3.504848544E0,6.036644216E0
7.546736958E0,-4.662019831E0,-2.211105303E0,3.662220506E0,6.327343408E0
7.556736958E0,-4.470565326E0,-1.489744833E0,2.914016638E0,5.540468118E0
7.566736958E0,-3.850725968E0,-2.848044258E-1,1.518941150E0,4.149263339E0
7.576737958E0,-3.132314833E0,8.215571880E-1,-1.740789190E-3,3.238264266E0
7.586738208E0,-2.653122062E0,1.353705268E0,-2.262947887E0,3.740656061E0
7.596739208E0,-2.093332440E0,1.353007110E0,-5.059289310E0,5.639953658E0
7.606739208E0,-1.415043437E0,1.378813212E0,-6.333925020E0,6.634913711E0
7.616740208E0,-5.873747393E-1,1.820125381E0,-5.555022100E0,5.875043491E0
7.626740208E0,-3.630612212E-1,2.355033932E0,-3.518338655E0,4.249318200E0
7.636740208E0,-8.576049802E-1,2.663411992E0,-7.448778983E-1,2.895529800E0
7.646741208E0,-9.315731353E-1,3.491685877E0,1.795405108E0,4.035242034E0
7.656741208E0,-1.100194848E0,4.470913235E0,3.399622636E0,5.723366835E0
7.666742208E0,-9.505292237E-1,5.572099478E0,3.934587904E0,6.887146025E0
7.676742208E0,-6.389720321E-1,6.572755712E0,3.424407814E0,7.438815214E0
7.686742208E0,-5.577667782E-1,6.894714516E0,3.330702674E0,7.677354514E0
7.696743208E0,-5.355610996E-1,6.484254595E0,3.454037994E0,7.366326208E0
7.706743208E0,-7.184584969E-1,5.755557624E0,3.298175783E0,6.672375114E0
7.716744208E0,-6.025511876E-1,5.162386832E0,2.626369296E0,5.823325632E0
7.726744208E0,-3.924066424E-1,5.091800998E0,2.439837270E0,5.659790304E0
7.736744208E0,-5.805612713E-2,5.100145560E0,2.510945259E0,5.685041894E0
7.746745208E0,6.710329002E-1,5.021419233E0,2.279475042E0,5.555262616E0
7.756745208E0,1.633090494E0,4.750277996E0,1.843574470E0,5.350784282E0
7.766746208E0,2.392549667E0,4.122834334E0,1.346175370E0,4.953205526E0
7.776746208E0,2.883822494E0,3.564522303E0,6.924005266E-1,4.636989316E0
7.786746208E0,3.076353471E0,3.185344986E0,4.402356970E-1,4.450188853E0
7.796747208E0,3.172630216E0,2.381145843E0,-1.289286493E0,4.171054743E0
7.806747208E0,3.516792651E0,1.205936773E0,-4.518173940E0,5.851154570E0
7.816748208E0,4.178701264E0,-1.416624232E0,-7.961013347E0,9.101983409E0
7.826748208E0,4.665756201E0,-6.524536064E0,-1.077020637E1,1.342893134E1
7.836749208E0,5.419804069E0,-1.053143531E1,-9.586153382E0,1.523744541E1
7.846749208E0,6.099744033E0,-9.771352243E0,-7.399290050E0,1.369071566E1
7.856749208E0,4.198987886E0,-6.101605201E0,-5.689241427E0,9.339622761E0
7.866750208E0,1.247725946E0,-2.724272152E0,-5.406999836E0,6.181757519E0
7.876750208E0,-1.022289470E0,-8.287375689E-2,-5.090246809E0,5.192548160E0
7.886751208E0,-2.181622180E0,1.979480134E0,-3.326576002E0,4.443413647E0
7.896751208E0,-2.196361257E0,3.253962062E0,-9.663465267E-1,4.043030730E0
7.906751208E0,-5.332014558E-1,3.255800427E0,1.136532077E-1,3.301129695E0
7.916752208E0,9.020309553E-1,6.469482189E-1,5.829980984E-1,1.253829584E0
7.926752208E0,1.447105475E0,-2.999695305E0,1.995340122E0,3.882482244E0
7.936753208E0,2.647800511E-1,-5.359049744E0,3.207032894E0,6.250966535E0
7.946753208E0,-1.570204859E0,-6.802636072E0,2.806061250E0,7.524319276E0
7.956753208E0,-2.208429617E0,-7.722471507E0,1.914494179E0,8.257058526E0
7.966754208E0,-2.541929070E0,-6.947059375E0,1.870236604E0,7.630257028E0
7.976754208E0,-3.933489505E0,-4.036189708E0,3.302008048E0,6.531954087E0
7.986755208E0,-4.157913535E0,-1.648003818E0,6.582913788E-1,4.520786335E0
7.996755208E0,-2.968067423E0,1.419002295E-2,-1.990686762E0,3.573857771E0
8.006755208E0,-1.352808305E0,1.668183144E0,3.047582831E0,3.728362432E0
8.016756208E0,2.821237698E-1,1.494324372E0,7.102715764E0,7.263688483E0
8.026756208E0,1.489022117E0,-3.962307215E-2,7.262944676E0,7.414116415E0
8.036757208E0,2.747965946E0,-2.089326512E0,6.269706219E0,7.157221402E0
8.046757208E0,4.064427082E0,-3.728172421E0,4.686770217E0,7.237724240E0
8.056757208E0,4.728607338E0,-4.074158018E0,3.593664826E0,7.202285595E0
8.066758208E0,4.677601783E0,-3.430482486E0,2.673461602E0,6.387140633E0
8.076758208E0,4.161486184E0,-2.007893509E0,1.763207999E0,4.945554171E0
8.086759208E0,3.785523374E0,1.404892963E-1,4.158849674E-1,3.810890285E0
8.096759208E0,3.185412229E0,1.580983617E0,-4.901358354E-1,3.589790162E0
8.106760208E0,2.338650618E0,1.811915306E0,-6.800773734E-1,3.035593685E0
8.116760208E0,1.601912263E0,1.841874685E0,-7.475635976E-1,2.552934897E0
8.126760208E0,3.988783407E-1,1.492676627E0,-9.038187414E-1,1.789993229E0
8.136761208E0,-5.784945729E-1,1.432390664E0,-6.352777612E-1,1.670322370E0
8.146761208E0,-1.896287119E-1,2.041389284E0,-2.711500078E-1,2.068030847E0
8.156762208E0,-1.433383521E-1,2.585255769E0,9.249786454E-1,2.749487001E0
8.166762208E0,-9.882390869E-1,3.027643826E0,2.080824661E0,3.804349471E0
8.176762208E0,-2.506700473E0,2.989962614E0,2.909027209E0,4.866812407E0
8.186763208E0,-3.705406579E0,2.905378547E0,2.826304311E0,5.491744575E0
8.196763208E0,-4.120512697E0,2.952370280E0,1.734728551E0,5.357648580E0
8.206764208E0,-4.391359819E0,3.164759279E0,2.256364506E-1,5.417624402E0
8.216764208E0,-4.525571545E0,3.248985497E0,-7.668974161E-1,5.623596377E0
8.226764208E0,-4.460016949E0,3.226171415E0,-1.047685974E0,5.603354271E0
8.236765208E0,-4.209137483E0,3.052751770E0,-1.385155687E0,5.380965341E0
8.246765208E0,-4.139983048E0,2.664587867E0,-1.510091974E0,5.149744257E0
8.256766208E0,-3.945086288E0,2.463027912E0,-1.501094863E0,4.887074595E0
8.266766208E0,-3.850480385E0,2.088276937E0,-1.544671823E0,4.644686297E0
8.276766208E0,-3.522984560E0,1.928623391E0,-2.036657717E0,4.503219188E0
8.286767208E0,-3.143837064E0,2.077001166E0,-2.540922180E0,4.544659597E0
8.296767208E0,-2.765241838E0,2.384779887E0,-3.143927404E0,4.818507762E0
8.306768208E0,-2.347289587E0,2.396187805E0,-3.976545185E0,5.202345241E0
8.316768208E0,-1.837791282E0,1.782263491E0,-4.706532052E0,5.357740559E0
8.326768208E0,-7.259724614E-1,1.104771171E0,-5.021621547E0,5.192710113E0
8.336769208E0,5.801288697E-1,7.207780874E-1,-5.062922770E0,5.146771564E0
8.346769208E0,1.881343683E0,3.440987009E-1,-4.750752205E0,5.121279575E0
8.356770208E0,3.056789272E0,-2.813072062E-1,-4.203811255E0,5.205297635E0
8.366770208E0,4.125410325E0,-9.880630857E-1,-4.265323378E0,6.015668087E0
8.376770208E0,5.378658382E0,-1.840460828E0,-3.617515034E0,6.738225068E0
8.386771208E0,6.402745578E0,-2.850349231E0,-2.446137498E0,7.423155012E0
8.396771208E0,6.864725901E0,-3.744758633E0,-1.174903699E0,7.907469735E0
8.406772208E0,6.289254631E0,-4.299651212E0,-5.420819145E-1,7.637773050E0
8.416772208E0,4.879510525E0,-4.798057349E0,-1.141058992E0,6.937794528E0
8.426772208E0,3.268074902E0,-5.301252941E0,-2.594366900E0,6.746431347E0
8.436773208E0,2.083467894E0,-5.307717038E0,-3.984487458E0,6.956208660E0
8.446773208E0,1.851051890E0,-4.772734812E0,-4.683555418E0,6.938377479E0
8.456774208E0,2.085186099E0,-4.587192135E0,-4.284254324E0,6.614012992E0
8.466774208E0,1.800600359E0,-5.221595737E0,-3.253560358E0,6.410372743E0
8.476774208E0,9.235168415E-1,-5.188068972E0,-2.243757325E0,5.727424373E0
8.486775208E0,-2.032170564E-1,-4.245595458E0,-1.247207590E0,4.429661921E0
8.496775208E0,-1.282656043E0,-3.331693193E0,-5.333303138E-1,3.609685205E0
8.506776208E0,-2.209763660E0,-2.746399185E0,5.298735130E-1,3.564621979E0
8.516776208E0,-2.759865030E0,-1.934509199E0,1.706872416E0,3.777908716E0
8.526776208E0,-2.887701829E0,-1.448237203E0,2.380286887E0,4.012727067E0
8.536777208E0,-2.520034464E0,-1.433583496E0,3.155659257E0,4.285314538E0
8.546777208E0,-1.988202133E0,-2.034449809E0,4.013320663E0,4.919215028E0
8.556778208E0,-1.878670920E0,-3.049260982E0,4.954770915E0,6.113685614E0
8.566778208E0,-2.250463204E0,-3.951971092E0,5.710318301E0,7.300027071E0
8.576778208E0,-2.551469680E0,-4.213096633E0,6.656501874E0,8.280652025E0
8.586779167E0,-2.725440718E0,-3.634505289E0,6.837206565E0,8.208839712E0
8.596779167E0,-2.836491622E0,-3.156866122E0,5.464432942E0,6.918924470E0
8.606780167E0,-2.969044785E0,-2.482935927E0,3.608127329E0,5.291387396E0
8.616780167E0,-3.253291094E0,-1.477256350E0,2.780209540E0,4.527223691E0
8.626780167E0,-3.561920292E0,-1.338369775E0,2.762564397E0,4.702156088E0
8.636781167E0,-3.646982662E0,-1.305058773E0,3.057371070E0,4.934691358E0
8.646781167E0,-3.552551883E0,-6.022252053E-1,3.338280666E0,4.911966804E0
8.656782167E0,-3.280879427E0,5.868557990E-1,2.690799766E0,4.283570114E0
8.666782167E0,-2.815633727E0,1.629989131E0,1.440255754E0,3.557948073E0
8.676782167E0,-2.705544397E0,2.225645574E0,3.789475214E-1,3.523786306E0
8.686783167E0,-2.419294539E0,2.517808721E0,-1.285883998E0,3.721000468E0
8.696783167E0,-2.239082768E0,2.290062595E0,-4.349235016E0,5.401270550E0
8.706784167E0,-1.603992995E0,2.326058639E0,-6.199074778E0,6.812625810E0
8.716784167E0,-8.863364437E-1,2.607781582E0,-5.114413351E0,5.808901875E0
8.726784167E0,-3.695969465E-1,3.066853500E0,-3.249781888E0,4.483667540E0
8.736785167E0,-3.101752022E-1,3.874997175E0,-1.530093545E0,4.177678544E0
8.746785167E0,-4.521496913E-1,4.585322780E0,7.062372315E-1,4.661372691E0
8.756786167E0,-5.767064944E-1,5.252781862E0,3.057122271E0,6.104940970E0
8.766786167E0,-4.478332767E-1,6.044405399E0,4.454101321E0,7.521596230E0
8.776786167E0,6.410214812E-2,6.715704347E0,4.470197536E0,8.067679962E0
8.786787167E0,4.346279249E-1,6.676853693E0,3.906336497E0,7.747821726E0
8.796787167E0,7.035732400E-1,6.315410981E0,3.289172240E0,7.155283725E0
8.806787167E0,7.267287987E-1,5.708401583E0,2.846941473E0,6.420207095E0
8.816788167E0,7.367851326E-1,5.670375386E0,2.128755018E0,6.101443049E0
8.826788167E0,1.133912817E0,5.510576829E0,1.775806410E0,5.899635893E0
8.836789167E0,2.001239085E0,5.112949208E0,1.850467022E0,5.794086268E0
8.846789167E0,2.680078603E0,4.382150162E0,2.055915961E0,5.532888197E0
8.856789167E0,3.165439018E0,3.302540730E0,1.675272893E0,4.871685408E0
8.866790167E0,3.664013262E0,2.433973682E0,-3.009117508E-1,4.409055336E0
8.876790167E0,3.700591982E0,1.006254358E0,-3.215951067E0,5.004924586E0
8.886791167E0,2.842756914E0,-1.520515805E0,-5.740012801E0,6.583386829E0
8.896791167E0,2.586383112E0,-4.945686681E0,-9.100487158E0,1.067558246E1
8.906791167E0,3.513913190E0,-7.310212982E0,-1.053335788E1,1.329430058E1
8.916792167E0,4.175236496E0,-6.785504900E0,-7.346012560E0,1.083695423E1
8.926792167E0,3.519892845E0,-4.467030684E0,-4.555693476E0,7.286861589E0
8.936793167E0,2.255254705E0,-2.081852601E0,-3.358995012E0,4.550069398E0
8.946793167E0,1.511689433E0,1.593190849E-1,-2.751542981E0,3.143497461E0
8.956793167E0,1.691603581E0,1.864362491E0,-1.545871671E0,2.954164755E0
8.966794167E0,2.163325658E0,2.542144248E0,-4.804063609E-1,3.372427249E0
8.976794167E0,3.041370457E0,2.904225476E0,-3.879193430E-1,4.223143532E0
8.986795167E0,3.961869551E0,1.820594328E0,-3.693611576E-1,4.375774412E0
8.996795167E0,4.535517074E0,-1.815191501E0,2.725582220E0,5.594160684E0
9.006795167E0,2.910212732E0,-6.186654122E0,5.873873109E0,9.013679197E0
9.016796167E0,3.018683553E-2,-8.385404844E0,5.377583663E0,9.961643022E0
9.026796167E0,-1.590443827E0,-8.706174908E0,4.604028608E0,9.976175245E0
9.036797167E0,-2.876879510E0,-7.260025746E0,3.577269233E0,8.589602128E0
9.046797167E0,-3.425979837E0,-4.309684449E0,4.913193119E-1,5.527396545E0
9.056797167E0,-2.524926829E0,-1.166859831E0,-4.208301916E0,5.044464528E0
9.066798167E0,-1.484054030E0,5.260102576E-1,-7.313756980E0,7.481319691E0
9.076798167E0,-1.582829875E0,1.715138624E0,2.109773787E0,3.146139912E0
9.086798167E0,1.035196906E-1,1.447371231E0,1.054912548E1,1.064845755E1
9.096799167E0,1.026093669E0,-9.378407657E-1,1.094273197E1,1.103067525E1
9.106799167E0,2.316005521E0,-2.528478720E0,8.858841616E0,9.499271603E0
9.116800167E0,2.925732412E0,-2.774125512E0,5.246756891E0,6.616958544E0
9.126800167E0,3.136793216E0,-2.658686857E0,2.332184182E0,4.727279402E0
9.136800167E0,3.921911725E0,-2.682199681E0,1.501455052E0,4.982966384E0
9.146801167E0,4.852230341E0,-1.994642549E0,1.190866159E0,5.379674747E0
9.156801167E0,5.129167045E0,-7.207745790E-1,6.343129706E-1,5.218258667E0
9.166802167E0,4.774122941E0,5.966422838E-1,7.396224940E-1,4.867779094E0
9.176802167E0,3.751425043E0,1.880703120E0,1.222279741E0,4.370835372E0
9.186802167E0,2.542790658E0,2.668484452E0,1.164060184E0,3.865440429E0
9.196803167E0,1.426570930E0,2.959995634E0,1.066756668E0,3.454656070E0
9.206803167E0,3.419603741E-1,3.006333064E0,1.235446501E0,3.268226345E0
9.216804167E0,-7.190411720E-1,3.063812948E0,1.336431423E0,3.419066969E0
9.226804167E0,-1.844464709E0,3.007851001E0,1.393557551E0,3.793576196E0
9.236804167E0,-2.979698412E0,2.736341974E0,1.274425210E0,4.241500871E0
9.246805167E0,-2.596861030E0,3.400196248E0,1.343462700E0,4.484407849E0
9.256805167E0,-2.087308930E0,4.048203982E0,1.773199137E0,4.887642502E0
9.266805167E0,-2.325808671E0,4.592387386E0,2.226148435E0,5.608488632E0
9.276806167E0,-3.184559998E0,4.535469419E0,2.400436392E0,6.039370837E0
9.286806167E0,-3.644493795E0,4.239503244E0,1.848235871E0,5.888267878E0
9.296807167E0,-4.106603633E0,3.726472051E0,1.267969153E0,5.688456128E0
9.306807167E0,-4.434056481E0,3.069636775E0,4.253013235E-1,5.409658771E0
9.316807167E0,-4.657013737E0,2.491243066E0,-4.448854760E-1,5.300187926E0
9.326808167E0,-4.510144836E0,2.158540004E0,-1.044273028E0,5.107955320E0
9.336808167E0,-4.122694294E0,1.782741793E0,-1.306029264E0,4.677658493E0
9.346809167E0,-3.429666507E0,1.518779767E0,-1.176963235E0,3.931227135E0
9.356809167E0,-2.887140789E0,1.293509937E0,-1.130512369E0,3.359584514E0
9.366809167E0,-2.234224317E0,1.223771365E0,-1.531670539E0,2.972438274E0
9.376810167E0,-1.703751757E0,1.077288673E0,-2.181697901E0,2.970374836E0
9.386810167E0,-1.223534845E0,8.106386822E-1,-3.090328317E0,3.421155024E0
9.396810167E0,-6.863917816E-1,5.852770507E-1,-3.892280668E0,3.995438862E0
9.406811167E0,1.643009126E-2,4.295311993E-1,-4.698658776E0,4.718279485E0
9.416811167E0,6.597109365E-1,-2.196752143E-1,-5.199426604E0,5.245713748E0
9.426812167E0,1.371130263E0,-1.185402521E0,-4.986247646E0,5.305454073E0
9.436812167E0,2.412366466E0,-1.910973571E0,-4.483132161E0,5.437812605E0
9.446812167E0,3.518922500E0,-2.815240794E0,-3.808184550E0,5.900056428E0
9.456813167E0,4.838489676E0,-3.700011061E0,-3.227265429E0,6.893207261E0
9.466813167E0,5.664439877E0,-4.056380144E0,-2.876547680E0,7.537547715E0
9.476814167E0,6.248652150E0,-3.475532359E0,-2.629213967E0,7.618250780E0
9.486814167E0,6.204881648E0,-2.865675368E0,-2.089044676E0,7.146800629E0
9.496814167E0,5.904354644E0,-2.466912802E0,-1.441002297E0,6.559233961E0
9.506815167E0,5.508838452E0,-2.172749323E0,-1.279980065E0,6.058588093E0
9.516815167E0,4.997713451E0,-1.846675249E0,-1.676655321E0,5.585563739E0
9.526815167E0,4.583107270E0,-1.908531189E0,-2.648364183E0,5.626828271E0
9.536816167E0,4.577333145E0,-2.452222842E0,-3.573708279E0,6.303710530E0
9.546816167E0,4.753687508E0,-3.488941779E0,-3.995652716E0,7.122885671E0
9.556817167E0,4.247996032E0,-4.396054841E0,-3.389604017E0,6.990005997E0
9.566817167E0,2.397445833E0,-3.861514665E0,-1.797168628E0,4.887622849E0
9.576817167E0,2.078869352E-1,-3.101785351E0,-9.022844321E-1,3.237036691E0
9.586818167E0,-1.858804421E0,-3.110778953E0,-4.714170709E-1,3.654358169E0
9.596818167E0,-3.221947972E0,-2.902964231E0,3.379509383E-1,4.349984011E0
9.606819167E0,-4.117260476E0,-2.513605158E0,1.288177861E0,4.992939707E0
9.616819167E0,-4.413972757E0,-2.286634372E0,1.820425928E0,5.293940197E0
9.626819167E0,-4.066979099E0,-2.290040960E0,2.389462922E0,5.243485449E0
9.636820167E0,-3.624526430E0,-2.335987796E0,3.022335724E0,5.265789974E0
9.646820167E0,-3.583941199E0,-2.614200656E0,3.815640335E0,5.851306756E0
9.656820167E0,-3.314248610E0,-2.537839528E0,4.678893433E0,6.270320333E0
9.666821167E0,-3.337276991E0,-2.499303453E0,5.581323461E0,6.966714221E0
9.676821167E0,-3.422939870E0,-2.502305998E0,5.611896213E0,7.033593091E0
9.686822167E0,-3.380465111E0,-1.871738754E0,5.247083166E0,6.516351132E0
9.696822167E0,-3.710773738E0,-2.309873546E0,5.190090355E0,6.785454696E0
9.706822167E0,-3.932158386E0,-2.431776298E0,5.534506559E0,7.211530239E0
9.716823167E0,-4.084052092E0,-1.649176769E0,5.055120245E0,6.704737594E0
9.726823167E0,-4.011498378E0,-9.451316589E-1,3.572190342E0,5.453983584E0
9.736824167E0,-3.613500921E0,-4.457028437E-1,2.071624652E0,4.188993748E0
9.746824167E0,-3.057085726E0,1.320184350E-1,1.314509627E0,3.330335954E0
9.756824167E0,-2.411624747E0,8.379445946E-1,1.381642680E0,2.902933268E0
9.766825167E0,-1.925727265E0,1.685186262E0,1.110925293E0,2.789701282E0
9.776825167E0,-1.745890301E0,2.330327107E0,4.747114652E-1,2.950238692E0
9.786825167E0,-1.574402575E0,2.966772557E0,-4.181864315E-1,3.384577192E0
9.796826167E0,-1.395887374E0,3.500446760E0,-1.543851458E0,4.072481603E0
9.806826167E0,-9.773422158E-1,3.980657532E0,-2.085675511E0,4.599007994E0
9.816827167E0,-2.540574270E-1,4.487819290E0,-2.461692992E0,5.124938979E0
9.826827167E0,2.543500802E-1,4.892198691E0,-1.863994117E0,5.241447897E0
9.836827167E0,5.911456087E-1,5.197074854E0,-4.048927867E-1,5.246234682E0
9.846828167E0,7.684194463E-1,5.487523597E0,1.048308703E0,5.639355886E0
9.856828167E0,1.035661760E0,5.855362578E0,1.921582174E0,6.249027465E0
9.866828167E0,9.273605087E-1,6.020735870E0,2.317188413E0,6.517562433E0
9.876829167E0,6.725335881E-1,5.928355125E0,2.383746099E0,6.424946800E0
9.886829167E0,3.448372042E-1,5.861120331E0,2.000416675E0,6.202685798E0
9.896830167E0,1.109129101E-1,5.897256124E0,1.767523245E0,6.157440206E0
9.906830167E0,2.782701623E-1,5.577867756E0,1.799008162E0,5.867407721E0
9.916830167E0,9.179757276E-1,5.260693145E0,1.743002361E0,5.617439722E0
9.926831167E0,1.488616613E0,5.004063528E0,1.554972278E0,5.447437011E0
9.936831167E0,2.166880472E0,4.715570678E0,5.895244682E-1,5.222979696E0
9.946831167E0,2.785220019E0,4.173530279E0,-3.804115912E-1,5.031949773E0
9.956832167E0,3.017547146E0,3.221570241E0,-1.474244449E0,4.653762166E0
9.966832167E0,2.697280527E0,1.604308160E0,-3.375314591E0,4.608890919E0
9.976833167E0,2.337783476E0,-8.363681853E-1,-4.978042248E0,5.562881263E0
9.986833167E0,2.486817309E0,-4.084779485E0,-8.893411524E0,1.009764588E1
9.996833167E0,4.052883801E0,-7.201617908E0,-1.014036067E1,1.308113459E1
1.000683417E1,4.649541872E0,-8.592163559E0,-6.176270052E0,1.155810651E1
1.001683417E1,4.018931943E0,-7.552765428E0,-3.715264692E0,9.327339991E0
1.002683517E1,3.170171169E0,-4.626932151E0,-3.658981733E0,6.696762927E0
1.003683517E1,1.922338512E0,-1.123046644E0,-4.360780928E0,4.896226039E0
1.004683517E1,1.247793481E0,1.564706138E0,-3.070940119E0,3.665510481E0
1.005683617E1,1.120762429E0,3.268174304E0,-6.267829263E-1,3.511399798E0
1.006683617E1,1.204745987E0,4.466226692E0,6.369195132E-1,4.669503209E0
1.007683617E1,1.866850774E0,3.110315854E0,1.240939229E0,3.833944013E0
1.008683717E1,2.500943012E0,-5.459650505E-1,2.902594103E0,3.870122261E0
1.009683717E1,1.038057949E0,-3.994799607E0,4.580284234E0,6.165629885E0
1.010683817E1,-1.160408013E0,-6.005092814E0,4.841912051E0,7.800756295E0
1.011683817E1,-2.140802475E0,-7.574020057E0,4.227050428E0,8.934023191E0
1.012683817E1,-1.761834489E0,-9.364324054E0,7.002509252E-1,9.554317197E0
1.013683917E1,-1.169580248E0,-9.904533105E0,-3.799689131E0,1.067264407E1
1.014683917E1,-2.866793648E0,-7.288715694E0,-1.860437840E0,8.050162187E0
1.015683917E1,-4.452689510E0,-4.032238160E0,-6.940891293E-1,6.047077655E0
1.016684017E1,-4.246439211E0,-4.360894364E-1,-8.848838492E-1,4.359522840E0
1.017684017E1,-2.109394741E0,2.280367911E0,5.307381992E0,6.149628249E0
1.018684117E1,2.217284641E-1,1.510572615E0,9.375169469E0,9.498673366E0
1.019684117E1,2.148486886E0,-8.064076370E-1,9.114643267E0,9.399096290E0
1.020684117E1,3.343507784E0,-2.680720335E0,5.550243756E0,7.012168820E0
1.021684217E1,2.926484949E0,-3.907685450E0,1.938411630E0,5.252785868E0
1.022684217E1,3.115921580E0,-4.480776903E0,1.290854716E0,5.608264869E0
1.023684217E1,4.083400712E0,-3.792883556E0,2.274965669E0,6.019600970E0
1.024684317E1,4.069378212E0,-2.227460550E0,2.123636220E0,5.102082940E0
1.025684317E1,3.743640060E0,-4.890196019E-1,1.885563326E0,4.220110203E0
1.026684317E1,2.827041352E0,9.405252224E-1,1.221686833E0,3.220134969E0
1.027684417E1,1.535012807E0,1.705032297E0,6.052207704E-1,2.372697122E0
1.028684417E1,4.744322607E-1,2.128987591E0,5.603574236E-1,2.252037872E0
1.029684517E1,-2.945610899E-1,2.232363440E0,-8.339061420E-2,2.253256923E0
1.030684517E1,-1.129248201E0,2.289145752E0,-2.271619892E-1,2.562614356E0
1.031684517E1,-1.908804546E0,2.424269058E0,-8.816431761E-3,3.085562022E0
1.032684617E1,-1.738149464E0,3.319580685E0,1.712123581E-1,3.751012285E0
1.033684617E1,-1.336548660E0,4.279658997E0,1.174201595E0,4.634716047E0
1.034684617E1,-1.670655639E0,4.791640030E0,2.623234019E0,5.712465419E0
1.035684717E1,-2.764099876E0,4.784039819E0,4.146207994E0,6.907845239E0
1.036684717E1,-3.664168798E0,4.744927794E0,4.621164458E0,7.569387934E0
1.037684817E1,-4.365317490E0,4.325226349E0,3.395154194E0,7.020730144E0
1.038684817E1,-4.983449169E0,3.687873995E0,1.490372239E0,6.376236322E0
1.039684817E1,-5.484735060E0,3.186858246E0,-8.509569883E-2,6.343943997E0
1.040684917E1,-5.508321558E0,3.074006399E0,-1.145120468E0,6.411117111E0
1.041684917E1,-5.056794888E0,3.229783241E0,-1.492024662E0,6.182945246E0
1.042684917E1,-4.471725413E0,3.367293380E0,-1.491774986E0,5.793132615E0
1.043685017E1,-3.972072065E0,3.234983754E0,-1.237920458E0,5.270191974E0
1.044685017E1,-3.690843211E0,2.815959417E0,-7.161593717E-1,4.697322141E0
1.045685017E1,-3.428849359E0,2.432366282E0,-6.642377778E-1,4.256127992E0
1.046685117E1,-3.210552041E0,2.049061416E0,-1.158625708E0,3.981043911E0
1.047685117E1,-2.702184002E0,1.719470826E0,-1.867690727E0,3.707647091E0
1.048685217E1,-2.007506716E0,1.179654123E0,-2.580088584E0,3.475417122E0
1.049685217E1,-1.161190370E0,1.411944705E-1,-3.146675010E0,3.357061598E0
1.050685217E1,-2.634851852E-1,-9.909352380E-1,-3.093268881E0,3.258786501E0
1.051685317E1,9.621201593E-1,-1.942564908E0,-2.829726686E0,3.564629958E0
1.052685317E1,2.517156757E0,-3.007193774E0,-2.841019413E0,4.842590612E0
1.053685317E1,4.059665987E0,-3.926459690E0,-3.042044349E0,6.414983043E0
1.054685417E1,5.390766796E0,-4.354546627E0,-3.458674251E0,7.744990029E0
1.055685417E1,6.405469796E0,-4.061018155E0,-3.854092795E0,8.507405188E0
1.056685517E1,7.150909685E0,-3.717453305E0,-3.754605344E0,8.891120834E0
1.057685517E1,7.786708433E0,-3.312058827E0,-3.466078288E0,9.144192725E0
1.058685554E1,7.740335920E0,-3.013411703E0,-3.368226596E0,8.963169119E0
1.059685654E1,7.393712391E0,-2.105663048E0,-3.575798074E0,8.478627935E0
1.060685654E1,6.487131425E0,-1.540419143E0,-4.233461316E0,7.897971890E0
1.061685654E1,5.773099855E0,-1.469777176E0,-5.306612499E0,7.978036293E0
1.062685754E1,5.420915040E0,-2.375030240E0,-6.000447786E0,8.428075827E0
1.063685754E1,4.841220033E0,-3.910722494E0,-5.365067698E0,8.216758074E0
1.064685854E1,2.823773928E0,-5.104539742E0,-3.741122834E0,6.930081186E0
1.065685854E1,-4.487913430E-2,-4.756642690E0,-2.241774534E0,5.258632606E0
1.066685854E1,-1.931234758E0,-3.508597194E0,-1.234916743E0,4.191054918E0
1.067685954E1,-3.537989978E0,-2.856834962E0,-9.363456327E-1,4.642803273E0
1.068685954E1,-4.433837795E0,-2.332665408E0,-3.305544298E-2,5.010123567E0
1.069685954E1,-4.644255112E0,-2.106055981E0,1.079465591E0,5.212468063E0
1.070686054E1,-4.058735402E0,-2.043259224E0,2.400217706E0,5.138996629E0
1.071686054E1,-3.473107226E0,-2.522712196E0,3.690181307E0,5.660741003E0
1.072686054E1,-2.847213369E0,-2.959154220E0,4.817529747E0,6.330229895E0
1.073686154E1,-2.634883135E0,-3.396614243E0,5.697145693E0,7.137020842E0
1.074686154E1,-2.585783480E0,-3.318336398E0,6.005610293E0,7.332461227E0
1.075686254E1,-2.978478975E0,-2.874541501E0,6.340449927E0,7.572029525E0
1.076686254E1,-3.267776401E0,-2.202603452E0,6.188905885E0,7.337055311E0
1.077686254E1,-3.368733257E0,-1.445874344E0,5.467425547E0,6.582678671E0
1.078686354E1,-3.756609185E0,-1.514858624E0,5.233107736E0,6.617577033E0
1.079686354E1,-3.970361170E0,-1.952089437E0,5.659697785E0,7.183773382E0
1.080686354E1,-4.018910016E0,-1.181739240E0,5.393833076E0,6.829464152E0
1.081686454E1,-3.972716428E0,2.230011106E-2,4.090702130E0,5.702351886E0
1.082686454E1,-3.861602081E0,1.055170410E0,2.498570212E0,4.718920251E0
1.083686454E1,-3.687881304E0,1.685605507E0,1.192161317E0,4.226462238E0
1.084686554E1,-3.110367894E0,2.063428609E0,-5.120406747E-3,3.732579843E0
1.085686554E1,-2.477006558E0,2.454712002E0,-6.190704489E-1,3.541810373E0
1.086686554E1,-2.017186489E0,2.630045441E0,-2.101999767E0,3.924867307E0
1.087686654E1,-1.172742422E0,2.914125981E0,-4.766542611E0,5.708536020E0
1.088686654E1,3.178026026E-1,3.086048740E0,-8.167989578E0,8.737319330E0
1.089686754E1,8.978592592E-1,2.950272884E0,-6.214106215E0,6.937245663E0
1.090686754E1,6.653534997E-1,3.330119707E0,-6.977516790E-1,3.466878992E0
1.091686754E1,4.505677271E-1,4.212380349E0,1.805857590E0,4.605244958E0
1.092686854E1,2.951230073E-1,5.150832734E0,2.711268529E0,5.828306141E0
1.093686854E1,8.969687283E-2,5.715236394E0,2.862067051E0,6.392448699E0
1.094686854E1,6.600921750E-2,6.153282893E0,2.856194108E0,6.784179564E0
1.095686954E1,1.993444455E-1,6.204141390E0,2.610649642E0,6.733988428E0
1.096686954E1,3.291079018E-1,5.847409780E0,2.189712095E0,6.252627624E0
1.097686954E1,4.264497167E-1,5.360639602E0,1.947394123E0,5.719323402E0
1.098687054E1,8.747917011E-1,5.132108780E0,1.721553605E0,5.483388356E0
1.099687054E1,9.898131573E-1,5.032193313E0,1.478804108E0,5.337561354E0
1.100687154E1,1.389613312E0,4.838960377E0,1.213236583E0,5.178658677E0
1.101687154E1,1.697709536E0,4.479316269E0,5.999640870E-1,4.827675301E0
1.102687154E1,1.893758783E0,3.610200167E0,3.496870311E-1,4.091717072E0
1.103687254E1,2.248459656E0,2.476922066E0,4.635707653E-1,3.377219507E0
1.104687254E1,2.255324579E0,1.306389014E0,-4.408366446E-1,2.643383847E0
1.105687254E1,1.916142802E0,-2.886536479E-2,-2.137739704E0,2.870952366E0
1.106687354E1,1.746778785E0,-2.274685003E0,-4.280799204E0,5.152734207E0
1.107687354E1,2.210618815E0,-5.929934458E0,-7.580961871E0,9.875319798E0
1.108687354E1,3.152681855E0,-8.861080515E0,-1.115954205E1,1.459429784E1
1.109687454E1,3.701640680E0,-9.307352293E0,-8.734085423E0,1.328958986E1
1.110687454E1,3.216121221E0,-6.977339766E0,-5.676354164E0,9.552366331E0
1.111687554E1,2.223252894E0,-2.907972956E0,-5.074195032E0,6.256725611E0
1.112687554E1,1.179354746E0,7.814704317E-1,-4.863835894E0,5.065419357E0
1.113687554E1,1.136164872E0,2.670225168E0,-2.262684470E0,3.679770927E0
1.114687654E1,1.343313012E0,3.081328867E0,2.773661828E-1,3.372834036E0
1.115687654E1,1.318134316E0,1.279958430E0,6.546966568E-1,1.950486957E0
1.116687654E1,2.042763965E0,-2.283140076E0,1.367680406E0,3.355020554E0
1.117687754E1,1.712575205E0,-4.129493728E0,4.299972224E0,6.202853651E0
1.118687754E1,-2.195512533E-1,-4.568665817E0,5.937563320E0,7.495036243E0
1.119687754E1,-1.528988129E0,-5.248802832E0,5.921037920E0,8.058934539E0
1.120687854E1,-1.847336861E0,-5.572429261E0,3.941023350E0,7.070805215E0
1.121687854E1,-1.636889723E0,-4.904555612E0,-6.519962664E-1,5.211446329E0
1.122687854E1,-1.958816951E0,-3.406805356E0,-5.176538848E0,6.499218493E0
1.123687954E1,-2.602974002E0,-2.027479928E0,-6.157932014E0,6.986148811E0
1.124687954E1,-2.852472355E0,-9.579908556E-1,-2.971556164E0,4.229005917E0
1.125688054E1,-9.248421130E-1,1.551942251E0,5.070449306E0,5.382686490E0
1.126688054E1,1.890962645E0,1.854491807E0,9.330853422E0,9.699469324E0
1.127688054E1,3.622536038E0,4.137805545E-1,8.933926882E0,9.649302111E0
1.128688154E1,4.127746873E0,-9.495509845E-1,5.338502043E0,6.814656659E0
1.129688154E1,3.956307971E0,-1.868684168E0,2.361745366E0,4.972141838E0
1.130688154E1,3.593849598E0,-2.655964394E0,1.966265427E0,4.882223010E0
1.131688254E1,3.965929272E0,-2.853216121E0,2.885895624E0,5.674313243E0
1.132688254E1,3.610974046E0,-2.102820132E0,3.805342219E0,5.651691382E0
1.133688254E1,2.734099859E0,-7.962235415E-1,3.443819400E0,4.468687283E0
1.134688354E1,1.832769985E0,1.487824023E-1,2.434850764E0,3.051176866E0
1.135688354E1,7.962285116E-1,4.845336181E-1,1.611070465E0,1.861263203E0
1.136688354E1,-3.369437554E-1,5.631722367E-1,1.337237024E0,1.489596227E0
1.137688454E1,-1.459021808E0,6.661814654E-1,1.060164517E0,1.922626117E0
1.138688454E1,-2.142437941E0,9.347855955E-1,6.248182619E-1,2.419558287E0
1.139688454E1,-2.457775066E0,1.358411107E0,-1.297672387E-1,2.811188102E0
1.140688554E1,-2.263004312E0,2.259659997E0,-6.592478371E-1,3.265250301E0
1.141688554E1,-1.804336437E0,3.115754349E0,-5.056859207E-1,3.635831871E0
1.142688654E1,-2.083804402E0,3.408277684E0,1.204812938E-1,3.996637750E0
1.143688654E1,-2.916595553E0,3.257866833E0,2.069972813E-1,4.377564824E0
1.144688654E1,-3.516262017E0,3.326155295E0,7.335916758E-3,4.840192293E0
1.145688754E1,-3.908242397E0,3.388881885E0,-1.929680751E-1,5.176496474E0
1.146688754E1,-4.364355039E0,3.336615379E0,-6.846458761E-1,5.536184342E0
1.147688754E1,-4.307897833E0,3.564208893E0,-1.231524773E0,5.725226811E0
1.148688854E1,-4.341526047E0,3.660830623E0,-1.526290516E0,5.880483994E0
1.149688854E1,-4.282194934E0,3.520997384E0,-1.954993749E0,5.878487611E0
1.150688854E1,-3.931930052E0,3.263912269E0,-2.250873386E0,5.583872154E0
1.151688954E1,-3.492476420E0,2.918686810E0,-2.244811578E0,5.074968301E0
1.152688954E1,-3.026423512E0,2.391786021E0,-1.943600596E0,4.319428541E0
1.153688954E1,-2.530199848E0,2.012796984E0,-1.823474082E0,3.711916041E0
1.154689054E1,-2.139634494E0,1.729741461E0,-2.198007540E0,3.521544893E0
1.155689054E1,-1.624846797E0,1.403179729E0,-2.840510121E0,3.560553077E0
1.156689054E1,-8.271863025E-1,8.290316838E-1,-3.315948980E0,3.516681440E0
1.157689154E1,1.872699451E-1,2.452088356E-1,-3.420805344E0,3.434691632E0
1.158689104E1,1.254676531E0,-2.185999113E-1,-3.348920259E0,3.582913064E0
1.159689104E1,2.452276052E0,-8.785529226E-1,-2.981593494E0,3.959218716E0
1.160689204E1,3.777254241E0,-1.739712133E0,-2.509248397E0,4.857013015E0
1.161689204E1,5.090967185E0,-2.575359356E0,-2.073824374E0,6.070516472E0
1.162689304E1,5.978400275E0,-3.183655141E0,-1.610485743E0,6.962082607E0
1.163689304E1,6.251396248E0,-3.573570285E0,-1.529898248E0,7.361450148E0
1.164689304E1,5.988185005E0,-3.626936653E0,-2.011493494E0,7.284170180E0
1.165689404E1,5.559310448E0,-3.570544351E0,-3.122621904E0,7.307905800E0
1.166689404E1,4.919397014E0,-3.525343620E0,-4.471152971E0,7.524607864E0
1.167689404E1,4.519456527E0,-3.383951513E0,-5.701204830E0,8.023736764E0
1.168689504E1,4.606169566E0,-3.990839288E0,-6.669376273E0,9.034609907E0
1.169689504E1,4.583012545E0,-5.481051314E0,-6.684954425E0,9.784403056E0
1.170689504E1,3.751620048E0,-6.169641649E0,-4.657829424E0,8.592700739E0
1.171689604E1,2.036383190E0,-5.278037156E0,-1.815376858E0,5.941390902E0
1.172689604E1,1.513583931E-1,-4.675406154E0,-4.342715371E-1,4.697970182E0
1.173689604E1,-1.410831103E0,-4.307888770E0,5.997951025E-1,4.572538050E0
1.174689704E1,-2.581701247E0,-3.751282371E0,1.786094586E0,4.891567706E0
1.175689704E1,-3.054542187E0,-3.250691130E0,2.814800498E0,5.274497383E0
1.176689704E1,-2.789157827E0,-2.441689083E0,3.903543282E0,5.383205097E0
1.177689804E1,-2.282179379E0,-1.747547987E0,4.812992308E0,5.605993367E0
1.178689804E1,-2.338324636E0,-2.126829969E0,5.527308637E0,6.367284239E0
1.179689804E1,-3.090702538E0,-3.352002912E0,5.973112637E0,7.514415498E0
1.180689904E1,-3.431615092E0,-3.802157825E0,6.734785566E0,8.461071025E0
1.181689904E1,-3.554973508E0,-2.788673385E0,6.919012036E0,8.263610799E0
1.182690004E1,-3.556832045E0,-2.773575874E0,5.567776632E0,7.165466764E0
1.183690004E1,-3.746202310E0,-3.414868666E0,4.783637531E0,6.969831259E0
1.184690004E1,-3.545986337E0,-2.602959384E0,5.927442960E0,7.381327570E0
1.185690104E1,-3.422128569E0,-1.351880352E0,6.096745580E0,7.121014752E0
1.186690104E1,-2.907105522E0,-1.489730215E-1,4.471612562E0,5.335613777E0
1.187690104E1,-2.445747343E0,8.096680444E-1,2.353570958E0,3.489489743E0
1.188690204E1,-2.151678004E0,1.515330495E0,3.476368145E-1,2.654580211E0
1.189690204E1,-2.033552553E0,2.046228440E0,-1.414947835E0,3.213170427E0
1.190690204E1,-1.763857040E0,2.474828762E0,-3.917084264E0,4.957773512E0
1.191690304E1,-1.348692742E0,2.303510606E0,-6.794739407E0,7.300247725E0
1.192690304E1,2.378498223E-1,2.629208704E0,-7.373126099E0,7.831494073E0
1.193690304E1,9.376887381E-1,3.323936276E0,-4.895390686E0,5.991048531E0
1.194690404E1,3.242146593E-1,3.651610733E0,-3.946438602E-1,3.687156068E0
1.195690404E1,-3.214585742E-1,3.984469332E0,3.444245077E0,5.276566651E0
1.196690404E1,-7.162204751E-1,4.779474313E0,5.151450784E0,7.063553756E0
1.197690504E1,-8.784763241E-1,5.668196713E0,4.874396843E0,7.527278340E0
1.198690504E1,-1.069465683E0,6.147653194E0,3.989885023E0,7.406522743E0
1.199690504E1,-1.255007484E0,6.010762859E0,2.971971316E0,6.821797962E0
1.200690604E1,-1.315418285E0,5.562566763E0,2.338900440E0,6.175996237E0
1.201690604E1,-1.296110194E0,5.129630730E0,2.170178887E0,5.718626536E0
1.202690604E1,-1.052107639E0,5.047228258E0,2.270099470E0,5.633364463E0
1.203690704E1,-5.742263979E-1,4.959694855E0,2.588320295E0,5.623851968E0
1.204690704E1,-4.560682029E-2,4.703455832E0,2.369226294E0,5.266669723E0
1.205690704E1,5.300498065E-1,4.530956538E0,1.801875637E0,4.904821685E0
1.206690804E1,9.870374840E-1,4.165099179E0,1.310895463E0,4.476688629E0
1.207690804E1,1.331588175E0,3.580807384E0,1.148131199E0,3.989174581E0
1.208690804E1,1.633941557E0,2.943290724E0,9.323934265E-1,3.493147978E0
1.209690904E1,1.969534313E0,2.133543157E0,6.838564289E-1,2.983074157E0
1.210690904E1,2.341668074E0,1.351014379E0,-3.513849894E-1,2.726191599E0
1.211690904E1,2.686053288E0,2.711505926E-1,-3.171274831E0,4.164779582E0
1.212691004E1,2.214546682E0,-3.189174913E0,-7.120660869E0,8.110417057E0
1.213691004E1,2.781694441E0,-7.900034489E0,-1.223095076E1,1.482378243E1
1.214691104E1,5.473234756E0,-9.788550659E0,-1.432535441E1,1.819307016E1
1.215691104E1,7.665924253E0,-8.003665861E0,-8.689822000E0,1.408325489E1
1.216691104E1,8.184445982E0,-3.039257566E0,-3.861117640E0,9.546228156E0
1.217691204E1,6.924708393E0,1.924851937E0,-1.756683969E0,7.398822871E0
1.218691204E1,4.114795290E0,4.548079525E0,-2.054442608E-1,6.136674587E0
1.219691204E1,1.744326171E0,5.957080157E0,7.394295359E-1,6.251098609E0
1.220691304E1,1.563424428E0,6.737452481E0,1.694692812E0,7.121063517E0
1.221691304E1,2.913379292E0,6.180137985E0,2.522043275E0,7.283034168E0
1.222691304E1,3.629415580E0,3.500642642E0,3.093960607E0,5.916058535E0
1.223691404E1,3.059173767E0,-1.354565978E0,4.252627319E0,5.410936355E0
1.224691404E1,1.957120089E0,-6.983512087E0,5.195137671E0,8.921278806E0
1.225691404E1,1.686560943E0,-1.028214863E1,6.242609053E0,1.214649069E1
1.226691504E1,9.706550476E-1,-1.097665284E1,6.978853025E0,1.304352208E1
1.227691504E1,-5.091501036E-1,-9.950810308E0,6.506999094E0,1.190037381E1
1.228691504E1,-1.318034036E0,-7.434835859E0,3.322316598E0,8.249350614E0
1.229691604E1,-2.567664128E0,-3.909954754E0,-6.429643940E0,7.951161327E0
1.230691604E1,-7.573987312E0,-2.558451548E0,-2.450650643E1,2.577750600E1
1.231691604E1,-3.071339484E0,-1.518100321E0,-6.350535790E0,7.215750801E0
1.232691704E1,4.262964027E0,-2.075213673E0,1.569106635E1,1.639173381E1
1.233691704E1,4.712179293E0,-2.068254901E0,1.456545161E1,1.544780543E1
1.234691704E1,3.346442502E0,-1.243236161E0,7.502256010E0,8.308318651E0
1.235691804E1,1.268374803E0,-1.563438461E0,2.369014624E0,3.108913758E0
1.236691804E1,9.416189441E-1,-2.475653805E0,1.675666995E0,3.134225243E0
1.237691804E1,2.281190322E0,-2.171555906E0,2.547721907E0,4.050971643E0
1.238691904E1,2.333621428E0,-9.869661480E-1,2.636515385E0,3.656652092E0
1.239691904E1,1.416224282E0,1.405167782E-1,2.313455551E0,2.716157721E0
1.240691904E1,4.101248753E-1,1.124542946E0,1.813136204E0,2.172616429E0
1.241692004E1,-7.482983002E-1,1.780042718E0,1.118528500E0,2.231503625E0
1.242692004E1,-1.892299318E0,2.509398086E0,2.700349438E-1,3.154487967E0
1.243692004E1,-2.804095416E0,3.067377995E0,-1.139271498E-2,4.155946181E0
1.244692104E1,-2.980519946E0,3.523091272E0,3.221406519E-1,4.625953508E0
1.245692104E1,-2.966267650E0,3.977307077E0,6.015907824E-1,4.997962267E0
1.246692104E1,-3.073149782E0,4.394473754E0,4.132350093E-1,5.378328024E0
1.247692204E1,-3.195848925E0,4.649783070E0,-2.548129056E-1,5.647907804E0
1.248692204E1,-3.146154900E0,4.770919837E0,-6.415459764E-1,5.750786728E0
1.249692204E1,-2.808767926E0,5.009611951E0,7.124192733E-2,5.743732634E0
1.250692304E1,-2.454396544E0,5.042216025E0,1.489211567E0,5.802219914E0
1.251692304E1,-3.016839049E0,4.460978816E0,2.309566568E0,5.859671285E0
1.252692304E1,-3.976545185E0,3.594708554E0,2.500681642E0,5.915086632E0
1.253692404E1,-4.389177639E0,2.833044981E0,1.667954079E0,5.483894147E0
1.254692404E1,-4.400679697E0,2.425249051E0,3.548914184E-1,5.037237603E0
1.255692404E1,-4.344649630E0,2.084537643E0,-1.031925974E0,4.928097889E0
1.256692504E1,-4.016607091E0,1.810074602E0,-1.974518772E0,4.827859460E0
1.257692504E1,-3.392541658E0,1.676993144E0,-2.196549098E0,4.375668274E0
1.258692529E1,-2.929475507E0,1.286477491E0,-2.227993816E0,3.898821300E0
1.259692629E1,-2.260498488E0,1.161942322E0,-2.403175081E0,3.497887055E0
1.260692629E1,-1.478940348E0,1.327315614E0,-2.828973565E0,3.457184219E0
1.261692629E1,-6.563379702E-1,1.112976569E0,-3.572991410E0,3.799442590E0
1.262692729E1,1.028203636E-1,6.436141366E-1,-4.239397994E0,4.289208148E0
1.263692729E1,1.107680161E0,-5.910716414E-2,-4.418988206E0,4.556084477E0
1.264692729E1,2.296731929E0,-7.195232749E-1,-3.919934197E0,4.599845150E0
1.265692829E1,3.701695644E0,-1.285422068E0,-3.385351337E0,5.178365013E0
1.266692829E1,5.142413328E0,-1.843964480E0,-3.482399329E0,6.478558861E0
1.267692829E1,6.284367528E0,-2.478604310E0,-3.923198698E0,7.812057512E0
1.268692929E1,6.927674686E0,-3.135979283E0,-4.518972085E0,8.845798512E0
1.269692929E1,6.940471902E0,-3.737342024E0,-4.817832633E0,9.238473191E0
1.270692929E1,6.500997512E0,-3.828210095E0,-5.000682667E0,9.051242364E0
1.271693029E1,6.268681787E0,-3.346593652E0,-5.599782536E0,9.047299314E0
1.272693029E1,6.425796472E0,-3.114844522E0,-5.954774600E0,9.297981352E0
1.273693029E1,6.955788099E0,-4.429469925E0,-5.630680393E0,9.985376987E0
1.274693129E1,6.526085576E0,-6.558388519E0,-4.191853114E0,1.015745467E1
1.275693129E1,5.021481214E0,-8.094465519E0,-2.768097618E0,9.919577110E0
1.276693129E1,3.262053731E0,-7.212721771E0,-4.817036388E-1,7.930724323E0
1.277693229E1,1.188969907E0,-5.889193983E0,1.667052877E0,6.235007659E0
1.278693229E1,-7.714143902E-1,-4.411593817E0,3.196705542E0,5.502378257E0
1.279693229E1,-2.607463202E0,-3.051843697E0,3.515640165E0,5.335947908E0
1.280693329E1,-3.384197096E0,-2.582595870E0,3.580550691E0,5.562637384E0
1.281693329E1,-2.728888528E0,-2.858967442E0,4.050324183E0,5.659121258E0
1.282693329E1,-3.145952294E0,-4.151948791E0,4.494453540E0,6.880102269E0
1.283693429E1,-4.566660222E0,-6.529582211E0,4.284292331E0,9.046822105E0
1.284693429E1,-5.414000707E0,-8.583462902E0,4.879596772E0,1.126044865E1
1.285693429E1,-5.916097607E0,-8.265087857E0,5.964600261E0,1.178508992E1
1.286693529E1,-5.910102457E0,-5.642934403E0,5.421964615E0,9.806616135E0
1.287693529E1,-5.933491904E0,-2.841706461E0,2.729058098E0,7.122456029E0
1.288693529E1,-6.798831874E0,-2.753757321E0,2.083652813E0,7.625542818E0
1.289693629E1,-7.299848793E0,-2.754753687E0,2.978245379E0,8.351431363E0
1.290693629E1,-6.805349765E0,-1.325591855E0,3.303385652E0,7.679995830E0
1.291693629E1,-6.187905427E0,3.330433702E-1,2.884598127E0,6.835349136E0
1.292693729E1,-5.497864398E0,1.899856260E0,2.099933946E0,6.184309931E0
1.293693729E1,-4.640595048E0,3.257119558E0,1.444677418E0,5.850730130E0
1.294693729E1,-3.636718752E0,4.291524167E0,1.173516301E0,5.746306942E0
1.295693829E1,-3.112707365E0,4.946490673E0,5.468935518E-1,5.869907127E0
1.296693829E1,-2.677347077E0,5.443829108E0,-5.733308237E-2,6.066856667E0
1.297693829E1,-2.360760402E0,5.868439291E0,-3.650375801E-1,6.336009929E0
1.298693929E1,-2.107556084E0,6.346594766E0,-1.948917907E-1,6.690219771E0
1.299693929E1,-1.787816299E0,6.804384974E0,1.192352521E-1,7.036345574E0
1.300693929E1,-1.451422474E0,7.204712840E0,4.296686089E-1,7.362005801E0
1.301693929E1,-1.029596882E0,7.573007319E0,6.550857890E-1,7.670700554E0
1.302694029E1,-7.177344655E-1,7.735115526E0,8.575970864E-1,7.815537584E0
1.303694029E1,-5.155041267E-1,7.598321085E0,9.515174031E-1,7.674999230E0
1.304694029E1,1.022717486E-1,7.307893977E0,6.314992905E-1,7.335841140E0
1.305694129E1,9.524073493E-1,6.549898362E0,1.663555511E-1,6.620870220E0
1.306694129E1,1.864896635E0,5.356741263E0,3.357926580E-1,5.682013123E0
1.307694129E1,2.125572525E0,4.269925137E0,1.900865489E0,5.134550501E0
1.308694229E1,1.891278979E0,3.773362627E0,3.161477237E0,5.273532024E0
1.309694229E1,1.865472001E0,3.557667612E0,2.728255860E0,4.855961765E0
1.310694229E1,1.849725741E0,3.165545145E0,1.629247119E0,4.012057771E0
1.311694329E1,2.061932892E0,2.737648242E0,7.526897784E-1,3.508963814E0
1.312694329E1,2.352439815E0,2.189447216E0,7.513765669E-1,3.300336186E0
1.313694329E1,2.704741867E0,1.401237869E0,8.834183908E-1,3.171675296E0
1.314694429E1,3.248703953E0,6.167625529E-1,4.682106771E-2,3.307062992E0
1.315694429E1,4.181063831E0,2.731088251E-1,-2.658988574E0,4.962469489E0
1.316694429E1,4.960601174E0,-6.982090044E-1,-5.520634625E0,7.454694258E0
1.317694529E1,5.150416996E0,-4.031119003E0,-6.683107874E0,9.350970351E0
1.318694529E1,4.821585668E0,-7.842016076E0,-7.957075832E0,1.216798916E1
1.319694529E1,4.744664084E0,-9.031730919E0,-9.487006824E0,1.393152178E1
1.320694629E1,4.052202893E0,-7.418162524E0,-7.743132058E0,1.146322719E1
1.321694629E1,2.864262096E0,-3.780319059E0,-5.927204393E0,7.591216073E0
1.322694629E1,2.046503844E0,2.755055988E-1,-6.550788308E0,6.868544880E0
1.323694729E1,1.696616107E0,2.741674050E0,-6.426444343E0,7.189886627E0
1.324694729E1,1.662831772E0,3.275158219E0,-4.667110417E0,5.939157390E0
1.325694729E1,1.993927435E0,3.325800369E0,-2.195034523E0,4.455880526E0
1.326694829E1,2.299478951E0,3.160807146E0,8.808910780E-1,4.006778550E0
1.327694829E1,2.594953376E0,1.369029066E0,3.396078054E0,4.487913742E0
1.328694829E1,1.913425308E0,-1.812458512E0,5.607879760E0,6.196330985E0
1.329694929E1,1.353761986E-1,-4.015879989E0,6.705030255E0,7.816843962E0
1.330694929E1,-1.405420090E0,-5.311744600E0,6.640535467E0,8.618964416E0
1.331694929E1,-2.141493616E0,-6.534515507E0,5.767109967E0,8.974711427E0
1.332695029E1,-2.404484419E0,-7.433430773E0,3.326665757E0,8.491415868E0
1.333695029E1,-2.215503286E0,-8.066896482E0,-7.556929084E-1,8.399663412E0
1.334695029E1,-2.286994561E0,-7.057050179E0,-2.081053287E0,7.704744262E0
1.335695029E1,-3.185705467E0,-5.353959743E0,-2.267536197E0,6.629881195E0
1.336695129E1,-2.362655193E0,-1.564384541E0,1.966265427E0,3.449005404E0
1.337695129E1,7.217700675E-1,8.737120128E-1,8.830486128E0,8.902910197E0
1.338695129E1,2.511217740E0,7.476793724E-1,9.795917566E0,1.014027810E1
1.339695229E1,2.600878652E0,1.944129038E-1,5.947433420E0,6.494176655E0
1.340695229E1,2.140063680E0,-8.213624758E-1,2.250875140E0,3.212623191E0
1.341695229E1,8.678139263E-1,-2.157023821E0,1.771190764E0,2.922835866E0
1.342695329E1,8.116189680E-1,-2.015230595E0,3.480820581E0,4.103168485E0
1.343695329E1,1.322815305E0,-9.238290828E-1,4.731929433E0,4.999445636E0
1.344695329E1,1.259966800E0,1.443905586E-1,4.791808430E0,4.956792612E0
1.345695429E1,6.874393103E-1,1.091269366E0,3.957164004E0,4.162041397E0
1.346695429E1,-5.154408306E-2,1.783973801E0,2.792465304E0,3.314073293E0
1.347695429E1,-8.221191055E-1,2.162578091E0,1.467508457E0,2.739745407E0
1.348695529E1,-1.708733292E0,2.200126571E0,4.589152122E-1,2.823283472E0
1.349695529E1,-2.429388880E0,2.357835917E0,2.627481437E-1,3.395637957E0
1.350695529E1,-2.857328467E0,2.537286381E0,3.499207735E-1,3.837263699E0
1.351695629E1,-3.193311233E0,2.708137345E0,-4.778637449E-2,4.187305583E0
1.352695629E1,-3.354465174E0,3.094354709E0,-9.250213301E-1,4.656515020E0
1.353695629E1,-3.226678661E0,3.407352655E0,-1.385736900E0,4.893033216E0
1.354695729E1,-3.081154328E0,3.457355120E0,-1.300026659E0,4.810081676E0
1.355695729E1,-2.739437198E0,3.325216232E0,-1.205775974E0,4.473865761E0
1.356695729E1,-2.174116986E0,3.148550797E0,-1.066541491E0,3.972111220E0
1.357695829E1,-2.211632430E0,2.748034651E0,-8.632115829E-1,3.631548800E0
1.358695833E1,-2.549660551E0,2.422682709E0,-9.701448780E-1,3.648471120E0
1.359695833E1,-2.815044327E0,2.486230833E0,-1.331450180E0,3.984793332E0
1.360695833E1,-3.000059586E0,2.469213096E0,-1.629402071E0,4.213350442E0
1.361695933E1,-3.025212846E0,2.333032029E0,-2.024621809E0,4.323661027E0
1.362695933E1,-2.978624571E0,1.994790484E0,-2.521411775E0,4.382797137E0
1.363695933E1,-2.821631801E0,1.694251201E0,-3.174493724E0,4.572691062E0
1.364696033E1,-2.302666853E0,1.585343301E0,-3.136392097E0,4.201492997E0
1.365696033E1,-1.744992753E0,1.272357050E0,-2.697622297E0,3.455583630E0
1.366696033E1,-1.072366487E0,1.046970860E0,-2.482691513E0,2.899978451E0
1.367696133E1,-2.257531026E-1,9.816785109E-1,-2.671724394E0,2.855305308E0
1.368696133E1,6.279082230E-1,7.632698035E-1,-2.791084777E0,2.960912656E0
1.369696133E1,1.455409690E0,5.285368395E-1,-2.693685951E0,3.107010229E0
1.370696233E1,2.318195888E0,2.347364724E-2,-2.571142929E0,3.461987746E0
1.371696233E1,3.199503142E0,-3.214419097E-1,-2.613019518E0,4.143430494E0
1.372696233E1,4.116786852E0,-6.621848935E-1,-2.485416316E0,4.854247323E0
1.373696333E1,5.341990492E0,-1.075951999E0,-2.122587814E0,5.848069267E0
1.374696333E1,6.585129005E0,-1.635377925E0,-1.569068161E0,6.964219975E0
1.375696333E1,7.131309818E0,-2.091505769E0,-1.013478082E0,7.500474247E0
1.376696333E1,6.959302275E0,-2.369274241E0,-7.264633352E-1,7.387360663E0
1.377696433E1,6.056464112E0,-2.544358004E0,-1.117630880E0,6.663603678E0
1.378696433E1,5.467688672E0,-2.651000692E0,-2.453060748E0,6.552933016E0
1.379696433E1,5.266255601E0,-2.972772970E0,-3.759220551E0,7.120573456E0
1.380696533E1,5.141379540E0,-3.511795621E0,-5.049862429E0,8.016707716E0
1.381696533E1,4.878825231E0,-4.551804201E0,-5.687320032E0,8.767409325E0
1.382696533E1,3.692963997E0,-4.888524300E0,-4.718143453E0,7.732821643E0
1.383696633E1,1.593280604E0,-4.834213023E0,-3.001093374E0,5.908867918E0
1.384696633E1,-4.563362977E-1,-4.438506796E0,-1.883049023E0,4.842980386E0
1.385696633E1,-2.293201673E0,-3.670058699E0,-8.303432143E-1,4.406537713E0
1.386696733E1,-3.545980490E0,-3.017847401E0,4.495561588E-1,4.677978336E0
1.387696733E1,-4.291722680E0,-2.392519262E0,1.609445524E0,5.170430047E0
1.388696733E1,-4.266139942E0,-1.749257712E0,2.644453565E0,5.315353912E0
1.389696833E1,-3.616262853E0,-1.614949508E0,3.729959915E0,5.440406226E0
1.390696833E1,-2.922211803E0,-1.888695679E0,4.675519005E0,5.828119007E0
1.391696833E1,-2.762953530E0,-2.610803424E0,5.065543492E0,6.333240686E0
1.392696833E1,-3.065947766E0,-3.585230802E0,4.854190035E0,6.768831251E0
1.393696933E1,-3.830161018E0,-4.233750753E0,4.866862121E0,7.502074764E0
1.394696933E1,-4.150922312E0,-4.042608781E0,4.878011007E0,7.574155608E0
1.395696933E1,-4.516967075E0,-3.305762545E0,3.657972504E0,6.686689794E0
1.396697033E1,-4.764280323E0,-2.578343775E0,2.364602315E0,5.910800938E0
1.397697033E1,-4.738810144E0,-2.147159568E0,2.623217647E0,5.826481496E0
1.398697033E1,-4.418197662E0,-1.930660561E0,3.532885943E0,5.977391059E0
1.399697133E1,-3.890948087E0,-1.784046891E0,3.942276408E0,5.819264868E0
1.400697133E1,-3.425179938E0,-1.579079763E0,3.345059928E0,5.041307016E0
1.401697133E1,-2.881540910E0,-8.060293221E-1,2.481997449E0,3.887579275E0
1.402697233E1,-2.223670970E0,8.177798867E-2,1.405874126E0,2.632087058E0
1.403697233E1,-1.610724894E0,8.518440109E-1,4.943528473E-2,1.822777208E0
1.404697233E1,-9.620745510E-1,1.624706172E0,-1.143345838E0,2.207373392E0
1.405697233E1,-6.480474955E-1,2.102421352E0,-1.834263364E0,2.864378324E0
1.406697333E1,-4.387461188E-1,2.609511774E0,-1.752392989E0,3.173788122E0
1.407697333E1,-4.472263357E-1,3.025323066E0,-1.256972440E0,3.306443825E0
1.408697333E1,-5.312897086E-1,3.489929958E0,-4.410671711E-1,3.557586277E0
1.409697433E1,-5.692021778E-1,4.077880356E0,5.510579753E-1,4.154126166E0
1.410697433E1,-7.656583911E-1,4.640821627E0,1.661619644E0,4.988430414E0
1.411697433E1,-8.842127350E-1,5.118667785E0,2.441400815E0,5.739601902E0
1.412697533E1,-8.607566294E-1,5.615557154E0,2.830675689E0,6.347291468E0
1.413697533E1,-6.568598342E-1,6.059064953E0,2.621704388E0,6.634535918E0
1.414697533E1,-6.213780525E-1,6.168787370E0,2.563252112E0,6.708972328E0
1.415697633E1,-6.615031081E-1,6.252017807E0,2.602619076E0,6.804332376E0
1.416697633E1,-7.240776712E-1,6.194259596E0,2.705926512E0,6.798174660E0
1.417697633E1,-5.097316092E-1,6.058431700E0,2.840507197E0,6.710655863E0
1.418697633E1,-8.675309211E-2,5.684756613E0,2.523342526E0,6.220228400E0
1.419697733E1,2.814031005E-1,5.512233346E0,1.989308134E0,5.866962674E0
1.420697733E1,5.240210348E-1,5.097633596E0,1.637407494E0,5.379736948E0
1.421697733E1,7.215051886E-1,4.339801118E0,1.527026095E0,4.656850028E0
1.422697833E1,9.756149483E-1,3.495809333E0,1.057915605E0,3.780435537E0
1.423697833E1,1.286763420E0,2.633763101E0,5.731674671E-2,2.931851527E0
1.424697833E1,1.309245379E0,1.599707571E0,-1.516874160E0,2.563999803E0
1.425697933E1,1.209923112E0,7.288788199E-2,-3.492401576E0,3.696768230E0
1.426697933E1,1.186983316E0,-2.684107627E0,-5.507283093E0,6.240475159E0
1.427697933E1,1.422494252E0,-7.130995823E0,-7.140880541E0,1.019150461E1
1.428698033E1,2.287805862E0,-9.794330047E0,-1.013664535E1,1.427986469E1
1.429698033E1,3.449077216E0,-9.995286570E0,-1.156280697E1,1.566845214E1
1.430698033E1,3.856498632E0,-7.152590759E0,-7.898887850E0,1.133245629E1
1.431698033E1,3.360288416E0,-2.562094948E0,-3.640738713E0,5.577709847E0
1.432698133E1,2.821547601E0,1.255557414E0,-1.776001707E0,3.562546470E0
1.433698133E1,2.473803746E0,3.673154215E0,-9.523418605E-1,4.529759582E0
1.434698133E1,3.179208333E0,4.174320822E0,-7.300973797E-1,5.297675164E0
1.435698233E1,3.995727268E0,2.667253613E0,-7.835152030E-1,4.867645664E0
1.436698233E1,4.208507446E0,-4.560009599E-2,-8.965980148E-1,4.303196752E0
1.437698233E1,4.411428341E0,-3.560878319E0,1.688127265E0,5.915262299E0
1.438698333E1,2.872606950E0,-5.336706948E0,4.288539456E0,7.424545939E0
1.439698333E1,9.325256467E-1,-5.651723937E0,4.361870849E0,7.199826724E0
1.440698333E1,-3.942122626E-1,-5.469401906E0,3.926413497E0,6.744366795E0
1.441698433E1,-1.864669470E0,-4.544847184E0,3.063537544E0,5.789463744E0
1.442698433E1,-2.575393270E0,-3.101650280E0,1.467902559E0,4.290410573E0
1.443698433E1,-2.365800118E0,-1.157321268E0,-1.020291111E0,2.824428555E0
1.444698433E1,-2.494287711E0,9.504608113E-1,-5.385390866E0,6.010597451E0
1.445698533E1,-4.470027674E0,1.769974397E0,-1.006863872E1,1.115757332E1
1.446698533E1,-3.232376188E0,1.700701849E0,-1.865912004E0,4.101496094E0
1.447698533E1,1.159170742E0,1.045224881E0,1.016410855E1,1.028325213E1
1.448698633E1,2.564215148E0,2.582960737E-1,1.167605818E1,1.195710044E1
1.449698633E1,1.420179339E0,-1.226628900E-2,7.567417381E0,7.699536715E0
1.450698633E1,5.511497766E-1,-5.464632332E-1,3.927318646E0,4.003276144E0
1.451698733E1,7.333510628E-1,-1.963735337E0,2.572813479E0,3.318648739E0
1.452698733E1,1.577143165E0,-3.013136299E0,2.607738898E0,4.285635668E0
1.453698733E1,2.164788631E0,-2.749497040E0,2.453961804E0,4.274104856E0
1.454698733E1,2.224706511E0,-1.937420527E0,1.937894737E0,3.529639269E0
1.455698833E1,2.017108429E0,-9.878572637E-1,2.366324905E0,3.262526926E0
1.456698833E1,1.576742046E0,-5.458598006E-1,3.097123951E0,3.517990217E0
1.457698833E1,9.329533705E-1,-5.642025161E-1,2.568429236E0,2.790260779E0
1.458698933E1,1.631349778E-1,-7.545656383E-1,1.317604558E0,1.527109720E0
1.459699008E1,-4.638797906E-1,-5.790509355E-1,6.649547195E-1,9.963178334E-1
1.460699008E1,-8.315082720E-1,-8.577163696E-2,2.582948677E-1,8.749165782E-1
1.461699108E1,-1.043039777E0,4.582305032E-1,8.554246265E-2,1.142464303E0
1.462699108E1,-1.056843591E0,1.082874518E0,1.147796738E-1,1.517468277E0
1.463699108E1,-8.784894803E-1,1.715025773E0,4.340200702E-1,1.975203936E0
1.464699108E1,-4.121553209E-1,2.415618687E0,9.141595423E-1,2.615487205E0
1.465699208E1,-3.955936673E-1,2.971177264E0,1.378643643E0,3.299249457E0
1.466699208E1,-9.956249973E-1,3.253355121E0,1.757381834E0,3.829357595E0
1.467699208E1,-1.913771464E0,3.096154482E0,1.781259524E0,4.052354783E0
1.468699308E1,-2.349058662E0,2.998492532E0,1.484946023E0,4.088287998E0
1.469699308E1,-2.899506188E0,2.776656772E0,9.051600927E-1,4.115370428E0
1.470699308E1,-3.367715549E0,2.684201767E0,1.611106718E-1,4.309571185E0
1.471699408E1,-3.663508063E0,2.644461166E0,-5.462135571E-1,4.551133423E0
1.472699408E1,-3.837484948E0,2.479001920E0,-7.299827743E-1,4.626512304E0
1.473699408E1,-4.033161727E0,2.226583468E0,-5.125774856E-1,4.635385975E0
1.474699408E1,-4.063450305E0,1.960900607E0,-2.821083112E-1,4.520657548E0
1.475699508E1,-4.099783441E0,1.823816144E0,-3.713473105E-1,4.502491356E0
1.476699508E1,-4.085134119E0,1.701735637E0,-6.826126530E-1,4.477743291E0
1.477699508E1,-3.766256506E0,1.657555829E0,-1.200303492E0,4.286363012E0
1.478699608E1,-3.398911614E0,1.883174154E0,-1.815938190E0,4.289123053E0
1.479699608E1,-2.719772719E0,2.218844093E0,-2.443596445E0,4.276867585E0
1.480699608E1,-1.898330137E0,2.337308682E0,-2.723634805E0,4.060154644E0
1.481699708E1,-1.121243362E0,1.734454316E0,-2.676294578E0,3.380543022E0
1.482699708E1,-3.016631180E-1,1.105562299E0,-2.632900636E0,2.871486443E0
1.483699708E1,7.140219221E-1,4.443825424E-1,-2.453250198E0,2.593403108E0
1.484699708E1,2.001666225E0,-3.800046980E-1,-2.146811074E0,2.959707592E0
1.485699808E1,3.618867787E0,-1.282143534E0,-1.953248940E0,4.307583723E0
1.486699808E1,4.968697228E0,-2.379408635E0,-1.995557638E0,5.859333400E0
1.487699808E1,5.917964038E0,-2.930616299E0,-1.993712257E0,6.898238820E0
1.488699908E1,6.435049106E0,-3.071721892E0,-1.845711628E0,7.365594598E0
1.489699908E1,6.494280231E0,-2.965866238E0,-1.706422180E0,7.340566390E0
1.490699908E1,6.529673427E0,-2.681189282E0,-2.190902588E0,7.390904220E0
1.491700008E1,6.592605840E0,-2.584002711E0,-3.139870021E0,7.745857313E0
1.492700008E1,6.531090792E0,-2.685510959E0,-3.950013444E0,8.091336247E0
1.493700008E1,6.395536546E0,-3.281393690E0,-4.715880581E0,8.597090316E0
1.494700008E1,5.625085777E0,-4.418128080E0,-5.057136950E0,8.759913234E0
1.495700108E1,4.103644942E0,-4.837523716E0,-4.904083157E0,8.018202362E0
1.496700108E1,2.408965433E0,-4.471223722E0,-4.363915620E0,6.696171710E0
1.497700108E1,9.973148426E-1,-4.068554047E0,-3.518685395E0,5.470732660E0
1.498700208E1,-2.060734212E-1,-3.180031037E0,-1.977357010E0,3.750333905E0
1.499700208E1,-1.687620166E0,-1.863984761E0,-3.821857095E-1,2.543337754E0
1.500700208E1,-2.796817387E0,-6.824185985E-1,4.175069851E-1,2.908985170E0
1.501700208E1,-3.556543485E0,-3.909857690E-2,8.826348639E-1,3.664638395E0
1.502700308E1,-3.953858865E0,2.658518457E-1,1.203423640E0,4.141485915E0
1.503700308E1,-3.917328385E0,2.287290430E-1,1.621643985E0,4.245881283E0
1.504700308E1,-3.789876333E0,-3.938245922E-1,2.663447660E0,4.648893833E0
1.505700408E1,-3.580343699E0,-1.314790294E0,3.736517567E0,5.339391169E0
1.506700408E1,-3.573661794E0,-2.575787373E0,4.436632764E0,6.252155587E0
1.507700408E1,-3.771439478E0,-3.896737123E0,4.974939716E0,7.359235091E0
1.508700408E1,-3.907013312E0,-4.673370738E0,5.381563863E0,8.128122581E0
1.509700508E1,-3.913294684E0,-4.918476078E0,5.529125952E0,8.371171722E0
1.510700508E1,-3.821194313E0,-4.654015869E0,5.234775361E0,7.978988832E0
1.511700508E1,-3.823153422E0,-3.957409587E0,3.823576761E0,6.700547140E0
1.512700608E1,-4.070099758E0,-3.589118616E0,2.622875000E0,6.027184894E0
1.513700608E1,-4.525267490E0,-3.401320667E0,2.480888817E0,6.180763501E0
1.514700608E1,-4.453097354E0,-2.791243236E0,2.760661129E0,5.936528001E0
1.515700708E1,-3.753728262E0,-1.328327767E0,2.287887431E0,4.592315256E0
1.516700708E1,-3.079558623E0,2.741010976E-1,1.268952216E0,3.342013233E0
1.517700708E1,-2.430077682E0,1.229251376E0,3.914476991E-1,2.751284752E0
1.518700708E1,-1.869276784E0,1.226340632E0,-3.497640316E-1,2.262839349E0
1.519700808E1,-1.371548339E0,1.486667444E0,-4.607582545E-1,2.074517559E0
1.520700808E1,-8.791206872E-1,2.144456400E0,-6.404700887E-1,2.404526642E0
1.521700808E1,-7.188783270E-1,2.821003225E0,-1.275002915E0,3.178124868E0
1.522700908E1,-6.474636510E-1,3.453398893E0,-1.991726543E0,4.038829994E0
1.523700908E1,-3.684690186E-1,4.280478192E0,-1.774049907E0,4.648173409E0
1.524700908E1,-1.335638541E-1,4.973605966E0,-8.628771222E-1,5.049668557E0
1.525700908E1,-5.637630978E-1,5.234174852E0,5.712274341E-1,5.295348525E0
1.526701008E1,-1.374942355E0,5.088372776E0,2.112962858E0,5.678610396E0
1.527701008E1,-1.862793976E0,5.187370230E0,3.098619668E0,6.322994160E0
1.528701008E1,-2.140499589E0,5.749850741E0,3.394663028E0,7.011865594E0
1.529701108E1,-2.236276105E0,6.181883379E0,3.064765167E0,7.253233655E0
1.530701108E1,-2.259721101E0,6.236070696E0,2.862607334E0,7.224225767E0
1.531701108E1,-2.201827818E0,5.877612988E0,2.470181980E0,6.745085558E0
1.532701108E1,-2.060343911E0,5.005272732E0,2.067106654E0,5.794022961E0
1.533701208E1,-1.498193475E0,4.139716415E0,1.827731878E0,4.766806007E0
1.534701208E1,-3.273391190E-1,3.241760677E0,1.622052705E0,3.639672810E0
1.535701208E1,6.712816992E-1,2.332028062E0,1.346182240E0,2.775100111E0
1.536701308E1,1.598327920E0,1.738347977E0,8.042190242E-1,2.494649087E0
1.537701308E1,2.154397836E0,7.749396765E-1,4.676766801E-1,2.336810437E0
1.538701308E1,2.898076544E0,1.282037115E-1,-3.475713623E-1,2.921658724E0
1.539701408E1,3.528554618E0,-1.865641862E-1,-1.629810791E0,3.891244930E0
1.540701408E1,4.105496755E0,-2.305492812E-1,-3.332642781E0,5.292897551E0
1.541701408E1,4.870990840E0,-8.212607342E-1,-5.588524307E0,7.458728101E0
1.542701408E1,5.941316063E0,-3.310488850E0,-8.801150647E0,1.112289646E1
1.543701508E1,6.375714485E0,-6.135982736E0,-1.172516193E1,1.468943299E1
1.544701508E1,6.376938307E0,-6.746866499E0,-1.226036694E1,1.537862631E1
1.545701508E1,5.287575134E0,-4.986589124E0,-9.003182473E0,1.157073103E1
1.546701608E1,3.657317908E0,-1.587664645E0,-5.897914521E0,7.119132602E0
1.547701608E1,1.952816246E0,1.334088444E0,-4.107224900E0,4.739470397E0
1.548701608E1,1.022173988E0,2.825647084E0,-2.981228628E0,4.232829460E0
1.549701608E1,1.206091432E0,3.497631326E0,-2.154907860E0,4.281554544E0
1.550701708E1,1.144533407E0,3.892935848E0,-8.079437006E-1,4.137351721E0
1.551701708E1,1.157943996E0,3.658624468E0,7.651300952E-1,3.913028413E0
1.552701708E1,1.547257754E0,2.213881561E0,1.979778635E0,3.348850783E0
1.553701808E1,1.939126160E0,-3.961453521E-1,2.729529676E0,3.371568427E0
1.554701808E1,1.899258674E0,-3.525224921E0,4.580332181E0,6.083899831E0
1.555701808E1,1.035621414E0,-5.385560435E0,5.999247937E0,8.128206981E0
1.556701808E1,-6.705002189E-2,-6.537550796E0,5.906908708E0,8.811108704E0
1.557701908E1,-1.260407095E0,-7.202407283E0,4.491866148E0,8.581384399E0
1.558701908E1,-2.546431426E0,-6.639558982E0,2.130262284E0,7.423346542E0
1.559701808E1,-3.410630896E0,-4.973679056E0,-8.064924216E-1,6.084432306E0
1.560701908E1,-3.869435011E0,-2.866619693E0,-3.926951441E0,6.213773683E0
1.561701908E1,-4.127472346E0,-9.727235001E-1,-5.625255346E0,7.044552270E0
1.562701908E1,-3.670435552E0,1.674864757E-1,-2.781253853E0,4.608201586E0
1.563701908E1,-1.438204258E0,6.585110879E-1,2.843110378E0,3.253512711E0
1.564702008E1,6.748543480E-1,4.681456268E-1,6.045416383E0,6.100954676E0
1.565702008E1,2.055633394E0,-9.440855920E-2,6.453269030E0,6.773420318E0
1.566702008E1,2.420896969E0,-2.113973111E-1,4.998865353E0,5.558244846E0
1.567702108E1,2.416411277E0,-9.458748400E-2,2.832155035E0,3.724123037E0
1.568702108E1,1.722284799E0,-5.496218991E-1,1.218714108E0,2.180278248E0
1.569702108E1,8.686763906E-1,-8.633677036E-1,9.647122300E-1,1.559061304E0
1.570702108E1,1.106500778E0,-5.981327391E-1,1.671695566E0,2.092049906E0
1.571702208E1,8.828599817E-1,-3.841363406E-1,2.302585577E0,2.495776996E0
1.572702208E1,2.256586701E-1,2.272719169E-1,2.393919085E0,2.415248009E0
1.573702208E1,-5.553232267E-1,9.274531871E-1,2.266017090E0,2.510654646E0
1.574702308E1,-1.284732974E0,1.314649376E0,2.117709482E0,2.804199573E0
1.575702308E1,-1.857400212E0,1.476399733E0,1.779935714E0,2.966119159E0
1.576702308E1,-2.193394672E0,1.711685843E0,1.601671650E0,3.210327193E0
1.577702308E1,-2.271362322E0,1.982500806E0,1.388441237E0,3.319211550E0
1.578702408E1,-2.286537309E0,2.159562682E0,7.988372469E-1,3.245012294E0
1.579702408E1,-2.156240002E0,2.505743576E0,8.962495208E-2,3.306985704E0
1.580702408E1,-1.563360693E0,3.033539574E0,-1.804111429E-1,3.417456244E0
1.581702508E1,-1.049159180E0,3.479761065E0,1.379218205E-1,3.637099735E0
1.582702508E1,-1.311232555E0,3.515287578E0,7.305979013E-1,3.822348867E0
1.583702508E1,-1.791333691E0,3.514147956E0,1.257173585E0,4.139878944E0
1.584702508E1,-2.312204539E0,3.327863851E0,1.257756552E0,4.242984703E0
1.585702608E1,-2.595105988E0,3.071665174E0,7.666138262E-1,4.093580192E0
1.586702608E1,-2.686389503E0,2.652513367E0,2.132128716E-1,3.781266382E0
1.587702608E1,-2.709295970E0,2.218817781E0,-4.357731020E-1,3.528928335E0
1.588702608E1,-2.534814471E0,1.697903371E0,-1.008485071E0,3.213285297E0
1.589702708E1,-2.056840551E0,1.500859805E0,-1.537994303E0,2.974659591E0
1.590702708E1,-1.605439304E0,1.378299242E0,-1.924729146E0,2.860371731E0
1.591702708E1,-1.314146223E0,1.122291768E0,-2.197885918E0,2.795929473E0
1.592702808E1,-8.871299109E-1,7.291606557E-1,-2.363349842E0,2.627564883E0
1.593702808E1,-3.228531352E-1,3.713742077E-1,-2.362197356E0,2.412908887E0
1.594702808E1,2.025624606E-1,3.791042268E-2,-2.344734646E0,2.353773420E0
1.595702808E1,7.726148236E-1,-4.405309814E-1,-2.200732343E0,2.373652050E0
1.596702908E1,1.375025970E0,-9.876672292E-1,-2.029523529E0,2.642943195E0
1.597702908E1,1.911374105E0,-1.492279601E0,-1.943244939E0,3.107482948E0
1.598702908E1,2.429966000E0,-1.866601390E0,-2.103794863E0,3.716838487E0
1.599703008E1,2.966346587E0,-2.267695241E0,-2.563010622E0,4.528871518E0
1.600703008E1,3.735054594E0,-2.676008064E0,-3.076490881E0,5.529597464E0
1.601703008E1,4.804500981E0,-2.898613903E0,-3.374335182E0,6.547620190E0
1.602703008E1,5.503278335E0,-2.710794904E0,-3.475281513E0,7.050678197E0
1.603703108E1,5.698326831E0,-2.166626118E0,-3.488520779E0,7.023886007E0
1.604703108E1,5.447566649E0,-1.418811675E0,-3.651835266E0,6.710060341E0
1.605703108E1,5.040898647E0,-9.494340402E-1,-3.972650355E0,6.487991601E0
1.606703208E1,4.529142440E0,-6.033589804E-1,-4.536883861E0,6.438981943E0
1.607703208E1,3.935992405E0,-7.744467562E-1,-4.884440020E0,6.320566296E0
1.608703208E1,3.473022149E0,-1.751803005E0,-5.105385250E0,6.418384156E0
1.609703208E1,2.972039144E0,-3.306188807E0,-5.157814309E0,6.809328128E0
1.610703308E1,1.925032324E0,-4.365633532E0,-4.387222622E0,6.481684034E0
1.611703308E1,4.107595906E-1,-3.852115851E0,-2.874759602E0,4.824081544E0
1.612703308E1,-1.354772092E0,-3.357808612E0,-1.698975751E0,3.999600567E0
1.613703308E1,-2.256008703E0,-3.050179580E0,-5.598404932E-1,3.834917485E0
1.614703408E1,-2.667402717E0,-2.778471748E0,6.873811305E-1,3.912471767E0
1.615703408E1,-2.750531705E0,-2.304031008E0,1.586485262E0,3.923126181E0
1.616703408E1,-2.800990545E0,-1.750364006E0,2.559678293E0,4.178669064E0
1.617703508E1,-2.639007468E0,-1.602290286E0,3.263921624E0,4.492758501E0
1.618703508E1,-2.451902707E0,-1.734527407E0,3.801261447E0,4.844584688E0
1.619703508E1,-2.699819973E0,-2.098875600E0,4.324294302E0,5.513059757E0
1.620703508E1,-3.324962170E0,-2.577273735E0,4.654518145E0,6.273934372E0
1.621703608E1,-3.593463390E0,-2.750388156E0,4.682582442E0,6.511850156E0
1.622703608E1,-2.684952258E0,-1.229102857E0,4.631799958E0,5.493016777E0
1.623703608E1,-3.021622948E0,-7.399014062E-1,5.345119337E0,6.184493517E0
1.624703708E1,-4.055365067E0,-1.941317112E0,5.144822965E0,6.832561840E0
1.625703708E1,-5.199273407E0,-3.141159332E0,6.354746370E0,8.791025386E0
1.626703708E1,-4.787531776E0,-1.855387600E0,5.647074232E0,7.632324091E0
1.627703708E1,-3.871903121E0,2.012173086E-1,2.709691535E0,4.730174457E0
1.628703808E1,-3.235462933E0,1.117520440E0,1.113582340E0,3.599602472E0
1.629703808E1,-2.495154269E0,1.119580999E0,3.955962986E-1,2.763286606E0
1.630703808E1,-1.872190598E0,9.518378305E-1,-1.435316026E-1,2.105158951E0
1.631703808E1,-1.427870767E0,1.208894879E0,-4.603331620E-1,1.926693638E0
1.632703908E1,-7.991798937E-1,1.822062564E0,-1.130027050E0,2.288134966E0
1.633703908E1,-2.273230800E-1,2.396580738E0,-1.472187399E0,2.821809836E0
1.634703908E1,-1.390272000E-1,2.639332573E0,-9.705711401E-1,2.815566254E0
1.635704008E1,1.326145586E-1,3.030979663E0,-9.689081919E-1,3.184840250E0
1.636704008E1,3.084610909E-1,3.255586419E0,-1.240901953E0,3.497689070E0
1.637704008E1,6.095918199E-1,3.474016176E0,-1.226453483E0,3.734244063E0
1.638704008E1,9.290708193E-1,3.705326765E0,-8.176967832E-1,3.906564610E0
1.639704108E1,8.284586567E-1,3.901065817E0,3.807777730E-1,4.006201439E0
1.640704108E1,4.284561887E-1,4.099387584E0,1.499244804E0,4.385919317E0
1.641704108E1,1.179646522E-1,4.242152032E0,1.891252667E0,4.646138846E0
1.642704108E1,-7.247623801E-3,4.533975456E0,2.389996773E0,5.125336139E0
1.643704208E1,-1.320193121E-1,4.623512700E0,2.490260149E0,5.253160420E0
1.644704208E1,-1.952797535E-1,4.634278593E0,2.250006390E0,5.155308043E0
1.645704208E1,-3.789241326E-1,4.522244772E0,2.026344398E0,4.969944959E0
1.646704308E1,-6.092520967E-1,4.234836581E0,1.978805366E0,4.713883713E0
1.647704308E1,-4.409493497E-1,3.866911061E0,1.701062768E0,4.247475959E0
1.648704308E1,-1.026247743E-1,3.394413351E0,1.046335925E0,3.553504286E0
1.649704308E1,3.610246360E-2,2.941394472E0,8.833727825E-1,3.071392567E0
1.650704408E1,1.890390202E-1,2.712952527E0,5.050732056E-1,2.766034365E0
1.651704408E1,3.891947669E-1,2.303574926E0,2.165773594E-1,2.346238640E0
1.652704408E1,7.060913435E-1,1.908662751E0,6.378617920E-2,2.036081325E0
1.653704408E1,1.211707390E0,1.565251098E0,-6.378750944E-1,2.079694794E0
1.654704508E1,1.753026243E0,1.313052501E0,-2.185952336E0,3.094445910E0
1.655704508E1,2.078129387E0,7.535569936E-1,-4.685559844E0,5.180824349E0
1.656704508E1,2.621464944E0,-8.952701122E-1,-6.585038373E0,7.143970703E0
1.657704608E1,4.121778620E0,-3.792702878E0,-6.703560265E0,8.735638176E0
1.658704608E1,5.175346016E0,-5.383989288E0,-7.128292655E0,1.032395773E1
1.659704704E1,5.328758243E0,-5.331125196E0,-7.878657653E0,1.090366024E1
1.660704704E1,4.566056204E0,-4.188041314E0,-6.211642199E0,8.773429097E0
1.661704804E1,2.954461829E0,-2.119332669E0,-3.254900540E0,4.880040285E0
