"Time (s)","Linear Acceleration x (m/s^2)","Linear Acceleration y (m/s^2)","Linear Acceleration z (m/s^2)","Absolute acceleration (m/s^2)"
9.023332968E-4,2.336585382E-1,4.191064909E-1,-6.500588207E0,6.518273821E0
1.086933335E-2,-3.984438926E-2,6.078894031E-1,-6.284814840E0,6.314270716E0
2.083533333E-2,-1.315589900E-1,7.514423481E-1,-5.717183517E0,5.767855818E0
3.080133331E-2,7.374157548E-2,9.020999524E-1,-4.558599250E0,4.647585316E0
4.076733330E-2,4.680642043E-1,9.833563694E-1,-3.066474016E0,3.254126110E0
5.073433334E-2,7.211642960E-1,1.131684443E0,-1.679916751E0,2.150094861E0
6.070033333E-2,7.194164170E-1,1.351260255E0,-5.529027718E-1,1.627625796E0
7.066633331E-2,4.247570939E-1,1.597846694E0,1.713994324E-2,1.653428688E0
8.063333330E-2,4.675711378E-2,1.736745256E0,8.705159247E-2,1.739554049E0
9.059933334E-2,-1.528501640E-1,1.707606533E0,-2.265217191E-1,1.729333784E0
1.005653333E-1,-3.377725983E-1,1.613529511E0,-8.068701518E-1,1.835376597E0
1.105323333E-1,-6.880462512E-1,1.813955984E0,-1.248622617E0,2.307141607E0
1.204983333E-1,-1.039720897E0,2.174661655E0,-1.423616332E0,2.799438572E0
1.304643333E-1,-1.231658528E0,2.472459763E0,-1.267643609E0,3.039236800E0
1.404313333E-1,-1.263631688E0,2.596626557E0,-7.494972718E-1,2.983451136E0
1.503973333E-1,-1.211520133E0,2.577556155E0,7.803167760E-2,2.849151753E0
1.603633333E-1,-1.073615160E0,2.386719116E0,1.107158589E0,2.841632945E0
1.703293333E-1,-9.797778735E-1,1.905064082E0,2.423455126E0,3.234558484E0
1.802963333E-1,-7.768053769E-1,1.483024482E0,3.582561548E0,3.954432381E0
1.902623333E-1,-8.086851275E-1,1.256940719E0,3.998029025E0,4.268267528E0
2.002283333E-1,-1.122018996E0,1.426449162E0,3.901459334E0,4.302913987E0
2.101953333E-1,-1.373999053E0,1.997291923E0,3.628941663E0,4.364202793E0
2.201613333E-1,-1.229901586E0,2.575362280E0,3.226118206E0,4.307317897E0
2.301273333E-1,-8.019584906E-1,2.859277052E0,2.942887266E0,4.180811900E0
2.400943333E-1,-4.052004965E-1,2.967384176E0,2.767363792E0,4.077727142E0
2.500603333E-1,-4.148646283E-1,2.930984089E0,2.732866389E0,4.028813608E0
2.600263333E-1,-5.568090042E-1,2.534577074E0,2.955687405E0,3.933218180E0
2.699933333E-1,-7.563430457E-1,1.802778885E0,3.143185977E0,3.701578663E0
2.799593333E-1,-9.873523566E-1,8.361154394E-1,3.253857397E0,3.501648421E0
2.899253333E-1,-1.230699146E0,-2.156343497E-1,3.621293505E0,3.830781279E0
2.998923333E-1,-1.454846896E0,-1.026067649E0,3.868117926E0,4.258136987E0
3.098583333E-1,-1.615162054E0,-1.564782882E0,3.658832045E0,4.294688098E0
3.198243333E-1,-1.578074188E0,-1.856756433E0,3.145559946E0,3.978996101E0
3.297903333E-1,-1.250806113E0,-1.945706617E0,2.497404862E0,3.404015455E0
3.397573333E-1,-5.364342351E-1,-1.974682494E0,1.831350281E0,2.746083847E0
3.497233333E-1,2.530492209E-1,-1.936283536E0,1.146513274E0,2.264447069E0
3.596893333E-1,9.358103201E-1,-1.842071443E0,3.435204113E-1,2.094510547E0
3.696563334E-1,1.494541596E0,-1.774569724E0,-6.278050196E-1,2.403516472E0
3.796223333E-1,1.813662308E0,-1.808297780E0,-1.727830591E0,3.089451469E0
3.895883333E-1,1.746506305E0,-1.865645370E0,-2.693091289E0,3.712634862E0
3.995553333E-1,1.407594815E0,-1.859815843E0,-3.295224693E0,4.037170285E0
4.095213333E-1,8.890524754E-1,-1.690787602E0,-3.295906479E0,3.809485075E0
4.194873333E-1,2.874596465E-1,-1.350278507E0,-2.868373273E0,3.183308079E0
4.294543333E-1,-3.486709312E-1,-9.414777339E-1,-2.324447147E0,2.531996501E0
4.394203333E-1,-7.233178986E-1,-6.535554264E-1,-1.655321608E0,1.921044795E0
4.493863333E-1,-7.921703247E-1,-5.301889703E-1,-1.091413207E0,1.449074517E0
4.593523333E-1,-6.997522308E-1,-3.636436039E-1,-6.603248942E-1,1.028551808E0
4.693193333E-1,-4.929457149E-1,-6.334683403E-2,-3.727231604E-1,6.212333326E-1
4.792853333E-1,-1.141546065E-1,2.003077012E-1,-4.287511808E-1,4.868079953E-1
4.892513333E-1,3.967212298E-1,3.879303796E-1,-9.211177289E-1,1.075330453E0
4.992183333E-1,8.001280198E-1,6.427886559E-1,-1.664153243E0,1.955195161E0
5.091843333E-1,9.262011521E-1,1.082192806E0,-2.480177795E0,2.860117435E0
5.191503333E-1,9.867144254E-1,1.502334181E0,-3.191443632E0,3.662775697E0
5.291173333E-1,9.164088200E-1,1.855552638E0,-3.666876644E0,4.210565881E0
5.390833333E-1,7.613508935E-1,2.045390388E0,-3.869107275E0,4.442214327E0
5.490493333E-1,6.859161106E-1,1.992659174E0,-3.930190798E0,4.459548318E0
5.590153333E-1,6.225067113E-1,1.727921076E0,-3.996685334E0,4.398490595E0
5.689823333E-1,6.596271752E-1,1.243313199E0,-4.139383709E0,4.372119990E0
5.789483333E-1,6.820310743E-1,6.689425206E-1,-4.150409219E0,4.258937328E0
5.889143333E-1,4.773719484E-1,1.286751433E-1,-3.788265426E0,3.820392153E0
5.988813333E-1,1.175046225E-1,-1.514396694E-1,-3.046337959E0,3.052362408E0
6.088473334E-1,-1.750996967E-1,-7.276041269E-2,-2.045764171E0,2.054532800E0
6.188133333E-1,-3.909802142E-1,8.371853337E-2,-1.010895878E0,1.087099258E0
6.287803333E-1,-4.482475519E-1,2.007878307E-1,-2.134935379E-2,4.916273138E-1
6.387463333E-1,-3.726494855E-1,1.514531180E-1,1.278073872E0,1.339880035E0
6.487123333E-1,-3.256357520E-1,-1.797707449E-1,2.950061215E0,2.973418459E0
6.586793333E-1,-1.958889603E-1,-6.221665496E-1,4.574949819E0,4.621215160E0
6.686453333E-1,-1.579738598E-1,-1.158317779E0,5.713859959E0,5.832225257E0
6.786113333E-1,-3.370677895E-1,-1.523336648E0,6.052751715E0,6.250597776E0
6.885773333E-1,-6.878321701E-1,-1.468304847E0,5.573891065E0,5.804937022E0
6.985443333E-1,-7.922110359E-1,-1.113226391E0,4.419885753E0,4.626257818E0
7.085103333E-1,-2.498377839E-1,-5.585315940E-1,2.764508597E0,2.831410292E0
7.184763333E-1,5.595114411E-1,7.409840181E-2,1.500027747E0,1.602693628E0
7.284433333E-1,1.272724547E0,9.157666495E-1,1.072482846E0,1.899651490E0
7.384093333E-1,1.809722161E0,1.816117700E0,1.396129741E0,2.919341716E0
7.483753333E-1,2.158884843E0,2.214559546E0,2.472129103E0,3.959353489E0
7.583423333E-1,2.128818899E0,1.993691207E0,3.964610433E0,4.921870622E0
7.683083333E-1,1.753036768E0,1.230119980E0,4.937293587E0,5.381747025E0
7.782743333E-1,1.178749705E0,2.366064119E-1,5.114072458E0,5.253491274E0
7.882403333E-1,6.179863751E-1,-5.686054695E-1,4.673321621E0,4.748173788E0
7.982073333E-1,1.650923333E-1,-8.834536202E-1,3.599305050E0,3.709817061E0
8.081733333E-1,3.495655552E-2,-9.581776741E-1,2.465066836E0,2.644972764E0
8.181393333E-1,4.838804841E-1,-1.124095050E0,1.981790954E0,2.329211323E0
8.281063333E-1,1.089575866E0,-1.295726616E0,2.222617301E0,2.793941785E0
8.380723333E-1,1.388489769E0,-1.398851474E0,2.667850614E0,3.316943801E0
8.480383333E-1,1.245254328E0,-1.521881130E0,2.841060929E0,3.455200098E0
8.580053333E-1,9.691417882E-1,-1.612086565E0,2.417585691E0,3.063132297E0
8.679713333E-1,7.489890026E-1,-1.594724573E0,1.350258334E0,2.219758672E0
8.779373333E-1,7.124627620E-1,-1.435802661E0,-2.327028108E-1,1.619655231E0
8.879043333E-1,7.156348765E-1,-1.069229383E0,-1.987286167E0,2.367422873E0
8.978703333E-1,7.928523293E-1,-5.293517221E-1,-3.580164775E0,3.704916716E0
9.078363333E-1,9.200732701E-1,1.596661171E-1,-4.879937664E0,4.968482635E0
9.178023333E-1,1.041352855E0,8.983984456E-1,-5.673946280E0,5.838253329E0
9.277693333E-1,1.177257934E0,1.483453960E0,-5.942321784E0,6.236806882E0
9.377353333E-1,1.202685575E0,1.857922953E0,-5.817731068E0,6.224493961E0
9.477013333E-1,1.151616286E0,2.044478807E0,-5.592551284E0,6.064877866E0
9.576683333E-1,1.015773187E0,2.066257785E0,-5.282679845E0,5.762631582E0
9.676343333E-1,9.396471168E-1,1.922160464E0,-4.836810941E0,5.288891909E0
9.776003333E-1,9.103603140E-1,1.647514406E0,-4.447288730E0,4.829227336E0
9.875682083E-1,8.467174646E-1,1.312341480E0,-4.028480154E0,4.320627614E0
9.975342083E-1,6.536482510E-1,1.111337960E0,-3.458854930E0,3.691341968E0
1.007500208E0,2.584236892E-1,9.971796258E-1,-2.987499767E0,3.160111528E0
1.017466208E0,-1.010021719E-1,9.361145946E-1,-2.949971752E0,3.096586074E0
1.027433208E0,-6.235618414E-1,8.682355106E-1,-3.187255856E0,3.361734993E0
1.037399208E0,-1.358735335E0,8.791620563E-1,-3.404302747E0,3.769398470E0
1.047365208E0,-1.949819840E0,9.278472164E-1,-3.470746998E0,4.087637776E0
1.057332208E0,-2.250705571E0,9.339683010E-1,-3.317086848E0,4.115949163E0
1.067298208E0,-1.988115595E0,9.362991473E-1,-2.740045601E0,3.512422185E0
1.077264208E0,-1.447306473E0,1.090778273E0,-1.890726417E0,2.619034107E0
1.087230208E0,-1.106533083E0,1.430518970E0,-1.314418995E0,2.235731935E0
1.097197208E0,-1.133655247E0,1.772048405E0,-8.756831092E-1,2.278629122E0
1.107163208E0,-1.583276602E0,1.981798555E0,1.690073365E-1,2.542214348E0
1.117129208E0,-2.371366374E0,1.854779197E0,1.700151041E0,3.457469872E0
1.127096208E0,-3.461751641E0,1.318464684E0,3.256781589E0,4.932413189E0
1.137062208E0,-4.239077566E0,6.249568409E-1,4.333991325E0,6.094573855E0
1.147028208E0,-4.334633349E0,9.878139943E-2,4.962683367E0,6.589918834E0
1.156995208E0,-4.036565099E0,-4.785595179E-2,5.166901467E0,6.556906188E0
1.166961208E0,-3.559469432E0,2.478938039E-1,4.700920479E0,5.901688515E0
1.176927208E0,-3.030660989E0,6.960619068E-1,3.586566891E0,4.746880057E0
1.186893208E0,-2.594225105E0,1.100123804E0,2.235696353E0,3.597028561E0
1.196860208E0,-2.576029447E0,1.506072013E0,1.293035728E0,3.252095020E0
1.206826208E0,-2.803052273E0,1.623495798E0,8.025894052E-1,3.337212970E0
1.216792208E0,-2.813003357E0,1.152219572E0,9.809066784E-1,3.194178414E0
1.226759208E0,-2.529554900E0,1.148626312E-1,1.824388002E0,3.120934635E0
1.236725208E0,-2.358377077E0,-1.143605527E0,3.013233948E0,3.993664340E0
1.246691208E0,-2.421177050E0,-2.281814220E0,4.052285923E0,5.243071204E0
1.256658208E0,-2.520889034E0,-3.299738159E0,4.718069193E0,6.285167488E0
1.266624208E0,-2.504262184E0,-3.986821374E0,4.844820457E0,6.755616849E0
1.276590208E0,-2.007659621E0,-4.096715699E0,4.645661368E0,6.511216954E0
1.286556208E0,-1.003223746E0,-3.714782005E0,4.531143649E0,5.944520670E0
1.296523208E0,1.286688575E-1,-3.117850576E0,4.640514649E0,5.592130550E0
1.306489208E0,1.000548938E0,-2.562201952E0,4.535095782E0,5.304061724E0
1.316455208E0,1.311742140E0,-2.190544446E0,4.112670119E0,4.840785879E0
1.326422208E0,1.274182843E0,-2.066736672E0,3.386112644E0,4.166617480E0
1.336388208E0,1.043894347E0,-2.024409408E0,2.334568677E0,3.261619194E0
1.346354208E0,8.513668782E-1,-1.817313455E0,1.099355480E0,2.288238674E0
1.356320208E0,7.878468204E-1,-1.288391577E0,-9.075521886E-2,1.512908450E0
1.366287208E0,8.904458669E-1,-5.269198651E-1,-1.184361132E0,1.572656885E0
1.376253208E0,1.173919759E0,2.802759035E-1,-2.145206013E0,2.461412404E0
1.386219208E0,1.560380660E0,9.768598936E-1,-3.046510452E0,3.559532131E0
1.396186208E0,1.905974494E0,1.431013060E0,-3.856045765E0,4.533169541E0
1.406152208E0,2.138157780E0,1.653142059E0,-4.462005587E0,5.216712682E0
1.416118208E0,2.281692306E0,1.652938575E0,-4.755253977E0,5.527274744E0
1.426085208E0,2.234847045E0,1.523410908E0,-4.812321047E0,5.520303975E0
1.436051208E0,2.075396398E0,1.333392772E0,-4.701331539E0,5.309211309E0
1.446017208E0,1.778437950E0,1.083613387E0,-4.435729369E0,4.900281068E0
1.455983208E0,1.458312833E0,7.245089033E-1,-3.975925965E0,4.296460956E0
1.465950208E0,1.229999819E0,2.993577801E-1,-3.510786976E0,3.732042313E0
1.475916208E0,9.376440069E-1,3.370539755E-2,-3.247996733E0,3.380797999E0
1.485882208E0,6.411948511E-1,-6.294162199E-2,-3.267624081E0,3.330534435E0
1.495849208E0,6.299395457E-1,-1.012152299E-1,-3.523525136E0,3.580823611E0
1.505815208E0,7.715181783E-1,-3.247887097E-2,-3.799880335E0,3.877548934E0
1.515781208E0,1.030536968E0,-1.441937998E-2,-4.120257466E0,4.247203309E0
1.525748208E0,1.371633708E0,1.511409498E-1,-4.452361189E0,4.661302691E0
1.535714208E0,1.610211509E0,3.981245615E-1,-4.717324258E0,5.000443223E0
1.545680208E0,1.737590178E0,6.411470501E-1,-4.800752916E0,5.145630936E0
1.555646208E0,1.617317338E0,6.461800410E-1,-4.444708938E0,4.773751309E0
1.565613208E0,1.187216620E0,5.921964996E-1,-3.765338493E0,3.992236712E0
1.575579208E0,8.059249493E-1,3.208152343E-1,-2.524556408E0,2.669423626E0
1.585545208E0,6.704397002E-1,-2.850510322E-1,-6.441035485E-1,9.724262768E-1
1.595512208E0,3.781008446E-1,-7.784034209E-1,1.400874757E0,1.646609309E0
1.605478208E0,1.562326321E-1,-1.214669151E0,3.549899002E0,3.755211406E0
1.615444208E0,5.209693730E-2,-1.678111570E0,5.349084919E0,5.606378689E0
1.625410208E0,-3.245374256E-1,-2.077849013E0,6.134906264E0,6.485357039E0
1.635377208E0,-6.687649114E-1,-2.319679181E0,6.197081462E0,6.650712492E0
1.645343208E0,-6.261961582E-1,-2.360963008E0,5.581225812E0,6.092318896E0
1.655309208E0,7.968877852E-3,-2.209933667E0,4.375198408E0,4.901655988E0
1.665276208E0,1.047878640E0,-1.637122003E0,3.598496965E0,4.089914242E0
1.675242208E0,1.696418179E0,-4.180332345E-1,3.475424770E0,3.889879658E0
1.685208208E0,1.879916231E0,1.026312208E0,3.831022605E0,4.389092843E0
1.695174208E0,1.843824877E0,1.823399968E0,4.411561657E0,5.117260388E0
1.705141208E0,1.725834205E0,1.546180843E0,5.390098459E0,5.867055505E0
1.715107208E0,1.460529220E0,5.591894057E-1,6.598317400E0,6.781123130E0
1.725073208E0,9.798514022E-1,-6.627874491E-1,7.535706176E0,7.627992105E0
1.735040208E0,3.285576788E-1,-1.549523111E0,7.860089820E0,8.018103516E0
1.745006208E0,-2.240221806E-1,-1.792947231E0,7.417344498E0,7.634254719E0
1.754972208E0,-3.103754693E-1,-1.564490229E0,6.324297579E0,6.522323396E0
1.764938208E0,2.003241464E-1,-1.161698055E0,4.793110605E0,4.935947873E0
1.774905208E0,1.145484311E0,-6.602364551E-1,3.177730742E0,3.441804636E0
1.784871208E0,1.984941580E0,-5.684370697E-2,1.596728999E0,2.548091007E0
1.794837208E0,2.459834163E0,4.590472130E-1,1.374282789E-1,2.506071624E0
1.804804208E0,2.516162730E0,8.469386356E-1,-1.112538612E0,2.878562506E0
1.814770208E0,2.303705757E0,1.087821409E0,-2.104547984E0,3.304472401E0
1.824736208E0,1.993401331E0,1.116963785E0,-2.980679575E0,3.755756607E0
1.834702208E0,1.715906656E0,9.783271793E-1,-3.813609012E0,4.294772802E0
1.844669208E0,1.507280779E0,8.268030176E-1,-4.630981348E0,4.939786111E0
1.854635208E0,1.390694608E0,7.366711119E-1,-5.268785107E0,5.498800989E0
1.864601208E0,1.292608735E0,7.568873484E-1,-5.569301001E0,5.767220252E0
1.874568208E0,1.183425431E0,8.156659721E-1,-5.629634911E0,5.810214794E0
1.884534208E0,1.069694163E0,8.989927420E-1,-5.447909296E0,5.624246549E0
1.894500208E0,9.481258719E-1,9.577416911E-1,-4.970081264E0,5.149555281E0
1.904466208E0,8.395593032E-1,9.662284861E-1,-4.468849753E0,4.648556273E0
1.914433208E0,6.688635832E-1,7.822366362E-1,-3.793085285E0,3.930237732E0
1.924399208E0,3.203420484E-1,3.407697348E-1,-2.868194348E0,2.906076713E0
1.934365208E0,-4.734242007E-2,3.698853604E-2,-2.325234182E0,2.326010201E0
1.944332208E0,-3.459073909E-1,-1.111415362E-1,-2.211419883E0,2.241067216E0
1.954298208E0,-5.053649086E-1,-2.809403665E-1,-2.506361627E0,2.572191631E0
1.964264208E0,-5.169230998E-1,-4.013541980E-1,-3.183836405E0,3.250401350E0
1.974230208E0,-5.619106999E-1,-6.217646997E-1,-3.774269530E0,3.866192631E0
1.984196083E0,-6.759428072E-1,-7.123632132E-1,-4.187728488E0,4.301328854E0
1.994162083E0,-9.231718558E-1,-3.881634642E-1,-4.438626080E0,4.550199844E0
2.004128083E0,-1.082926704E0,9.766633540E-2,-4.470322081E0,4.600657396E0
2.014095083E0,-1.428793896E0,6.981030236E-1,-4.465461291E0,4.740162905E0
2.024061083E0,-1.919631543E0,1.533079133E0,-4.163605800E0,4.834348989E0
2.034027083E0,-2.264957136E0,2.351650294E0,-3.099758121E0,4.502087332E0
2.043993083E0,-2.309567152E0,2.757692205E0,-1.403420050E0,3.861159743E0
2.053960083E0,-2.299902143E0,2.629813306E0,4.030731332E-1,3.516807621E0
2.063926083E0,-2.577262625E0,1.982150704E0,2.222299213E0,3.938250607E0
2.073892083E0,-3.220977919E0,9.565889856E-1,4.007611442E0,5.229790694E0
2.083859083E0,-4.038522747E0,2.257186040E-2,5.482268119E0,6.809217224E0
2.093825083E0,-4.409577112E0,-5.906713995E-1,6.119736248E0,7.566005204E0
2.103791083E0,-4.114927145E0,-7.925032505E-1,5.719701912E0,7.090534308E0
2.113757083E0,-3.701722541E0,-4.881143068E-1,4.535264767E0,5.874489923E0
2.123724083E0,-3.276922324E0,6.850363970E-2,2.777957777E0,4.296505799E0
2.133690083E0,-2.918628922E0,8.517387611E-1,1.160248384E0,3.254232631E0
2.143656083E0,-2.835633251E0,2.081573543E0,3.491892868E-1,3.534925389E0
2.153623083E0,-2.455685563E0,3.029840040E0,5.058081275E-1,3.932704428E0
2.163589083E0,-1.382854807E0,2.975535487E0,1.385068563E0,3.561532504E0
2.173555083E0,-3.473909757E-1,2.104090878E0,2.660455055E0,3.409677406E0
2.183521083E0,2.536987004E-1,1.040641395E0,4.251191828E0,4.384054003E0
2.193488083E0,5.124284913E-1,6.009329706E-3,5.687059246E0,5.710101745E0
2.203454083E0,4.935276590E-1,-9.871061888E-1,6.919358191E0,7.006815678E0
2.213420083E0,1.722208200E-1,-1.879630595E0,7.441263703E0,7.676918437E0
2.223387083E0,-2.872722432E-1,-2.518569444E0,6.805157391E0,7.261947708E0
2.233353083E0,-3.863701232E-1,-2.844658720E0,5.385700768E0,6.103043329E0
2.243319083E0,1.103919232E-1,-2.976049749E0,3.660441783E0,4.718886790E0
2.253285083E0,9.939845610E-1,-2.900195575E0,2.151187130E0,3.745229732E0
2.263252083E0,1.636033398E0,-2.517147401E0,1.037643381E0,3.176372161E0
2.273218083E0,1.627600543E0,-1.925824183E0,2.433921057E-1,2.533203906E0
2.283184083E0,1.054147148E0,-1.486023811E0,-2.117762107E-1,1.834214311E0
2.293151083E0,4.087966803E-1,-1.509349085E0,-5.083680385E-1,1.644289345E0
2.303117083E0,-9.854371011E-2,-1.768733034E0,-7.992693561E-1,1.943439968E0
2.313083083E0,-3.777190214E-1,-1.938865959E0,-1.160510924E0,2.290995083E0
2.323049083E0,-4.318651155E-1,-1.897955622E0,-1.738070235E0,2.609527000E0
2.333016083E0,-3.135668796E-1,-1.582413261E0,-2.451608300E0,2.934746867E0
2.342982083E0,-8.127366632E-2,-1.054010323E0,-3.377580972E0,3.539151931E0
2.352948083E0,4.606167519E-1,-5.055604979E-1,-4.333532318E0,4.387170109E0
2.362914083E0,1.097848360E0,1.747291294E-1,-4.846126724E0,4.971996130E0
2.372881083E0,1.910280968E0,9.011948034E-1,-4.804129683E0,5.247950787E0
2.382847083E0,2.322522536E0,1.615944411E0,-4.347197846E0,5.186859973E0
2.392813083E0,2.388693721E0,2.010414829E0,-3.560925681E0,4.735801641E0
2.402780083E0,2.091976763E0,1.858893883E0,-2.810315684E0,3.966072048E0
2.412746083E0,1.334812329E0,1.328388578E0,-2.306368141E0,2.977528198E0
2.422712083E0,6.729601425E-1,6.051308329E-1,-2.269336554E0,2.443142868E0
2.432678083E0,2.298251036E-1,-5.855094776E-2,-2.664431747E0,2.674966229E0
2.442645083E0,-7.705665439E-2,-4.441989398E-1,-3.002359881E0,3.036019644E0
2.452611083E0,-9.005355299E-2,-6.739108998E-1,-3.224616641E0,3.295514834E0
2.462577083E0,-4.158481300E-2,-6.597755483E-1,-3.264855425E0,3.331113030E0
2.472544083E0,-1.696473143E-1,-3.884059775E-1,-3.139625607E0,3.168104854E0
2.482510083E0,-3.648861372E-1,-3.401442289E-2,-2.894992722E0,2.918095567E0
2.492476083E0,-5.127034566E-1,3.821880484E-1,-2.543590264E0,2.622743596E0
2.502442083E0,-7.339220434E-1,6.922435288E-1,-2.053698843E0,2.288126221E0
2.512409083E0,-8.095005217E-1,7.362353481E-1,-1.119396227E0,1.565369444E0
2.522375083E0,-8.510598993E-1,5.230156061E-1,1.340766549E-1,1.007881355E0
2.532341083E0,-6.906397837E-1,1.804874673E-2,1.528606013E0,1.677481866E0
2.542308083E0,-3.537857831E-1,-6.255411239E-1,3.004038032E0,3.088804069E0
2.552274083E0,6.052599102E-3,-1.189329219E0,4.382351891E0,4.540875326E0
2.562240083E0,-4.015736148E-2,-1.456903362E0,5.261859664E0,5.459976845E0
2.572206083E0,-3.098498046E-1,-1.600629092E0,5.340633354E0,5.583939918E0
2.582173083E0,-5.404821163E-1,-1.667206366E0,4.450576034E0,4.783233741E0
2.592139083E0,-7.126086500E-1,-1.577349280E0,3.050635078E0,3.507451527E0
2.602105083E0,-5.681783304E-1,-1.328014941E0,1.846703315E0,2.344517740E0
2.612072083E0,-4.754979157E-1,-7.958121899E-1,1.146914393E0,1.474729784E0
2.622038083E0,-6.187125993E-1,1.311349207E-1,7.944974434E-1,1.015493888E0
2.632004083E0,-4.144100073E-1,1.079402734E0,8.735348421E-1,1.449106289E0
2.641970083E0,4.593299259E-1,1.565005223E0,1.401898019E0,2.150707647E0
2.651937083E0,1.719009627E0,1.529434271E0,2.288466890E0,3.245187821E0
2.661903083E0,2.984896587E0,1.082552921E0,3.250477121E0,4.543911308E0
2.671869083E0,3.974775817E0,3.387885520E-1,3.969067181E0,5.627354153E0
2.681835083E0,4.342781737E0,-4.893898769E-1,4.469477744E0,6.251038871E0
2.691802083E0,3.846574737E0,-9.545398289E-1,4.505472618E0,6.000547226E0
2.701768083E0,2.723233978E0,-1.160635908E0,4.225513780E0,5.159267944E0
2.711734083E0,1.597275275E0,-1.371351141E0,3.895302801E0,4.427784567E0
2.721701083E0,9.289282934E-1,-1.491955081E0,3.389954265E0,3.818458806E0
2.731667083E0,6.649042873E-1,-1.508964192E0,2.714248270E0,3.175880085E0
2.741633083E0,7.164084631E-1,-1.443792881E0,1.811677909E0,2.424862020E0
2.751599083E0,7.827872247E-1,-1.228781552E0,7.320749080E-1,1.630519430E0
2.761566083E0,8.816642261E-1,-8.896155623E-1,-3.318522924E-1,1.295713549E0
2.771532083E0,1.132317112E0,-3.755855186E-1,-1.283205974E0,1.752091349E0
2.781498083E0,1.498321529E0,2.033591437E-1,-2.164083749E0,2.639996367E0
2.791464083E0,1.794666604E0,5.925653127E-1,-2.789311316E0,3.369305491E0
2.801431083E0,1.862816195E0,9.224459240E-1,-2.765762240E0,3.459831127E0
2.811397083E0,1.828524322E0,1.120632182E0,-2.460827605E0,3.264198245E0
2.821363083E0,1.857301101E0,1.074549106E0,-2.551122648E0,3.333534149E0
2.831330083E0,1.962643661E0,8.650297746E-1,-2.822585481E0,3.545029683E0
2.841296083E0,1.949602324E0,6.389945439E-1,-3.064770722E0,3.688100165E0
2.851262083E0,1.779659433E0,5.511103079E-1,-3.324367801E0,3.810817700E0
2.861228083E0,1.714791592E0,5.672047690E-1,-3.627533653E0,4.052311916E0
2.871195083E0,1.558975282E0,6.175723922E-1,-3.736214097E0,4.095252784E0
2.881161083E0,1.330925100E0,7.974023402E-1,-3.957036535E0,4.250335310E0
2.891127083E0,1.152263426E0,1.025819434E0,-4.361378514E0,4.626190555E0
2.901094083E0,1.021812045E0,1.190732258E0,-4.599972979E0,4.860215486E0
2.911060083E0,9.927662936E-1,1.406531792E0,-4.862893615E0,5.158648167E0
2.921026083E0,5.059411517E-1,1.628805801E0,-4.742058565E0,5.039454754E0
2.930992083E0,-5.778335452E-2,1.621389339E0,-4.230042449E0,4.530507855E0
2.940959083E0,-7.541186187E-1,1.672821301E0,-3.720948186E0,4.148792764E0
2.950925083E0,-1.299557127E0,1.567143842E0,-3.444937388E0,4.001547470E0
2.960891083E0,-1.721783985E0,1.348425525E0,-3.273804588E0,3.937078608E0
2.970857083E0,-2.660661754E0,1.260313393E0,-2.630623730E0,3.948125129E0
2.980824083E0,-3.526062535E0,1.266227413E0,-1.649907086E0,4.093732069E0
2.990789583E0,-4.112682106E0,1.338001255E0,-4.055272096E-1,4.343829391E0
3.000755583E0,-4.498860879E0,1.100171167E0,1.160762939E0,4.774672387E0
3.010721583E0,-4.640050380E0,5.819287889E-1,2.623356811E0,5.361968817E0
3.020688583E0,-4.744315590E0,4.691279590E-2,3.718849036E0,6.028313975E0
3.030654583E0,-4.663230204E0,-5.697021148E-1,3.546843832E0,5.886457135E0
3.040620583E0,-4.288719550E0,-1.089099318E0,2.711186083E0,5.189391359E0
3.050587583E0,-3.922337695E0,-1.145006447E0,1.437386525E0,4.331495444E0
3.060553583E0,-3.755284498E0,-6.523228334E-1,3.620823973E-1,3.828679982E0
3.070519583E0,-3.814495158E0,3.571819921E-1,-6.115368962E-2,3.831669618E0
3.080485583E0,-3.786348124E0,1.430511515E0,3.602598202E-1,4.063567699E0
3.090452583E0,-3.037304888E0,2.049231131E0,1.685211405E0,4.032927806E0
3.100418583E0,-1.959006693E0,1.802355985E0,3.659116804E0,4.524967415E0
3.110384583E0,-1.147066129E0,9.409896375E-1,5.503832651E0,5.700297891E0
3.120350583E0,-7.662635779E-1,-7.284256607E-2,6.661380790E0,6.705703538E0
3.130317583E0,-7.157272625E-1,-1.055280923E0,6.742633114E0,6.862141405E0
3.140283583E0,-8.602461675E-1,-1.768976862E0,6.065575243E0,6.376559075E0
3.150249583E0,-9.477298692E-1,-2.154212041E0,4.888548274E0,5.425562243E0
3.160216583E0,-7.338586012E-1,-2.180732380E0,3.530849943E0,4.214385302E0
3.170182583E0,-8.367921084E-2,-1.978156325E0,2.141936250E0,2.916846852E0
3.180148583E0,8.596804494E-1,-1.615237191E0,1.165927784E0,2.169661092E0
3.190114583E0,1.500054644E0,-9.444948971E-1,8.278955698E-1,1.956436970E0
3.200081583E0,1.352533194E0,-2.189280863E-1,7.487195921E-1,1.561363691E0
3.210047583E0,4.667136437E-1,1.339629266E-1,8.713234252E-1,9.974829333E-1
3.220013583E0,-3.284071130E-1,-1.304661454E-1,1.301556875E0,1.348674515E0
3.229979583E0,-5.831653288E-1,-7.891408823E-1,1.580838021E0,1.860611185E0
3.239946583E0,-6.246340746E-1,-1.531858965E0,1.240403185E0,2.067694291E0
3.249912583E0,-3.758210152E-1,-2.250429290E0,5.923738164E-1,2.357239946E0
3.259878583E0,-1.233693798E-1,-2.609714672E0,-6.778326273E-2,2.613508225E0
3.269845583E0,-2.217021516E-1,-2.388242754E0,-6.300491810E-1,2.479882511E0
3.279811583E0,-2.990751404E-1,-1.639632944E0,-1.205488291E0,2.056950206E0
3.289777583E0,3.566260681E-2,-7.076365433E-1,-1.771536189E0,1.907973209E0
3.299743583E0,7.803829958E-1,1.784540250E-1,-2.332622724E0,2.466165491E0
3.309710583E0,1.664541644E0,9.672590578E-1,-2.806643048E0,3.403459147E0
3.319676583E0,2.302089294E0,1.614541664E0,-3.111474772E0,4.193761458E0
3.329642583E0,2.581550973E0,2.056700511E0,-3.376696288E0,4.721917009E0
3.339608583E0,2.654137431E0,2.334726698E0,-3.586459302E0,5.035681144E0
3.349575583E0,2.655934865E0,2.375669925E0,-3.680546265E0,5.122911126E0
3.359541583E0,2.321245796E0,2.135308139E0,-4.047657267E0,5.131398664E0
3.369507583E0,1.769903061E0,1.760267435E0,-4.280184077E0,4.954904038E0
3.379473583E0,1.384020742E0,1.413824877E0,-4.189104338E0,4.632818726E0
3.389440583E0,1.190152507E0,1.095204542E0,-3.872042577E0,4.196266161E0
3.399406583E0,9.197401249E-1,8.191419956E-1,-3.472205878E0,3.684172792E0
3.409372583E0,3.306998062E-1,5.833976094E-1,-3.020147696E0,3.093704452E0
3.419338583E0,-2.388210449E-1,2.962360248E-1,-2.488404828E0,2.517329907E0
3.429305583E0,-5.122035196E-1,4.429499745E-2,-1.806166908E0,1.877911977E0
3.439271583E0,-6.867724353E-1,-1.203242961E-1,-9.013114554E-1,1.139515973E0
3.449237583E0,-6.912977417E-1,-2.131374425E-1,2.933343440E-1,7.806184564E-1
3.459204583E0,-3.839650172E-1,-5.307529342E-1,1.386249116E0,1.533236584E0
3.469170583E0,-2.030884176E-3,-9.935099132E-1,2.308085468E0,2.512831988E0
3.479136583E0,2.957007122E-1,-1.497605684E0,3.088385287E0,3.445052304E0
3.489102583E0,2.704486343E-1,-1.908486896E0,3.151308344E0,3.694077554E0
3.499069583E0,2.847184718E-2,-2.216999004E0,2.407222086E0,3.272707350E0
3.509035583E0,-2.168954480E-1,-2.235140575E0,1.409739136E0,2.651464022E0
3.519001583E0,-4.291299342E-1,-1.967699603E0,6.279038376E-1,2.109563333E0
3.528967583E0,-5.080164747E-1,-1.382259999E0,4.101669753E-1,1.528712004E0
3.538934583E0,-2.543923263E-1,-7.477872536E-1,6.748020154E-1,1.038873906E0
3.548900583E0,3.808013812E-1,-3.719380255E-1,1.399676077E0,1.497478116E0
3.558866583E0,1.063838469E0,-6.829094723E-2,2.149807772E0,2.399601925E0
3.568832583E0,1.686712824E0,2.006302482E-1,3.242279325E0,3.660277021E0
3.578799583E0,2.340632678E0,1.495865406E-1,4.711648366E0,5.263132887E0
3.588765583E0,2.865396456E0,-2.472056597E-2,5.930558941E0,6.586549727E0
3.598731583E0,3.240469904E0,-2.661266649E-1,6.588773575E0,7.347340051E0
3.608698583E0,3.305600285E0,-5.848271075E-1,6.628415943E0,7.430000936E0
3.618664583E0,3.028112188E0,-5.927796131E-1,5.882964944E0,6.643051078E0
3.628630583E0,2.564158430E0,-2.223738505E-1,4.595948340E0,5.267551588E0
3.638596583E0,2.248696468E0,6.422903270E-2,3.285356932E0,3.981749784E0
3.648563583E0,1.947884120E0,2.757323246E-1,2.439254302E0,3.133726601E0
3.658529583E0,1.659359403E0,2.818268774E-1,2.084627105E0,2.679285387E0
3.668495583E0,1.333030829E0,2.308173761E-2,1.773079854E0,2.218403959E0
3.678461583E0,9.690951566E-1,-3.462266488E-1,1.196201159E0,1.577946617E0
3.688428583E0,6.257032380E-1,-7.123781236E-1,4.288973612E-1,1.040644069E0
3.698394583E0,1.223756455E-1,-9.065281950E-1,-4.997024649E-1,1.042339542E0
3.708360583E0,-3.798854148E-1,-8.709011100E-1,-1.686743960E0,1.935945986E0
3.718326583E0,-4.924867085E-1,-6.623610409E-1,-2.852292845E0,2.969316383E0
3.728293583E0,-2.757244308E-1,-4.310757414E-1,-3.848081272E0,3.881955658E0
3.738259583E0,1.562897886E-1,-1.258678950E-1,-4.626621664E0,4.630971523E0
3.748225583E0,4.602434072E-1,1.747539070E-1,-5.159604726E0,5.183038091E0
3.758191583E0,6.629374301E-1,5.179609805E-1,-5.360400451E0,5.426017196E0
3.768158583E0,6.517445438E-1,7.404409580E-1,-5.349185491E0,5.439375808E0
3.778124583E0,4.593246634E-1,7.582178823E-1,-5.216184724E0,5.290978792E0
3.788090583E0,2.108962047E-1,5.971273103E-1,-4.988389481E0,5.028425981E0
3.798057583E0,4.895873666E-3,3.514906778E-1,-4.684013840E0,4.697185894E0
3.808023583E0,-6.048871502E-2,1.054568732E-1,-4.317321498E0,4.319032872E0
3.817989583E0,-6.750084221E-2,-5.456256196E-3,-4.026876263E0,4.027445663E0
3.827955583E0,-1.128044844E-2,1.528821044E-1,-3.847431062E0,3.850483861E0
3.837922583E0,1.617139582E-1,4.791398540E-1,-3.615533997E0,3.650727666E0
3.847888583E0,3.473417129E-1,8.986591583E-1,-3.550624056E0,3.679016953E0
3.857854583E0,3.508235836E-1,1.324111048E0,-3.722007701E0,3.966067143E0
3.867820583E0,1.722864550E-1,1.597423648E0,-3.823776736E0,4.147615394E0
3.877787583E0,-6.856810525E-2,1.734094713E0,-3.655219050E0,4.046283772E0
3.887753583E0,-3.987448780E-1,1.868385668E0,-3.120119880E0,3.658553068E0
3.897719583E0,-7.299228403E-1,1.979075215E0,-2.239679477E0,3.076636185E0
3.907685583E0,-8.463360800E-1,1.909011392E0,-8.013702607E-1,2.236694782E0
3.917652583E0,-1.027774743E0,1.744680512E0,5.880533087E-1,2.108562948E0
3.927618583E0,-1.228859612E0,1.599989845E0,1.562232181E0,2.551594176E0
3.937584583E0,-1.226413137E0,1.246651520E0,2.556459986E0,3.097372573E0
3.947550583E0,-1.252631760E0,7.338050991E-1,3.800500140E0,4.068335969E0
3.957517583E0,-1.554945381E0,2.997546599E-1,4.872319327E0,5.123202477E0
3.967483583E0,-2.080153839E0,1.166675205E-1,5.301928879E0,5.696586798E0
3.977449583E0,-2.648435519E0,3.798943318E-2,4.969194242E0,5.631034124E0
3.987415833E0,-3.103188390E0,2.259743466E-1,3.980637651E0,5.052357737E0
3.997382833E0,-3.283231469E0,6.621183814E-1,2.662459481E0,4.278632973E0
4.007348833E0,-3.173880643E0,1.206612565E0,1.211412690E0,3.605128697E0
4.017314833E0,-3.021072433E0,1.837441618E0,1.677525240E-1,3.539945092E0
4.027281833E0,-2.899604421E0,2.499598445E0,2.298715889E-2,3.828345151E0
4.037247833E0,-2.507088436E0,2.764730206E0,7.528793013E-1,3.807368222E0
4.047213833E0,-1.903491474E0,2.254441942E0,2.097607339E0,3.620185742E0
4.057179833E0,-1.545635444E0,1.175416719E0,3.734596172E0,4.209251947E0
4.067146833E0,-1.395570163E0,-2.705848745E-1,5.594587870E0,5.772369157E0
4.077112833E0,-1.536726041E0,-1.650161148E0,7.102394752E0,7.451749456E0
4.087078833E0,-1.794802845E0,-2.665230476E0,7.635695903E0,8.284239414E0
4.097044833E0,-1.883148133E0,-3.239948040E0,7.429020218E0,8.320688169E0
4.107011833E0,-1.798601196E0,-3.420090522E0,6.697457526E0,7.732265047E0
4.116977833E0,-1.384843738E0,-3.323551530E0,5.418997153E0,6.506098454E0
4.126943833E0,-7.040638214E-1,-3.064934736E0,3.671157390E0,4.833934980E0
4.136909833E0,-1.792791402E-1,-2.747222765E0,1.685951078E0,3.228282046E0
4.146876833E0,-3.542798728E-1,-2.435646717E0,-3.416358536E-1,2.484875090E0
4.156842833E0,-9.720022461E-1,-2.218367253E0,-2.010607787E0,3.147774659E0
4.166808833E0,-1.382447256E0,-2.139192737E0,-3.049290803E0,3.973094560E0
4.176774833E0,-1.451025156E0,-2.134234883E0,-3.505208732E0,4.352806083E0
4.186741833E0,-1.153172083E0,-2.021851982E0,-3.382708980E0,4.106143122E0
4.196707833E0,-6.763015339E-1,-1.656595863E0,-2.945025008E0,3.445992733E0
4.206673833E0,-2.424793553E-1,-9.339216694E-1,-2.558387228E0,2.734291706E0
4.216639833E0,2.726036257E-1,-1.856071432E-1,-2.288991385E0,2.312627144E0
4.226606833E0,7.459284237E-1,3.767130811E-1,-2.285398271E0,2.433385957E0
4.236572833E0,1.127064997E0,7.828353180E-1,-2.441033025E0,2.800312281E0
4.246538833E0,1.444130558E0,9.813487279E-1,-2.750381724E0,3.257784219E0
4.256504833E0,1.631905117E0,1.023395544E0,-3.224952856E0,3.756430975E0
4.266471833E0,1.763514540E0,7.878314714E-1,-3.828752716E0,4.288357415E0
4.276437833E0,1.918875937E0,3.003184777E-1,-4.568476952E0,4.964197589E0
4.286403833E0,1.947089191E0,-1.198307911E-1,-5.287614895E0,5.635990331E0
4.296369833E0,1.734183883E0,-2.033954696E-1,-5.657532561E0,5.920847755E0
4.306336833E0,1.506017927E0,2.632124126E-2,-5.572322257E0,5.772309602E0
4.316302833E0,1.576528915E0,3.255389806E-1,-5.247724020E0,5.489082477E0
4.326268833E0,1.945218666E0,7.222891541E-1,-4.814779801E0,5.242869617E0
4.336234833E0,2.465773472E0,1.044302995E0,-4.477655075E0,5.217279226E0
4.346201833E0,2.954593391E0,1.165868874E0,-4.226924129E0,5.287320676E0
4.356167833E0,3.371728201E0,1.099454298E0,-4.048310986E0,5.382023101E0
4.366133833E0,3.429417123E0,9.600086566E-1,-3.962152264E0,5.327397956E0
4.376100833E0,2.753795036E0,8.781365278E-1,-3.757946443E0,4.740956900E0
4.386066833E0,1.674347571E0,9.319302540E-1,-3.232960618E0,3.758186816E0
4.396032833E0,6.531582543E-1,9.636701100E-1,-2.425522116E0,2.690433668E0
4.405998833E0,-2.748995349E-2,8.572084659E-1,-1.068802609E0,1.370365305E0
4.415965833E0,-1.328200883E-1,6.516906032E-1,5.877632868E-1,8.875852069E-1
4.425931833E0,1.046419175E-1,3.529478770E-1,2.127010063E0,2.158632424E0
4.435897833E0,7.326242539E-1,-1.496207468E-1,3.589385834E0,3.666444508E0
4.445863833E0,1.415646431E0,-8.787412030E-1,4.568035487E0,4.862426260E0
4.455830833E0,1.713019155E0,-1.492817399E0,4.901379404E0,5.402449303E0
4.465796833E0,1.811833737E0,-1.666880384E0,5.185136594E0,5.739936690E0
4.475762833E0,1.898402203E0,-1.441695631E0,5.652529684E0,6.134615639E0
4.485728833E0,1.811065267E0,-9.163056166E-1,6.229819438E0,6.552115965E0
4.495695833E0,1.577944234E0,-3.735588006E-1,6.468778769E0,6.668924422E0
4.505661833E0,1.347207403E0,-1.238880278E-1,6.136189728E0,6.283561125E0
4.515627833E0,1.234608595E0,-2.275473573E-1,5.446953276E0,5.589752783E0
4.525593833E0,1.013266193E0,-5.139664917E-1,4.609895704E0,4.747842492E0
4.535560833E0,6.975340895E-1,-7.758480415E-1,3.796060933E0,3.936822653E0
4.545526833E0,3.377840734E-1,-9.634133441E-1,3.250808659E0,3.407347984E0
4.555492833E0,-4.923801430E-2,-1.013498035E0,3.100738115E0,3.262541878E0
4.565458833E0,-3.433529616E-1,-1.017367723E0,3.146145837E0,3.324328800E0
4.575425833E0,-3.928645525E-1,-1.039322921E0,3.390625525E0,3.568035334E0
4.585391833E0,-2.748279065E-1,-1.100945557E0,3.808957552E0,3.974389152E0
4.595357833E0,-2.928322144E-2,-1.327145460E0,4.314117808E0,4.513732939E0
4.605323833E0,2.193491589E-1,-1.773018458E0,4.410362978E0,4.758467201E0
4.615290833E0,2.314887826E-1,-2.128017538E0,3.971355781E0,4.511508887E0
4.625256833E0,2.077781770E-1,-2.172521135E0,3.093024468E0,3.785474899E0
4.635222833E0,8.788262799E-2,-1.959986541E0,1.792443493E0,2.657465761E0
4.645188833E0,5.367415063E-2,-1.604556520E0,4.177110529E-1,1.658904779E0
4.655155833E0,1.362418058E-1,-1.191239942E0,-8.537741768E-1,1.471918739E0
4.665121833E0,2.454883325E-1,-7.607667567E-1,-1.961406975E0,2.118052856E0
4.675087833E0,3.758780256E-1,-3.856863279E-1,-2.905127701E0,2.954624374E0
4.685053833E0,5.131248946E-1,-3.094090708E-3,-3.652868469E0,3.688733493E0
4.695020833E0,5.296252987E-1,4.879849006E-1,-4.094396986E0,4.157248958E0
4.704986833E0,5.210722840E-1,9.701962604E-1,-4.394504744E0,4.530393919E0
4.714952833E0,5.063786696E-1,1.338308672E0,-4.649281964E0,4.864495065E0
4.724918833E0,4.424276720E-1,1.392213568E0,-4.852704842E0,5.067814633E0
4.734885833E0,4.140618056E-1,1.218569098E0,-4.996041732E0,5.159146326E0
4.744851833E0,4.555621263E-1,1.011008218E0,-4.962456495E0,5.084845026E0
4.754817833E0,4.677385144E-1,9.274691939E-1,-4.876614107E0,4.986014799E0
4.764783833E0,4.142838536E-1,9.738836608E-1,-4.729491144E0,4.846459221E0
4.774750833E0,3.019515319E-1,9.566924082E-1,-4.534868910E0,4.644509783E0
4.784716833E0,1.235430421E-1,9.319304732E-1,-4.400035041E0,4.499340580E0
4.794682833E0,-6.235821605E-2,9.952311143E-1,-4.275385852E0,4.390136410E0
4.804648833E0,-1.386566328E-1,9.537231921E-1,-4.136833738E0,4.247611913E0
4.814615833E0,-1.515664078E-1,7.827516297E-1,-4.039431989E0,4.117363633E0
4.824581833E0,-1.622997031E-1,7.471469104E-1,-3.894192415E0,3.968539311E0
4.834547833E0,-1.650892635E-1,8.089168234E-1,-3.798045478E0,3.886740324E0
4.844513833E0,-2.823453793E-1,9.439101025E-1,-3.736857290E0,3.864555292E0
4.854480833E0,-5.735279480E-1,1.223689066E0,-3.398968332E0,3.657777325E0
4.864446833E0,-9.741177687E-1,1.509581220E0,-2.766123013E0,3.298359806E0
4.874412833E0,-1.454025654E0,1.695426345E0,-1.693658293E0,2.803058955E0
4.884378833E0,-1.806835537E0,1.694968069E0,-8.911741376E-3,2.477428270E0
4.894345833E0,-1.889536217E0,1.240883827E0,2.369195888E0,3.274634169E0
4.904311833E0,-1.921589776E0,4.962053183E-1,4.761941437E0,5.158954665E0
4.914277833E0,-1.892714763E0,-2.490095989E-1,6.391932907E0,6.670920569E0
4.924243833E0,-1.757736467E0,-7.511219206E-1,7.048586919E0,7.303177335E0
4.934210833E0,-1.790037802E0,-8.260322814E-1,6.609464532E0,6.897215820E0
4.944176833E0,-2.070984089E0,-5.504973735E-1,5.421213832E0,5.829372340E0
4.954142833E0,-2.259005986E0,-4.473660842E-2,3.890582929E0,4.499082677E0
4.964108833E0,-2.332482829E0,6.593104754E-1,2.494308177E0,3.478036764E0
4.974075833E0,-2.310929261E0,1.437909851E0,1.536023791E0,3.125275648E0
4.984041833E0,-2.220446523E0,2.233817497E0,1.151486916E0,3.353542230E0
4.994007958E0,-1.740481042E0,2.599773236E0,1.488149128E0,3.464488846E0
5.003973958E0,-7.836684000E-1,2.217315631E0,2.318836743E0,3.302669921E0
5.013940958E0,2.239755490E-1,1.277000762E0,3.109090278E0,3.368581058E0
5.023906958E0,7.632519695E-1,3.069115788E-1,3.815587710E0,3.903262464E0
5.033872958E0,5.914471789E-1,-4.473907156E-1,4.832741278E0,4.889310430E0
5.043838958E0,-9.901104882E-2,-1.183672184E0,5.995870585E0,6.112392911E0
5.053805958E0,-9.561766107E-1,-1.909761151E0,6.691778126E0,7.024340243E0
5.063771958E0,-1.768593724E0,-2.648246654E0,6.324605142E0,7.081084967E0
5.073737958E0,-2.215912738E0,-3.305804061E0,4.936112450E0,6.340647906E0
5.083703958E0,-2.408656700E0,-3.605326221E0,3.136505533E0,5.351417683E0
5.093670958E0,-2.363185389E0,-3.611697347E0,1.274746222E0,4.500442294E0
5.103636958E0,-2.057500556E0,-3.362958840E0,-2.386722332E-1,3.949653799E0
5.113602958E0,-1.536387195E0,-2.829530804E0,-1.234299862E0,3.448220749E0
5.123568958E0,-7.584359103E-1,-2.138284372E0,-1.669449066E0,2.816832489E0
5.133535958E0,1.288995302E-1,-1.392697718E0,-1.697663051E0,2.199609478E0
5.143501958E0,8.830121554E-1,-7.190970860E-1,-1.712831313E0,2.056842773E0
5.153467958E0,1.326615849E0,-2.392864101E-1,-1.910657237E0,2.338328179E0
5.163433958E0,1.491630560E0,-1.048625037E-3,-2.346515708E0,2.780485352E0
5.173400958E0,1.467482437E0,6.842484847E-2,-2.897736236E0,3.248855484E0
5.183366958E0,1.383453124E0,2.549144827E-2,-3.447726510E0,3.715024959E0
5.193332958E0,1.379383315E0,-1.190241677E-1,-4.021686274E0,4.253331115E0
5.203298958E0,1.534506585E0,-2.394217001E-1,-4.590309870E0,4.845923845E0
5.213265958E0,1.786574789E0,-3.082421127E-1,-5.041834787E0,5.357887708E0
5.223231958E0,1.807132430E0,-1.974302132E-1,-5.234023409E0,5.540731663E0
5.233197958E0,1.487199540E0,1.183641632E-1,-5.166174658E0,5.377279344E0
5.243163958E0,1.086174248E0,4.575468175E-1,-4.930600280E0,5.069511091E0
5.253130958E0,8.738444522E-1,5.510398489E-1,-4.662584379E0,4.775661434E0
5.263096958E0,8.614357835E-1,3.970829532E-1,-4.516940762E0,4.615463176E0
5.273062958E0,9.634009919E-1,1.025459830E-1,-4.538352681E0,4.640614422E0
5.283028958E0,1.217942276E0,-3.274753591E-1,-4.715492325E0,4.881238713E0
5.292995958E0,1.573059762E0,-7.290548211E-1,-4.994721431E0,5.287086166E0
5.302961958E0,1.780297949E0,-8.097133604E-1,-5.074887342E0,5.438711065E0
5.312927958E0,1.702742381E0,-5.983354913E-1,-4.589328123E0,4.931457147E0
5.322893958E0,1.174245887E0,-2.333249545E-1,-3.700687584E0,3.889522147E0
5.332860958E0,4.063215539E-1,1.595247607E-1,-2.486186979E0,2.524216918E0
5.342826958E0,-2.037734190E-1,4.302441211E-1,-7.527652806E-1,8.906678268E-1
5.352792958E0,-1.823581378E-1,3.302916706E-1,1.437920961E0,1.486594688E0
5.362758958E0,3.291538024E-1,-1.864413947E-2,3.507760457E0,3.523219161E0
5.372725958E0,7.400746299E-1,-3.232777892E-1,5.100378864E0,5.163921334E0
5.382691958E0,8.637561049E-1,-5.736906467E-1,6.008656692E0,6.097470853E0
5.392657958E0,6.273597541E-1,-7.405877231E-1,5.902632054E0,5.981898996E0
5.402623958E0,2.942864169E-1,-7.552383605E-1,4.923943225E0,4.990211053E0
5.412590958E0,1.115134192E-1,-5.715401870E-1,3.704943187E0,3.750426302E0
5.422556958E0,2.715737848E-1,-2.467910922E-1,2.805251995E0,2.829151272E0
5.432522958E0,6.670369130E-1,1.135371405E-1,2.286848965E0,2.384849495E0
5.442488958E0,1.120205628E0,5.112235263E-1,1.988375503E0,2.338770464E0
5.452455958E0,1.589547887E0,8.929592925E-1,1.991115509E0,2.699736978E0
5.462421958E0,2.024270976E0,1.064755897E0,2.338667575E0,3.271199188E0
5.472387958E0,2.398415009E0,8.571113290E-1,2.883332205E0,3.847159860E0
5.482353958E0,2.542678683E0,3.439322014E-1,3.534456505E0,4.367595109E0
5.492320958E0,2.529304932E0,-3.196612863E-1,4.082053514E0,4.812767152E0
5.502286958E0,2.495303373E0,-8.884437802E-1,4.452590400E0,5.180871794E0
5.512252958E0,2.600479287E0,-1.289921939E0,4.529967189E0,5.380241061E0
5.522218958E0,3.011950192E0,-1.630405891E0,4.438108601E0,5.605967827E0
5.532185958E0,3.561010758E0,-1.916087546E0,4.080595803E0,5.744863028E0
5.542151958E0,3.841429480E0,-2.057676265E0,3.391359351E0,5.521949864E0
5.552117958E0,3.480708607E0,-1.876713273E0,2.379993356E0,4.615382269E0
5.562083958E0,2.732254770E0,-1.400181715E0,1.261811596E0,3.319321236E0
5.572050958E0,1.963815736E0,-9.093264531E-1,3.108297980E-1,2.186335291E0
5.582016958E0,1.229416560E0,-5.168882357E-1,-2.478400826E-1,1.356489304E0
5.591982958E0,5.534317987E-1,-1.317561143E-1,-4.651442510E-1,7.348507356E-1
5.601948958E0,1.482375880E-1,1.562416222E-1,-6.349245894E-1,6.704588438E-1
5.611914958E0,2.319894505E-1,3.074597552E-1,-7.903962064E-1,8.792478429E-1
5.621881958E0,5.541751260E-1,3.780507778E-1,-1.035543061E0,1.233848408E0
5.631847958E0,9.484651566E-1,4.699308548E-1,-1.450303609E0,1.795494840E0
5.641813958E0,1.352103569E0,5.176724204E-1,-2.065320768E0,2.522244769E0
5.651780958E0,1.689546823E0,5.735940215E-1,-2.830250012E0,3.345727678E0
5.661746958E0,1.817285243E0,7.750390792E-1,-3.540572693E0,4.054487171E0
5.671712958E0,1.544645656E0,1.080923083E0,-4.005764891E0,4.427242627E0
5.681678958E0,9.114442416E-1,1.303854246E0,-4.267215537E0,4.554107480E0
5.691645958E0,1.224281242E-1,1.271580539E0,-4.229475269E0,4.418185913E0
5.701611958E0,-5.374425875E-1,1.027053562E0,-3.958001325E0,4.124252422E0
5.711577958E0,-1.127147150E0,7.051914570E-1,-3.698581417E0,3.930300266E0
5.721543958E0,-1.555598222E0,4.590763029E-1,-3.518674870E0,3.874494770E0
5.731509958E0,-1.838456695E0,3.214036835E-1,-3.426629755E0,3.901924503E0
5.741476958E0,-2.003775900E0,3.459092912E-1,-3.402920465E0,3.964169369E0
5.751442958E0,-1.993245503E0,6.045600716E-1,-3.426923286E0,4.010277263E0
5.761408958E0,-1.817464167E0,9.510494066E-1,-3.270503835E0,3.860552591E0
5.771374958E0,-1.826761679E0,1.268037127E0,-2.790065607E0,3.567834424E0
5.781341958E0,-2.185712307E0,1.595214278E0,-2.160397664E0,3.462566238E0
5.791307958E0,-2.743320626E0,1.714418978E0,-1.412182102E0,3.529773191E0
5.801273958E0,-3.248683196E0,1.551966224E0,-5.214821738E-1,3.637923216E0
5.811239958E0,-3.586293826E0,1.160826016E0,3.046551383E-1,3.781776725E0
5.821206958E0,-3.882340693E0,6.674711419E-1,8.955338216E-1,4.039810368E0
5.831172958E0,-4.181393030E0,3.174632449E-1,1.511007648E0,4.457350636E0
5.841138958E0,-4.324705654E0,2.070338264E-1,2.082397562E0,4.804406478E0
5.851104958E0,-4.250715280E0,1.689128309E-1,2.459356445E0,4.913811764E0
5.861071958E0,-3.967255713E0,2.043471770E-1,2.677576872E0,4.790646467E0
5.871037958E0,-3.582016588E0,4.014709231E-1,2.668016675E0,4.484454784E0
5.881003958E0,-3.256545654E0,8.153426211E-1,2.208839507E0,4.018562573E0
5.890969958E0,-3.024540709E0,1.285111289E0,1.546707823E0,3.632032849E0
5.900936958E0,-3.194580663E0,1.734341465E0,8.709632367E-1,3.737895517E0
5.910902958E0,-3.753311940E0,2.229710705E0,3.862167799E-1,4.382707353E0
5.920868958E0,-4.197509710E0,2.518272698E0,4.819900793E-1,4.918648146E0
5.930834958E0,-4.116260602E0,2.457086264E0,1.417413606E0,4.998993457E0
5.940801958E0,-3.558069024E0,1.952732192E0,2.909021362E0,4.993538172E0
5.950767958E0,-2.935397860E0,1.122079222E0,4.531702643E0,5.514703185E0
5.960733958E0,-2.788608188E0,2.304257588E-1,6.161154415E0,6.766775849E0
5.970699958E0,-3.127729447E0,-6.244392161E-1,7.557989330E0,8.203402864E0
5.980666958E0,-3.650454739E0,-1.393586787E0,8.338635305E0,9.208731871E0
5.990633333E0,-3.911168928E0,-2.094500860E0,8.517845448E0,9.604054733E0
6.000599333E0,-3.551445298E0,-2.693823946E0,7.925793228E0,9.093274957E0
6.010565333E0,-2.584857866E0,-3.058073906E0,6.540650405E0,7.668990411E0
6.020532333E0,-1.453283935E0,-2.954445457E0,4.782939373E0,5.806659212E0
6.030498333E0,-1.116835731E-1,-2.647882372E0,2.856144991E0,3.896321148E0
6.040464333E0,1.139159524E0,-2.243580739E0,9.875198793E-1,2.703060204E0
6.050430333E0,2.092201003E0,-1.772272207E0,-4.788477856E-1,2.783441937E0
6.060397333E0,2.740893447E0,-1.469532178E0,-1.583550544E0,3.489936108E0
6.070363333E0,2.890501476E0,-1.364490896E0,-2.420442640E0,4.009411024E0
6.080329333E0,2.574487537E0,-1.403483053E0,-3.052165879E0,4.232430426E0
6.090295333E0,2.145593976E0,-1.514722530E0,-3.373706607E0,4.275494606E0
6.100261333E0,2.055641288E0,-1.746043644E0,-3.485961453E0,4.407522746E0
6.110228333E0,2.445923052E0,-2.146480999E0,-3.513411791E0,4.788943795E0
6.120194333E0,2.941050071E0,-2.436215943E0,-3.273108770E0,5.029728090E0
6.130160333E0,3.322404891E0,-2.333785881E0,-2.656630976E0,4.852073674E0
6.140126333E0,3.535982336E0,-1.928434526E0,-1.937652662E0,4.469511007E0
6.150093333E0,3.649805113E0,-1.561816298E0,-1.425740041E0,4.218184701E0
6.160059333E0,3.680704724E0,-1.276734421E0,-1.269233467E0,4.097388393E0
6.170025333E0,3.546635963E0,-1.016431876E0,-1.517405087E0,3.989270436E0
6.179991333E0,3.427665590E0,-9.350307401E-1,-2.189480546E0,4.173367817E0
6.189958333E0,3.348500429E0,-9.758150692E-1,-2.980991231E0,4.588134577E0
6.199924333E0,3.325945964E0,-1.006179514E0,-3.690166104E0,5.068692104E0
6.209890333E0,3.464314768E0,-1.100921072E0,-4.296362153E0,5.627808789E0
6.219856333E0,3.636947671E0,-1.188158021E0,-4.797710025E0,6.136540501E0
6.229823333E0,3.787876878E0,-1.157490106E0,-5.098972608E0,6.456571555E0
6.239789333E0,3.866425157E0,-9.716696857E-1,-5.063549007E0,6.444603480E0
6.249755333E0,3.939491087E0,-7.725034341E-1,-4.720319202E0,6.196593011E0
6.259721333E0,4.019516373E0,-6.544573595E-1,-4.291411901E0,5.916167882E0
6.269688333E0,4.033694994E0,-6.108558418E-1,-3.722745620E0,5.522922697E0
6.279654333E0,4.017743497E0,-5.832821269E-1,-3.096994727E0,5.106256671E0
6.289620333E0,3.977339529E0,-6.011114569E-1,-2.511607749E0,4.742229243E0
6.299586333E0,3.803882754E0,-7.831430277E-1,-1.756865525E0,4.262559499E0
6.309553333E0,3.482580008E0,-9.482453012E-1,-7.010390568E-1,3.676817703E0
6.319519333E0,3.086187319E0,-1.060334379E0,3.263231653E-1,3.279534718E0
6.329485333E0,2.675454918E0,-1.219003838E0,1.229471231E0,3.186789745E0
6.339451333E0,2.531479804E0,-1.273881126E0,1.975022217E0,3.454254750E0
6.349418333E0,2.849372746E0,-1.130889514E0,2.572455044E0,4.001919676E0
6.359384333E0,3.306072740E0,-1.022820836E0,2.948742083E0,4.546576657E0
6.369350333E0,3.506833966E0,-9.302585350E-1,3.074273617E0,4.755462509E0
6.379316333E0,3.322411615E0,-7.328014246E-1,3.069226885E0,4.582092376E0
6.389282333E0,2.834976024E0,-4.872923344E-1,3.035325898E0,4.181835265E0
6.399249333E0,2.283032488E0,-3.328854954E-1,3.321481031E0,4.044166951E0
6.409215333E0,1.670494256E0,-4.551768679E-1,4.051108879E0,4.405589653E0
6.419181333E0,7.897430724E-1,-8.041410369E-1,5.195825889E0,5.316666586E0
6.429147333E0,-1.676216926E-1,-1.317603243E0,6.622237190E0,6.754124720E0
6.439114333E0,-9.475885127E-1,-1.927669418E0,8.070159228E0,8.351125873E0
6.449080333E0,-1.300724816E0,-2.490755993E0,8.892274241E0,9.325679152E0
6.459046333E0,-1.235395338E0,-2.859158354E0,8.566945687E0,9.115566166E0
6.469012333E0,-9.709403917E-1,-2.884619469E0,7.567439600E0,8.156586101E0
6.478979333E0,-5.976089747E-1,-2.370186114E0,6.270393267E0,6.729988888E0
6.488945333E0,-1.418366410E-1,-1.531031292E0,4.674336113E0,4.920730896E0
6.498911333E0,2.514568779E-1,5.948978401E-1,2.044457903E0,2.144048068E0
6.508877333E0,-2.117348416E-1,7.998176788E-1,2.396629854E0,2.535423953E0
6.518844333E0,-8.789512642E-1,6.465343092E-1,2.257631598E0,2.507481280E0
6.528810333E0,-1.548207196E0,7.021968055E-1,2.410408233E0,2.949592129E0
6.538776333E0,-2.222382243E0,9.426622336E-1,2.141135767E0,3.226771962E0
6.548742333E0,-2.798433850E0,1.143360748E0,1.791140733E0,3.513785841E0
6.558709333E0,-2.914675620E0,1.137549785E0,1.105117911E0,3.318228304E0
6.568675333E0,-2.596716604E0,1.054078150E0,-2.987342477E-3,2.802503665E0
6.578641333E0,-2.128953824E0,1.085061815E0,-1.194459858E0,2.671429931E0
6.588607333E0,-1.690318656E0,1.394540760E0,-2.476087083E0,3.306497896E0
6.598573333E0,-1.221086178E0,1.800079372E0,-3.624557421E0,4.227144863E0
6.608540333E0,-1.051181732E0,2.178725469E0,-4.157568550E0,4.810114754E0
6.618506333E0,-1.229024796E0,2.368764948E0,-4.532711872E0,5.259945461E0
6.628472333E0,-1.284121501E0,2.548721196E0,-4.393667423E0,5.239204252E0
6.638438333E0,-1.485832315E0,2.470455922E0,-3.466011338E0,4.508224121E0
6.648405333E0,-2.614249188E0,2.224842021E0,-2.763438556E0,4.406905205E0
6.658371333E0,-2.970298720E0,2.026980137E0,-2.278875117E0,4.257298999E0
6.668337333E0,-2.600911396E0,1.507332088E0,-2.488612989E0,3.902561303E0
6.678303333E0,-1.732289385E0,9.714289997E-1,-3.133913462E0,3.710244521E0
6.688270333E0,-1.252947510E0,6.301219057E-1,-3.609448215E0,3.872343928E0
6.698236333E0,-1.275719199E0,-9.009508649E-2,-3.898795343E0,4.103191651E0
6.708202333E0,-1.300007655E0,-9.949122948E-1,-3.626156049E0,3.978552258E0
6.718168333E0,-1.054414073E0,-8.678241590E-1,-3.240559074E0,3.516550998E0
6.728135333E0,-1.389204591E0,-4.905716722E-1,-2.561960462E0,2.955366537E0
6.738101333E0,-2.854534668E0,-2.673553476E-2,-1.258486285E0,3.119754908E0
6.748067333E0,-4.524754104E0,2.722354155E-1,4.643139464E-1,4.556654394E0
6.758033333E0,-4.613898123E0,4.030419237E-1,1.957142016E0,5.028011889E0
6.768000333E0,-3.224573956E0,2.392609017E-1,2.678019506E0,4.198441551E0
6.777966333E0,-1.893396256E0,-2.533106280E-1,2.487263451E0,3.136175239E0
6.787932333E0,-8.809551050E-1,-8.968471793E-1,1.920699829E0,2.295540153E0
6.797898333E0,-1.389093786E-2,-1.295296846E0,1.120301961E0,1.712618860E0
6.807864333E0,4.101922645E-1,-1.228659784E0,7.080112767E-1,1.476191900E0
6.817831333E0,3.087853190E-1,-6.228704081E-1,9.864767361E-1,1.206835643E0
6.827797333E0,-5.828124493E-1,4.174618884E-1,2.566100875E0,2.664360802E0
6.837763333E0,-1.928083986E0,1.227577903E0,5.105991606E0,5.594247549E0
6.847729333E0,-1.568916425E0,9.430310467E-1,4.900683001E0,5.231395624E0
6.857696333E0,-1.362017085E0,7.472178809E-1,5.133468257E0,5.363387125E0
6.867662333E0,-1.302181942E0,4.023689823E-1,3.252084521E0,3.526135610E0
6.877628333E0,-1.111891910E0,8.939169203E-1,-3.475928215E0,3.757321924E0
6.887594333E0,-3.716852796E-1,2.377111410E0,-3.931701719E0,4.609456259E0
6.897561333E0,-2.902726542E0,3.148902507E0,-1.560342361E0,4.558078176E0
6.907527333E0,-5.152907326E0,3.620856133E0,3.151596612E-1,6.305741721E0
6.917493333E0,-6.070743012E0,3.402670205E0,9.693625206E-1,7.026503322E0
6.927459333E0,-6.846857979E0,2.255702163E0,2.566803126E0,7.652198032E0
6.937426333E0,-6.518102957E0,5.267703956E-1,4.919677096E0,8.183298598E0
6.947392333E0,-5.251212469E0,-1.435490566E0,5.655424055E0,7.849820814E0
6.957358333E0,-4.205681486E0,-2.989808832E0,5.499484076E0,7.541288930E0
6.967324333E0,-3.892762771E0,-3.851598957E0,4.978094873E0,7.400665179E0
6.977291333E0,-3.755090663E0,-3.868590381E0,4.103898126E0,6.775594236E0
6.987256708E0,-3.941040307E0,-4.152939309E0,3.839931423E0,6.893749120E0
6.997222708E0,-3.556692589E0,-4.467221303E0,3.169034763E0,6.530613269E0
7.007188708E0,-2.018663496E0,-4.054999616E0,1.654251568E0,4.822299498E0
7.017154708E0,-4.278995338E-1,-3.127549937E0,2.576283216E-3,3.156687070E0
7.027121708E0,9.525263402E-1,-2.200609551E0,-1.492570792E0,2.824492237E0
7.037087708E0,2.140377090E0,-1.540482731E0,-2.844995520E0,3.879213921E0
7.047053708E0,3.045261487E0,-1.028488250E0,-2.994860242E0,4.393244071E0
7.057019708E0,3.595297369E0,-5.953949265E-1,-3.057680973E0,4.757107443E0
7.066986708E0,2.515858967E0,-1.536844155E-1,-2.216612211E0,3.356565944E0
7.076952708E0,3.960608599E-1,-5.380104983E-1,1.893000984E-1,6.943731189E-1
7.086918708E0,3.025083330E-1,-1.098752340E0,3.610579652E-1,1.195462609E0
7.096884708E0,1.956487713E0,-8.128815280E-1,-1.590840268E0,2.649413767E0
7.106851708E0,2.604553627E0,-9.155321762E-1,-2.680317462E0,3.847856606E0
7.116817708E0,2.648375585E0,-6.734320128E-1,-2.568652015E0,3.750383592E0
7.126783708E0,3.962220968E0,-3.021985768E-1,-2.508086556E0,4.699044281E0
7.136749708E0,4.290012077E0,-3.582659197E-1,-2.441329479E0,4.949004720E0
7.146715708E0,2.789704541E0,-1.016321802E0,-2.601149670E0,3.947320742E0
7.156682708E0,1.636619581E0,-1.564365245E0,-4.080411031E0,4.666424376E0
7.166648708E0,2.501925929E0,-1.238301696E0,-6.107022647E0,6.714815712E0
7.176614708E0,3.566359499E0,-6.430513421E-1,-7.430112478E0,8.266740987E0
7.186580708E0,3.541290438E0,-3.709192944E-1,-8.258669368E0,8.993549845E0
7.196547708E0,2.712040654E0,-4.904162094E-1,-8.569133130E0,9.001428507E0
7.206513708E0,2.045406467E0,-8.244117987E-1,-8.099322801E0,8.394186814E0
7.216479708E0,1.098679469E0,-1.516439127E0,-7.607192481E0,7.834287564E0
7.226445708E0,9.161471571E-1,-2.276601720E0,-7.583449861E0,7.970630640E0
7.236412708E0,1.220642228E0,-2.999997021E0,-7.913224638E0,8.550384421E0
7.246378708E0,7.973497883E-1,-3.519138554E0,-9.496552988E0,1.015896754E1
7.256344708E0,5.139809270E-1,-3.615325837E0,-1.071149564E1,1.131684126E1
7.266310708E0,7.531194757E-1,-4.095478136E0,-1.170852076E1,1.242697020E1
7.276277708E0,8.569334275E-1,-3.805060383E0,-1.127502924E1,1.193059528E1
7.286243708E0,1.821646681E0,-2.238981319E0,-9.978930738E0,1.038799753E1
7.296209708E0,3.345980279E0,-2.011976035E0,-9.205279203E0,9.999039794E0
7.306175708E0,4.707039590E0,-2.850406533E0,-8.861317327E0,1.043091482E1
7.316141708E0,4.702600677E0,-3.952114348E0,-7.491658516E0,9.688065249E0
7.326108708E0,3.832288527E0,-5.505619560E0,-5.511426430E0,8.681826040E0
7.336074708E0,2.768429739E0,-6.878128889E0,-3.668684603E0,8.272370092E0
7.346040708E0,2.218023729E0,-7.824417127E0,-2.181420159E0,8.420197536E0
7.356006708E0,2.708169212E0,-8.451871898E0,-1.781431432E0,9.052171950E0
7.365973708E0,3.896676312E0,-8.840907036E0,-2.724441136E0,1.003834165E1
7.375939708E0,4.874228443E0,-9.598740098E0,-3.992465984E0,1.148188569E1
7.385905708E0,6.488159366E0,-1.035940204E1,-5.013109170E0,1.321153610E1
7.395871708E0,9.011553347E0,-1.026706632E1,-4.733474852E0,1.445774978E1
7.405837708E0,1.034571605E1,-1.011654964E1,-3.288673765E0,1.483892827E1
7.415804708E0,1.151316762E1,-1.103096646E1,-1.110152656E0,1.598335661E1
7.425770708E0,1.239319579E1,-1.202438735E1,1.846227644E0,1.736622439E1
7.435736708E0,1.226122531E1,-1.207622993E1,4.429942380E0,1.777068836E1
7.445702708E0,1.169090426E1,-1.182458916E1,5.304111060E0,1.745370291E1
7.455669708E0,1.132114974E1,-1.140356156E1,4.734488760E0,1.675186651E1
7.465635708E0,1.140472984E1,-1.047734740E1,3.700895745E0,1.592291746E1
7.475601708E0,1.153913978E1,-8.980015805E0,3.008611139E0,1.492796610E1
7.485567708E0,1.102803817E1,-7.512947059E0,2.996199254E0,1.367622789E1
7.495534708E0,1.017044342E1,-6.337135141E0,3.242797973E0,1.241422329E1
7.505500708E0,8.734708151E0,-5.322455530E0,3.279843008E0,1.074155620E1
7.515466708E0,7.397265744E0,-4.430171590E0,2.985670173E0,9.124702033E0
7.525432708E0,6.720005559E0,-3.554688456E0,3.211468007E0,8.252745694E0
7.535398708E0,6.311865229E0,-2.663601150E0,4.083399543E0,7.975497826E0
7.545365708E0,6.642742791E0,-1.242585366E0,4.946663166E0,8.374934427E0
7.555331708E0,7.389060346E0,1.268419827E0,4.662549296E0,8.828729671E0
7.565297708E0,6.811356609E0,1.417014972E0,4.957978697E0,8.543071055E0
7.575263708E0,5.893937829E0,1.699428764E0,6.744831083E0,9.116979083E0
7.585230708E0,4.149711061E0,2.805702816E0,7.327179263E0,8.875788761E0
7.595196708E0,2.679112936E0,3.387327403E0,7.418222165E0,8.583801789E0
7.605162708E0,2.266308281E0,3.905880414E0,6.974982753E0,8.309178025E0
7.615128708E0,2.242334113E0,4.502820321E0,6.351204711E0,8.101929054E0
7.625094708E0,2.371017296E0,5.103897718E0,5.876086864E0,8.136331592E0
7.635061708E0,2.339176868E0,5.683877776E0,5.436826483E0,8.205930611E0
7.645027708E0,2.035694096E0,5.892327506E0,5.225985242E0,8.134770780E0
7.654993708E0,1.711276538E0,5.904851657E0,5.190388563E0,8.045860670E0
7.664959708E0,1.619584596E0,5.922650582E0,5.484130458E0,8.232650305E0
7.674926708E0,1.707883984E0,5.791768845E0,5.975813466E0,8.495398793E0
7.684892708E0,2.053188965E0,5.645333515E0,6.331800726E0,8.727947975E0
7.694858708E0,2.453436139E0,5.857662288E0,6.831594408E0,9.327499049E0
7.704824708E0,2.172986135E0,6.117417242E0,7.570287779E0,9.972658598E0
7.714790708E0,1.882860743E0,6.875331581E0,8.063125028E0,1.076240373E1
7.724757708E0,1.438741325E0,6.899144951E0,8.207605634E0,1.081817766E1
7.734723708E0,1.098255619E0,6.303844019E0,8.188602768E0,1.039220045E1
7.744689708E0,1.188105689E0,6.063867856E0,7.828659866E0,9.973464985E0
7.754655708E0,1.223175534E0,5.790281898E0,7.558869336E0,9.600001484E0
7.764622708E0,1.086621414E0,5.772637925E0,7.426434579E0,9.468686565E0
7.774588708E0,1.064016663E0,5.932627686E0,7.176052127E0,9.371442090E0
7.784554708E0,1.359506875E0,5.758478308E0,7.278702922E0,9.380183772E0
7.794520708E0,1.727222480E0,5.650766163E0,7.222938026E0,9.331949928E0
7.804487708E0,2.126388504E0,5.645841638E0,7.293001703E0,9.464931575E0
7.814453708E0,2.801088193E0,5.692405356E0,7.753727798E0,1.001847636E1
7.824419708E0,3.715817254E0,5.750991533E0,8.535128648E0,1.094210320E1
7.834385708E0,5.357762772E0,5.508652511E0,9.284076281E0,1.205176115E1
7.844351708E0,7.431338055E0,5.066518807E0,9.850380871E0,1.333883059E1
7.854318708E0,9.031200576E0,4.303924357E0,1.007700141E1,1.419972909E1
7.864284708E0,9.945608625E0,3.654138485E0,9.790789558E0,1.442662189E1
7.874250708E0,1.003150656E1,3.099976807E0,9.330872717E0,1.404657132E1
7.884216708E0,9.612434862E0,2.542084022E0,8.912054202E0,1.335237077E1
7.894183708E0,9.076873178E0,2.024676188E0,8.427149870E0,1.255013129E1
7.904149708E0,8.743542709E0,1.242282481E0,7.749170478E0,1.174914669E1
7.914115708E0,8.294279496E0,1.061363196E-1,7.002658210E0,1.085557734E1
7.924081708E0,7.551242228E0,-7.411392617E-1,6.731481305E0,1.014314484E1
7.934047708E0,6.519913255E0,-1.125936045E0,6.715740016E0,9.427521667E0
7.944014708E0,4.791832404E0,-1.296809228E0,4.748963542E0,6.869936439E0
7.953980708E0,2.021222237E0,-1.047935650E0,1.406835993E0,2.676321350E0
7.963946708E0,2.083241315E0,-2.240577609E0,4.002021796E0,5.037485568E0
7.973912708E0,2.903660635E0,-4.120593097E0,3.911238510E0,6.380307143E0
7.983879708E0,2.089463922E0,-4.108620338E0,2.750235251E0,5.367533372E0
7.993845708E0,-8.714292598E-1,-3.454415432E0,-1.454670310E-2,3.562665651E0
8.003811708E0,-4.570199541E0,-3.738158880E0,-3.348333199E0,6.787627780E0
8.013777708E0,-5.810213887E0,-3.972301276E0,-5.838048388E0,9.144428458E0
8.023743708E0,-6.376750612E0,-3.392952717E0,-6.953766131E0,1.002646198E1
8.033710708E0,-6.754551494E0,-3.775360913E0,-6.918213891E0,1.037973985E1
8.043676708E0,-7.071382874E0,-3.664970744E0,-5.969718913E0,9.953592829E0
8.053642708E0,-5.298575501E0,-1.005298485E0,-6.022712814E0,8.084466403E0
8.063608708E0,-3.603847752E0,-8.479040109E-1,-4.468379052E0,5.802850264E0
8.073575708E0,-2.510670440E0,-1.110633005E0,-3.500826829E0,4.448905508E0
8.083541708E0,-2.069262961E0,-1.358140820E0,-2.781366704E0,3.723223930E0
8.093507708E0,-2.111568736E0,-1.635263758E0,-2.016680266E0,3.346611627E0
8.103473708E0,-2.035673631E0,-1.909268230E0,-1.780914684E0,3.310729439E0
8.113439708E0,-1.620190367E0,-2.517198272E0,-1.954670398E0,3.575197943E0
8.123406708E0,-1.277220179E0,-3.201723037E0,-1.937921634E0,3.954473676E0
8.133372708E0,-9.723007464E-1,-3.755138610E0,-1.730654942E0,4.247540612E0
8.143338708E0,-6.787196499E-1,-4.265566915E0,-1.727954698E0,4.652047819E0
8.153304708E0,-3.046837896E-1,-4.757173033E0,-1.816291654E0,5.101219741E0
8.163271708E0,4.495514810E-2,-5.103794222E0,-1.888556954E0,5.442185572E0
8.173237708E0,3.140171152E-1,-5.478691962E0,-1.998856199E0,5.840385130E0
8.183203708E0,4.453660440E-1,-6.072292525E0,-2.013510345E0,6.412901943E0
8.193169708E0,2.392499381E-1,-6.570040265E0,-1.784947363E0,6.812393611E0
8.203135708E0,-4.057973510E-1,-6.824603477E0,-1.245544057E0,6.949191615E0
8.213102708E0,-1.096901988E0,-7.010845481E0,-7.751390666E-1,7.138346371E0
8.223068708E0,-1.704496107E0,-7.389396561E0,-6.316378695E-1,7.609694798E0
8.233034708E0,-2.374512761E0,-7.687423296E0,-7.208704734E-1,8.078022160E0
8.243000708E0,-3.028692816E0,-7.948303254E0,-8.535731057E-1,8.548514014E0
8.252967708E0,-3.511886837E0,-8.457477624E0,-1.143154707E0,9.228709531E0
8.262933708E0,-3.822689154E0,-8.825405483E0,-1.469809921E0,9.729392350E0
8.272899708E0,-4.078086762E0,-8.979854422E0,-1.551786715E0,9.983817861E0
8.282865708E0,-4.364641845E0,-9.171144912E0,-1.615057096E0,1.028437683E1
8.292831708E0,-4.489783954E0,-9.555299379E0,-1.883705665E0,1.072428334E1
8.302798708E0,-4.593602437E0,-9.970155237E0,-2.032230790E0,1.116401096E1
8.312764708E0,-4.631111156E0,-1.018409550E1,-1.916260039E0,1.135055260E1
8.322730708E0,-4.435594298E0,-1.012288685E1,-1.623737288E0,1.117066953E1
8.332696708E0,-3.684586691E0,-1.001791296E1,-1.074428800E0,1.072796142E1
8.342662708E0,-2.309650183E0,-1.008119971E1,-3.171214020E-1,1.034725266E1
8.352629708E0,-4.550081027E-1,-1.015332628E1,4.140892875E-1,1.017194853E1
8.362595708E0,1.459131151E0,-1.010044757E1,9.502918267E-1,1.024944679E1
8.372561708E0,3.036339220E0,-9.975097303E0,1.429002203E0,1.052444627E1
8.382527708E0,4.195532767E0,-9.581635239E0,1.907844580E0,1.063250206E1
8.392494708E0,4.535586364E0,-8.704658725E0,2.213960499E0,1.006202009E1
8.402460708E0,3.821508016E0,-7.314957413E0,2.061647401E0,8.506639494E0
8.412426708E0,2.499840227E0,-5.809770083E0,1.606701425E0,6.525650853E0
8.422392708E0,1.324404870E0,-4.505182012E0,1.117831074E0,4.827034237E0
8.432359708E0,5.300822586E-1,-3.511472270E0,7.777824466E-1,3.635432607E0
8.442325708E0,-1.597968024E-1,-2.672214683E0,2.870279758E-1,2.692331961E0
8.452291708E0,-8.648575741E-1,-1.911175885E0,-3.959056163E-1,2.134786440E0
8.462257708E0,-1.291025455E0,-1.137337824E0,-8.568322706E-1,1.922094064E0
8.472223708E0,-1.521746644E0,-3.886220321E-1,-1.070567737E0,1.900751223E0
8.482190708E0,-1.556960916E0,2.187645105E-1,-1.042668625E0,1.886569126E0
8.492156708E0,-1.456109310E0,7.014626876E-1,-7.774715209E-1,1.793534552E0
8.502122708E0,-1.272613742E0,1.168242405E0,-3.906736739E-1,1.771147078E0
8.512088708E0,-1.025107536E0,1.532357002E0,1.288163535E-1,1.848122586E0
8.522054708E0,-8.258519679E-1,1.782295066E0,7.616850619E-1,2.106839174E0
8.532021708E0,-7.861528820E-1,1.989436188E0,1.322613430E0,2.514994828E0
8.541987708E0,-8.055966282E-1,2.199385729E0,1.788050334E0,2.946762207E0
8.551953708E0,-7.472285521E-1,2.395263945E0,2.272344947E0,3.385142749E0
8.561919708E0,-5.648796237E-1,2.571490839E0,2.731047320E0,3.793451408E0
8.571886708E0,-3.564269704E-1,2.594238262E0,3.084002799E0,4.045761437E0
8.581852708E0,-4.232623994E-2,2.609695961E0,3.367751802E0,4.260757764E0
8.591818708E0,3.633196682E-1,2.559602280E0,3.608584874E0,4.439082090E0
8.601784708E0,1.270499974E0,2.487644690E0,3.769797287E0,4.691899175E0
8.611750708E0,2.842124537E0,2.386529374E0,3.586697576E0,5.161162063E0
8.621717708E0,3.676507593E0,2.587492914E0,3.216933399E0,5.528154136E0
8.631683708E0,4.211510868E0,2.889020376E0,2.585887853E0,5.724515570E0
8.641649708E0,4.890318226E0,3.230797732E0,1.809389309E0,6.134097816E0
8.651615708E0,5.443021608E0,3.474769297E0,9.782704613E-1,6.531272387E0
8.661581708E0,5.831587799E0,3.450082937E0,4.938035014E-1,6.793697847E0
8.671548708E0,6.287871764E0,3.251006879E0,5.695606121E-1,7.101462972E0
8.681514708E0,6.592190688E0,3.290134692E0,9.616842493E-1,7.430127923E0
8.691480708E0,6.971565641E0,3.859918376E0,1.231384440E0,8.063374293E0
8.701446708E0,7.738495216E0,4.229095784E0,9.743946344E-1,8.872373091E0
8.711413708E0,8.627440980E0,4.260380727E0,7.055487218E-1,9.647869236E0
8.721379708E0,9.152184146E0,4.321275385E0,5.117015362E-1,1.013398905E1
8.731345708E0,9.252533476E0,4.315421153E0,2.432239982E-1,1.021231577E1
8.741311708E0,9.431099256E0,3.809822356E0,-1.511528635E-1,1.017267058E1
8.751277708E0,9.319282367E0,2.661532112E0,-2.578350207E-1,9.695321341E0
8.761244708E0,8.764572805E0,1.710502367E0,8.102749854E-2,8.930292283E0
8.771210708E0,8.328551781E0,1.293470761E0,7.806246319E-1,8.464467863E0
8.781176708E0,8.203774538E0,1.226902549E0,1.586847497E0,8.445430215E0
8.791142708E0,8.540913298E0,1.433484678E0,2.128950169E0,8.918212103E0
8.801109708E0,9.361071247E0,1.513064114E0,2.552008208E0,9.819967607E0
8.811075708E0,1.030873358E1,1.319877956E0,2.821585023E0,1.076909504E1
8.821041708E0,1.102858547E1,1.070910530E0,3.149319998E0,1.151932130E1
8.831007708E0,1.159159749E1,9.227309757E-1,3.633842799E0,1.218283130E1
8.840973708E0,1.185344517E1,5.403406137E-1,4.181229600E0,1.258089072E1
8.850940708E0,1.186728669E1,4.020311594E-2,4.778954496E0,1.279345598E1
8.860906708E0,1.155917702E1,-4.116147459E-1,5.200297254E0,1.268176217E1
8.870872708E0,1.078024487E1,-7.379063362E-1,5.171847627E0,1.197940704E1
8.880838708E0,9.439765415E0,-9.662933171E-1,5.059544249E0,1.075369155E1
8.890804708E0,7.665347718E0,-1.131506980E0,4.676378838E0,9.050214512E0
8.900771708E0,6.065416199E0,-1.058172371E0,3.951788951E0,7.316121810E0
8.910737708E0,4.847563970E0,-8.116683769E-1,3.436222990E0,5.997108506E0
8.920703708E0,3.948346403E0,-6.030964404E-1,3.145272556E0,5.083886710E0
8.930669708E0,3.087591820E0,-6.418921316E-1,2.545716604E0,4.052890547E0
8.940635708E0,2.069066495E0,-8.985445529E-1,1.483788275E0,2.700008540E0
8.950602708E0,1.085651945E0,-1.062187069E0,4.287272072E-1,1.578191539E0
8.960568708E0,-5.335876644E-2,-1.358388303E0,-4.780853087E-1,1.441052220E0
8.970534708E0,-1.431957386E0,-1.734402569E0,-1.144319984E0,2.523513909E0
8.980500708E0,-2.688650914E0,-1.723076512E0,-1.342477444E0,3.464113464E0
8.990468083E0,-3.387501358E0,-1.387471184E0,-1.145641454E0,3.835718457E0
9.000434083E0,-3.672080666E0,-1.154571615E0,-6.120532054E-1,3.897668682E0
9.010400083E0,-3.885423930E0,-1.235685067E0,-1.764660448E-1,4.081001956E0
9.020366083E0,-3.881529100E0,-1.088973164E0,1.299751255E-1,4.033487850E0
9.030332083E0,-3.626778193E0,-9.532680595E-1,3.272514108E-1,3.764217520E0
9.040299083E0,-3.429455130E0,-9.898078948E-1,4.704903603E-1,3.600311561E0
9.050265083E0,-3.481943246E0,-1.242686523E0,5.235640749E-1,3.733941337E0
9.060231083E0,-3.607951913E0,-1.789865456E0,6.105533946E-1,4.073537873E0
9.070197083E0,-3.504712304E0,-2.289484452E0,8.084027070E-1,4.263597345E0
9.080164083E0,-3.158209228E0,-2.561248856E0,1.062372133E0,4.202727183E0
9.090130083E0,-2.656018773E0,-2.859007788E0,1.150650472E0,4.068458892E0
9.100096083E0,-1.953952360E0,-3.415870879E0,1.111107214E0,4.089090721E0
9.110062083E0,-1.374113805E0,-4.115806566E0,9.679319993E-1,4.445778311E0
9.120028083E0,-1.035239591E0,-4.806815894E0,8.319839430E-1,4.986922631E0
9.129995083E0,-8.941924703E-1,-5.758223954E0,5.355628538E-1,5.851798941E0
9.139961083E0,-1.149056228E0,-6.914461148E0,-3.686900434E-1,7.018976815E0
9.149927083E0,-1.866051752E0,-7.951535595E0,-1.474144462E0,8.299528261E0
9.159893083E0,-2.752758032E0,-8.636649175E0,-2.107589998E0,9.306520368E0
9.169859083E0,-3.326401463E0,-9.190496857E0,-2.238762926E0,1.002707528E1
9.179826083E0,-3.403590556E0,-9.421514500E0,-2.024364531E0,1.021995185E1
9.189792083E0,-2.894005712E0,-9.459333706E0,-1.548392698E0,1.001258124E1
9.199758083E0,-2.450245314E0,-9.469934708E0,-8.744736126E-1,9.820797808E0
9.209724083E0,-2.548225937E0,-9.172623673E0,-1.705857924E-1,9.521532439E0
9.219690083E0,-2.871582225E0,-8.803034620E0,2.719349965E-1,9.263549624E0
9.229657083E0,-3.151359215E0,-9.069720864E0,2.869728658E-1,9.605896880E0
9.239623083E0,-3.629648007E0,-9.687442945E0,-2.244424492E-1,1.034752482E1
9.249589083E0,-4.476484462E0,-9.908413317E0,-1.090212774E0,1.092721975E1
9.259555083E0,-5.188123936E0,-9.734049931E0,-1.908920614E0,1.119429926E1
9.269521083E0,-5.208850561E0,-9.577442785E0,-2.315990903E0,1.114555285E1
9.279488083E0,-4.771523269E0,-9.129889882E0,-2.371712237E0,1.057106156E1
9.289454083E0,-4.352494839E0,-7.996512378E0,-2.082642268E0,9.339476449E0
9.299420083E0,-3.543928410E0,-6.985390797E0,-1.517669673E0,7.978623591E0
9.309386083E0,-2.175955351E0,-6.701118468E0,-9.653182939E-1,7.111371866E0
9.319353083E0,-8.516183084E-1,-6.966272741E0,-7.717096746E-1,7.060435218E0
9.329319083E0,-1.699610174E-2,-7.375515271E0,-1.062062523E0,7.451609973E0
9.339285083E0,5.381496620E-1,-7.637899718E0,-1.397325204E0,7.783292034E0
9.349251083E0,7.195238596E-1,-7.403838599E0,-1.521788452E0,7.592784778E0
9.359217083E0,6.525790876E-1,-6.755248482E0,-1.692978262E0,6.994670608E0
9.369184083E0,5.248221034E-1,-5.979807115E0,-1.828113555E0,6.274992473E0
9.379150083E0,3.288398069E-1,-5.382068478E0,-1.830119735E0,5.694219434E0
9.389116083E0,3.700702786E-2,-4.792130027E0,-1.668177589E0,5.074317312E0
9.399082083E0,-2.725749743E-1,-3.994394103E0,-1.362549474E0,4.229186971E0
9.409048083E0,-4.890669644E-1,-3.093760340E0,-1.034920625E0,3.298727063E0
9.419015083E0,-3.975358200E-1,-2.191728215E0,-7.605622503E-1,2.353754922E0
9.428981083E0,-6.374809921E-2,-1.282296439E0,-6.905444741E-1,1.457806451E0
9.438947083E0,2.056155843E-1,-4.061873603E-1,-8.517770603E-1,9.658105925E-1
9.448913083E0,3.027267265E-1,3.272756767E-1,-1.100432537E0,1.187309820E0
9.458879083E0,2.173269725E-1,8.282408479E-1,-1.351919236E0,1.600281080E0
9.468846083E0,8.445308983E-2,1.281448593E0,-1.457163563E0,1.942310086E0
9.478812083E0,-4.680111408E-3,1.721627572E0,-1.307951975E0,2.162119740E0
9.488778083E0,-3.546804070E-2,2.052553081E0,-9.179423985E-1,2.248744178E0
9.498744083E0,1.050510764E-2,2.287997651E0,-3.370054436E-1,2.312707564E0
9.508711083E0,1.371230543E-2,2.498028468E0,2.704579899E-1,2.512664279E0
9.518677083E0,-7.950225234E-2,2.791671837E0,9.065841821E-1,2.936264146E0
9.528643083E0,-8.247731566E-2,3.062124272E0,1.447739605E0,3.388120058E0
9.538609083E0,-5.245303273E-2,3.280333005E0,1.806353142E0,3.745163229E0
9.548575083E0,5.777516842E-2,3.489265130E0,1.971235560E0,4.008001840E0
9.558542083E0,4.779695338E-1,3.688586186E0,1.901463075E0,4.177281981E0
9.568508083E0,9.877122527E-1,3.872881068E0,1.835927774E0,4.398342194E0
9.578474083E0,1.552556208E0,3.961017904E0,1.700886913E0,4.581823862E0
9.588440083E0,2.755889801E0,3.972224092E0,1.450453298E0,5.047505087E0
9.598406083E0,3.492793339E0,4.114820141E0,1.645931565E0,5.642733453E0
9.608373083E0,3.926552660E0,4.176441023E0,1.757619815E0,5.995807104E0
9.618339083E0,4.572512700E0,4.218553255E0,1.754752341E0,6.463994100E0
9.628305083E0,5.467606811E0,4.125891259E0,1.679553639E0,7.052560056E0
9.638271083E0,6.385367069E0,3.837186740E0,1.432207062E0,7.586048494E0
9.648237083E0,6.931441462E0,3.690077226E0,1.153296629E0,7.936727524E0
9.658204083E0,6.990631072E0,4.064297274E0,1.006557536E0,8.148655913E0
9.668170083E0,6.765814986E0,4.614843033E0,1.016862377E0,8.252698815E0
9.678136083E0,6.923782779E0,4.836609796E0,1.234319158E0,8.535520258E0
9.688102083E0,7.610780917E0,4.737844477E0,1.681305465E0,9.121290726E0
9.698068083E0,8.159245652E0,4.642738345E0,1.974624022E0,9.593093817E0
9.708035083E0,8.259245903E0,4.607149851E0,2.058767501E0,9.678816884E0
9.718001083E0,8.222536499E0,4.194969680E0,2.048511193E0,9.455383398E0
9.727967083E0,8.210820433E0,3.085972141E0,2.022859458E0,9.001819628E0
9.737933083E0,7.788471369E0,1.998088313E0,2.157230812E0,8.325039816E0
9.747899083E0,7.243450643E0,1.462355890E0,2.445549415E0,7.783750633E0
9.757866083E0,7.253554047E0,1.193695627E0,2.723860508E0,7.839538994E0
9.767832083E0,8.097031862E0,1.239374660E0,2.792868762E0,8.654368287E0
9.777798083E0,9.154506075E0,1.795434344E0,2.603493819E0,9.685388275E0
9.787764083E0,9.982850711E0,2.380191577E0,2.193293515E0,1.049443456E1
9.797730083E0,1.069033574E1,2.590289637E0,1.381409083E0,1.108608000E1
9.807697083E0,1.109528232E1,2.275708850E0,6.822303182E-1,1.134678715E1
9.817663083E0,1.153497540E1,1.447544308E0,7.565531069E-1,1.165003925E1
9.827629083E0,1.182063527E1,4.691238660E-1,1.403353976E0,1.191288788E1
9.837595083E0,1.171946207E1,-3.261781543E-1,2.324219690E0,1.195216217E1
9.847561083E0,1.106297178E1,-9.411760175E-1,3.404835429E0,1.161327090E1
9.857528083E0,1.014260132E1,-1.552058610E0,4.349750741E0,1.114457621E1
9.867494083E0,8.859752027E0,-2.062550942E0,4.804328488E0,1.028741438E1
9.877460083E0,7.347008341E0,-2.523200146E0,4.432725070E0,8.943943318E0
9.887426083E0,5.900028289E0,-2.850596860E0,3.588090675E0,7.470651308E0
9.897393083E0,4.567411004E0,-2.972846937E0,2.665481907E0,6.066618167E0
9.907359083E0,3.108615484E0,-2.927624571E0,1.717996743E0,4.602823988E0
9.917325083E0,1.746594306E0,-2.703870339E0,8.524503672E-1,3.329891606E0
9.927291083E0,6.835067654E-1,-2.352126111E0,1.174384028E-1,2.452237860E0
9.937257083E0,-5.695948184E-2,-2.157498030E0,-4.979898155E-1,2.214957333E0
9.947224083E0,-7.448294395E-1,-2.078836023E0,-7.883800864E-1,2.344754414E0
9.957190083E0,-1.507752503E0,-2.004589540E0,-8.133944750E-1,2.636912476E0
9.967156083E0,-2.301417303E0,-2.028706966E0,-6.123037586E-1,3.128432427E0
9.977122083E0,-2.960687944E0,-2.118169950E0,-1.297941542E-1,3.642686311E0
9.987088083E0,-3.276435835E0,-2.274328030E0,5.608982545E-1,4.027680055E0
9.997054958E0,-3.564525812E0,-2.530984837E0,1.521091756E0,4.628763187E0
1.000702096E1,-4.259290221E0,-2.774937983E0,2.444746592E0,5.640799580E0
1.001698696E1,-4.844300639E0,-3.083332708E0,2.710929683E0,6.350065276E0
1.002695296E1,-5.069340089E0,-3.482542001E0,2.609805304E0,6.681122020E0
1.003691896E1,-5.397088221E0,-3.670831408E0,2.261158639E0,6.907706050E0
1.004688596E1,-5.515160462E0,-3.779850113E0,1.872807040E0,6.943462249E0
1.005685196E1,-5.182826943E0,-4.126586493E0,1.555374566E0,6.805115814E0
1.006681796E1,-4.594269605E0,-4.458753950E0,1.226056457E0,6.518513206E0
1.007678396E1,-3.721723527E0,-4.681981348E0,9.730334026E-1,6.059617921E0
1.008674996E1,-2.735672468E0,-5.088744074E0,8.133365875E-1,5.834443976E0
1.009671696E1,-1.931317788E0,-5.703619146E0,6.993878031E-1,6.062211070E0
1.010668296E1,-1.451831487E0,-6.338967074E0,6.493657503E-1,6.535441386E0
1.011664896E1,-1.468234096E0,-7.014590623E0,4.563620254E-1,7.181118246E0
1.012661496E1,-1.817604062E0,-7.797693597E0,3.108350605E-2,8.006789378E0
1.013658096E1,-2.321304853E0,-8.574868079E0,-3.821985734E-1,8.891731808E0
1.014654796E1,-2.967215191E0,-8.941945753E0,-6.899460116E-1,9.446628252E0
1.015651396E1,-3.557755321E0,-8.622816417E0,-8.705439913E-1,9.368480812E0
1.016647996E1,-3.649879957E0,-7.897503229E0,-9.657773003E-1,8.753565374E0
1.017644596E1,-3.238357598E0,-7.313324870E0,-9.071610099E-1,8.049510649E0
1.018641196E1,-2.988041804E0,-7.066938990E0,-6.742740119E-1,7.702250707E0
1.019637896E1,-3.544357011E0,-6.937965785E0,-3.062186837E-1,7.796897187E0
1.020634496E1,-4.767088156E0,-6.971743981E0,-2.872240037E-2,8.445778152E0
1.021631096E1,-6.025686123E0,-7.255556719E0,2.363795400E-2,9.431466233E0
1.022627696E1,-6.682444800E0,-7.899228158E0,-1.640757948E-1,1.034793674E1
1.023624296E1,-6.848530283E0,-8.682962047E0,-4.130683637E-1,1.106647290E1
1.024620996E1,-6.975480936E0,-8.844852737E0,-7.797876030E-1,1.129144911E1
1.025617596E1,-6.621617970E0,-8.224974788E0,-1.379528911E0,1.064890299E1
1.026614196E1,-5.406546677E0,-7.614953490E0,-1.999581107E0,9.550737575E0
1.027610796E1,-3.835206873E0,-7.315411742E0,-2.195379217E0,8.546563673E0
1.028607396E1,-2.575010862E0,-7.331274653E0,-1.855688147E0,7.988857708E0
1.029604096E1,-1.566525791E0,-7.661147663E0,-1.209201273E0,7.912607300E0
1.030600696E1,-9.847652560E-1,-7.925404973E0,-2.213662291E-1,7.989418602E0
1.031597296E1,-4.598905277E-1,-7.882649547E0,8.625537711E-1,7.943026010E0
1.032593896E1,6.921191293E-1,-7.829386091E0,1.665298712E0,8.034397006E0
1.033590496E1,2.245364140E0,-7.815396042E0,2.007450875E0,8.375675163E0
1.034587196E1,3.637691436E0,-7.742678314E0,1.627326894E0,8.708045664E0
1.035583796E1,4.680351729E0,-7.384007767E0,6.041033310E-1,8.763230218E0
1.036580396E1,5.035313387E0,-6.438600120E0,-7.084129804E-1,8.204376964E0
1.037576996E1,4.747884146E0,-5.070898372E0,-1.859840255E0,7.191343403E0
1.038573596E1,4.184972695E0,-3.375399668E0,-2.199368772E0,5.809005282E0
1.039570196E1,3.325447197E0,-1.703901445E0,-2.400850959E0,4.441392183E0
1.040566896E1,2.599055783E0,-2.915614682E-1,-2.596478330E0,3.685349206E0
1.041563496E1,1.971064237E0,7.250062090E-1,-2.744050359E0,3.455508732E0
1.042560096E1,1.401578761E0,1.508125263E0,-2.553169758E0,3.279868998E0
1.043556696E1,7.340407419E-1,2.026200264E0,-2.202721565E0,3.081604390E0
1.044553296E1,-1.071905726E-1,2.250229608E0,-1.776168938E0,2.868762660E0
1.045549996E1,-7.848752654E-1,2.482040133E0,-1.199915895E0,2.866417723E0
1.046546596E1,-1.014232299E0,2.766100793E0,-4.404315788E-1,2.978919390E0
1.047543196E1,-8.971570086E-1,2.992551177E0,2.801862949E-1,3.136679391E0
1.048539796E1,-8.410073662E-1,3.039711602E0,1.064777386E0,3.328797214E0
1.049536396E1,-9.208703917E-1,2.918038938E0,1.896745541E0,3.600082939E0
1.050533096E1,-9.748039395E-1,2.793126040E0,2.535511751E0,3.896230952E0
1.051529696E1,-8.801076972E-1,2.713347214E0,3.080037802E0,4.198032339E0
1.052526296E1,-7.294705582E-1,2.764543095E0,3.660435351E0,4.644740335E0
1.053522896E1,-4.668516380E-1,2.881914840E0,4.107380728E0,5.039242011E0
1.054519496E1,1.566854990E-1,2.967032173E0,4.266172394E0,5.198851523E0
1.055516196E1,9.592749041E-1,3.131280461E0,4.225219080E0,5.345802273E0
1.056512796E1,1.624924273E0,3.390641897E0,4.015218084E0,5.500800636E0
1.057509396E1,2.666136210E0,3.255127412E0,3.116957121E0,5.236368824E0
1.058505996E1,3.517492563E0,3.389106418E0,1.980961819E0,5.270958734E0
1.059502596E1,3.930762071E0,3.729105052E0,5.474262697E-1,5.445804850E0
1.060499296E1,4.421327677E0,3.708771359E0,-8.430416125E-1,5.832138766E0
1.061495896E1,5.044913346E0,3.862196451E0,-1.927277947E0,6.639436149E0
1.062492496E1,5.743424066E0,4.115736399E0,-2.597996852E0,7.528332734E0
1.063489096E1,6.188567331E0,4.499029571E0,-2.830562838E0,8.157923674E0
1.064485696E1,6.274866972E0,5.150367880E0,-2.951753399E0,8.637887065E0
1.065482396E1,6.593333818E0,5.567314117E0,-3.142074421E0,9.183663157E0
1.066478996E1,7.216479192E0,5.334822391E0,-3.289818358E0,9.558284715E0
1.067475596E1,7.553675839E0,4.872616950E0,-3.002480333E0,9.477093583E0
1.068472196E1,7.133280330E0,4.763043637E0,-2.349893644E0,8.893383670E0
1.069468796E1,6.359673818E0,4.696040393E0,-1.820313662E0,8.112446504E0
1.070465496E1,6.230013565E0,3.925506594E0,-1.461129729E0,7.507167983E0
1.071462096E1,6.355614681E0,2.707751428E0,-1.068976856E0,6.990598493E0
1.072458696E1,6.037813248E0,1.879154778E0,-6.881810296E-1,6.360817921E0
1.073455296E1,5.154269727E0,1.836374209E0,-3.406780797E-1,5.482228398E0
1.074451896E1,4.759334164E0,2.064209213E0,-1.841492862E-1,5.190966414E0
1.075448496E1,5.563064361E0,1.780968332E0,-2.611746579E-1,5.847028774E0
1.076445196E1,6.844722576E0,1.355191630E0,-6.473095769E-1,7.007551726E0
1.077441796E1,7.866975501E0,1.125452188E0,-1.306929297E0,8.053819613E0
1.078438396E1,8.874865326E0,1.002497522E0,-1.776705712E0,9.106312043E0
1.079434996E1,1.001911748E1,8.671935368E-1,-1.802046375E0,1.021675638E1
1.080431596E1,1.094407800E1,8.674420434E-1,-1.382026842E0,1.106504845E1
1.081428296E1,1.123671828E1,1.041159312E0,-7.157021195E-1,1.130752316E1
1.082424896E1,1.118153226E1,9.690432626E-1,1.020748436E-1,1.122390876E1
1.083421496E1,1.092171942E1,3.713034564E-1,1.099258416E0,1.098317761E1
1.084418096E1,9.698988857E0,-4.491696578E-1,1.731536556E0,9.862573552E0
1.085414696E1,7.935808339E0,-7.812821513E-1,2.078834268E0,8.240692186E0
1.086411396E1,5.913295037E0,-9.344487959E-1,2.266150991E0,6.401225903E0
1.087407996E1,3.846171572E0,-9.091385382E-1,2.343273427E0,4.594616305E0
1.088404596E1,1.946176733E0,-8.215928560E-1,1.997986572E0,2.907674163E0
1.089401196E1,4.265058500E-1,-7.326800948E-1,1.227884297E0,1.492121713E0
1.090397796E1,-7.595305091E-1,-6.914098620E-1,3.881294042E-1,1.097988445E0
1.091394496E1,-1.938015774E0,-6.979067034E-1,-2.392587090E-1,2.073698058E0
1.092391096E1,-2.966213563E0,-1.568018001E0,-7.837967464E-1,3.445495711E0
1.093387696E1,-3.383213010E0,-1.226625976E0,4.352567929E-1,3.624940004E0
1.094384296E1,-4.054066401E0,-2.034655631E-2,8.329727072E-1,4.138805612E0
1.095380896E1,-3.959398225E0,-2.142723870E-1,6.413696828E-1,4.016727776E0
1.096377596E1,-3.743627781E0,1.104626745E-2,8.005493116E-1,3.828282929E0
1.097374196E1,-3.829842637E0,4.330637947E-1,1.386086271E0,4.095909426E0
1.098370796E1,-3.442441211E0,1.575362688E-1,1.881428760E0,3.926193239E0
1.099367446E1,-2.990971844E0,3.718814537E-1,1.627136567E0,3.425168871E0
1.100364046E1,-3.693688467E0,1.656165361E-1,2.091536760E0,4.247974734E0
1.101360646E1,-3.721083841E0,-9.512835145E-2,2.428353923E0,4.444369149E0
1.102357346E1,-3.625320482E0,-4.319098467E-1,2.744818683E0,4.567660705E0
1.103353946E1,-3.649796927E0,-1.032877901E0,2.827903524E0,4.731267558E0
1.104350546E1,-3.501496335E0,-1.738978600E0,2.615189420E0,4.703587871E0
1.105347146E1,-3.133940944E0,-2.403175812E0,2.396703529E0,4.619635011E0
1.106343746E1,-2.723700879E0,-3.321998509E0,2.234520478E0,4.842241458E0
1.107340446E1,-2.444523228E0,-4.366111250E0,1.892229736E0,5.349687340E0
1.108337046E1,-2.302146451E0,-5.301651721E0,1.360038387E0,5.937768408E0
1.109333646E1,-2.423415365E0,-6.053799536E0,7.997040966E-1,6.569699954E0
1.110330246E1,-2.853084558E0,-6.769780567E0,4.349275947E-2,7.346557837E0
1.111326846E1,-3.223421470E0,-7.329854364E0,-3.463200581E-1,8.014808080E0
1.112323546E1,-3.404921383E0,-7.471655191E0,-3.372118503E-1,8.217836257E0
1.113320146E1,-3.486920981E0,-7.296349819E0,-3.052995014E-1,8.092499391E0
1.114316746E1,-3.443196087E0,-6.864921198E0,-4.706102282E-1,7.694427616E0
1.115313346E1,-3.173785626E0,-6.419233557E0,-5.539213568E-1,7.182360582E0
1.116309946E1,-3.075161809E0,-6.231938469E0,-6.725765651E-1,6.981836181E0
1.117306546E1,-3.107115088E0,-6.471901767E0,-7.192373461E-1,7.215052253E0
1.118303246E1,-3.128979582E0,-7.302421567E0,-7.527582639E-1,7.980132767E0
1.119299846E1,-3.057570460E0,-8.273991412E0,-5.585336405E-1,8.838531034E0
1.120296446E1,-3.069864231E0,-8.936991992E0,-2.365543717E-1,9.452504971E0
1.121293046E1,-3.238491499E0,-9.394350675E0,6.660007864E-2,9.937106589E0
1.122289646E1,-3.547470653E0,-9.503404756E0,4.689370474E-1,1.015476006E1
1.123286346E1,-3.570329758E0,-8.973172224E0,9.038991407E-1,9.699593187E0
1.124282946E1,-2.951580906E0,-7.967224259E0,1.166331242E0,8.576060915E0
1.125279546E1,-1.985913241E0,-7.071912632E0,1.218721710E0,7.445876864E0
1.126276146E1,-6.501022071E-1,-6.474576868E0,1.116841578E0,6.602280940E0
1.127272746E1,6.809468544E-1,-6.272678944E0,6.637355751E-1,6.344346670E0
1.128269346E1,1.597275129E0,-6.500032722E0,-1.383462918E-1,6.694837781E0
1.129266046E1,1.994774696E0,-6.746186467E0,-9.745636189E-1,7.102107588E0
1.130262646E1,1.987794875E0,-6.529372296E0,-1.482671164E0,6.984435899E0
1.131259246E1,1.749281101E0,-5.845305367E0,-1.572009018E0,6.300697704E0
1.132255846E1,1.532813669E0,-5.030040368E0,-1.414312828E0,5.445282786E0
1.133252446E1,1.292877268E0,-4.237020516E0,-1.295194812E0,4.615344417E0
1.134249146E1,9.017026341E-1,-3.271003187E0,-1.257917351E0,3.618685611E0
1.135245746E1,2.385751694E-1,-2.256161608E0,-1.527526032E0,2.735053764E0
1.136242346E1,-4.674866456E-1,-1.214529256E0,-1.952899277E0,2.346793698E0
1.137238946E1,-9.512367368E-1,-2.040906304E-1,-2.363487544E0,2.555890781E0
1.138235546E1,-1.214955518E0,5.873142207E-1,-2.701978765E0,3.020222533E0
1.139232246E1,-1.301524131E0,1.228312898E0,-2.918590623E0,3.423578371E0
1.140228846E1,-1.426108416E0,1.801738227E0,-3.022123470E0,3.796482071E0
1.141225446E1,-1.580595362E0,2.317314713E0,-2.898138817E0,4.033291184E0
1.142222046E1,-1.596536626E0,2.851646143E0,-2.287867550E0,3.989380008E0
1.143218646E1,-1.415067703E0,3.371161898E0,-1.426429136E0,3.924518980E0
1.144215246E1,-1.185861527E0,3.777871415E0,-5.006675479E-1,3.991146199E0
1.145211946E1,-1.002918522E0,4.160946486E0,3.067759234E-1,4.291087588E0
1.146208546E1,-8.050908440E-1,4.607383155E0,9.903823838E-1,4.780900341E0
1.147205146E1,-6.262531686E-1,4.939367010E0,1.465788791E0,5.190190389E0
1.148201746E1,-4.098535645E-1,5.153749325E0,1.632776791E0,5.421722244E0
1.149198346E1,-2.437084401E-1,5.321927526E0,1.505344912E0,5.536096974E0
1.150195046E1,-1.661930716E-1,5.424383023E0,1.282573305E0,5.576427674E0
1.151191646E1,2.918397957E-1,5.463056508E0,1.118507450E0,5.584014308E0
1.152188246E1,1.106338810E0,5.303191878E0,9.809633964E-1,5.505462636E0
1.153184846E1,2.113801203E0,4.925377547E0,9.831847537E-1,5.449234053E0
1.154181446E1,3.259876521E0,4.523458069E0,1.053678786E0,5.674390436E0
1.155178046E1,4.127771723E0,4.157882545E0,1.207703217E0,5.982059321E0
1.156174746E1,4.570407118E0,3.889685966E0,1.334324672E0,6.148064774E0
1.157171346E1,4.878057200E0,3.590997326E0,1.234004285E0,6.181704491E0
1.158167946E1,5.004088086E0,3.120868324E0,1.107172623E0,6.000545632E0
1.159164546E1,4.840388267E0,2.739629279E0,1.109468824E0,5.671494356E0
1.160161146E1,4.602658605E0,2.461552659E0,1.041010793E0,5.322350158E0
1.161157846E1,4.263631779E0,2.428369126E0,1.074792497E0,5.023018163E0
1.162154446E1,4.008001451E0,2.615795776E0,1.065400114E0,4.903217370E0
1.163151046E1,4.300093846E0,2.518133242E0,7.016076985E-1,5.032301210E0
1.164147646E1,4.825629895E0,2.034198963E0,2.219205451E-1,5.241556833E0
1.165144246E1,4.958185689E0,1.760618268E0,-1.268062270E-1,5.263027819E0
1.166140846E1,4.507581709E0,1.667735832E0,-5.714390302E-1,4.840059734E0
1.167137546E1,4.403741006E0,1.076992804E0,-9.328978220E-1,4.628514524E0
1.168134146E1,4.939880396E0,-2.495006919E-1,-7.282946831E-1,4.999508182E0
1.169130746E1,5.115132558E0,-1.489437854E0,-4.906340182E-2,5.327796301E0
1.170127346E1,4.676845154E0,-1.896292382E0,1.360571069E0,5.226849818E0
1.171123946E1,5.316590772E0,-1.030370615E0,1.549304572E0,5.632774245E0
1.172120646E1,5.893902161E0,2.552005577E-1,1.648886747E0,6.125523448E0
1.173117246E1,6.360934478E0,1.444390905E0,1.473397772E0,6.687200723E0
1.174113846E1,7.072616637E0,2.289790115E0,1.250906831E0,7.538555084E0
1.175110446E1,8.091743640E0,2.517904615E0,5.961449781E-1,8.495383901E0
1.176107046E1,9.295250310E0,2.222133152E0,-2.011009490E-1,9.559288450E0
1.177103646E1,1.001532849E1,1.754107978E0,-7.711398634E-1,1.019697780E1
1.178100346E1,1.023743848E1,1.335730342E0,-1.363637641E0,1.041387679E1
1.179096946E1,1.015287137E1,1.108602852E0,-1.459906492E0,1.031703079E1
1.180093546E1,9.525925307E0,8.452343184E-1,-1.145289744E0,9.631685346E0
1.181090146E1,8.726525558E0,5.868113601E-1,-5.859237528E-1,8.765837240E0
1.182086746E1,7.832898513E0,2.449907345E-1,1.097300184E-1,7.837497066E0
1.183083446E1,6.413638941E0,-6.940644979E-2,5.683885378E-1,6.439149575E0
1.184080046E1,4.449189659E0,-5.971702874E-2,7.001754230E-1,4.504342391E0
1.185076646E1,2.549671369E0,1.713935852E-2,7.824960333E-1,2.667099152E0
1.186073246E1,1.102317680E0,1.165981579E-1,8.379217905E-1,1.389536730E0
1.187069846E1,2.744957846E-1,6.262993616E-1,1.099232104E0,1.294569444E0
1.188066446E1,-7.252476990E-2,1.278938091E0,1.614798065E0,2.061192682E0
1.189063146E1,-2.540176660E-1,1.897196361E0,1.942798212E0,2.727332745E0
1.190059746E1,-3.964616865E-1,2.268403339E0,2.136098975E0,3.140979848E0
1.191056346E1,-6.325091046E-1,2.370059522E0,2.041074704E0,3.191118276E0
1.192052946E1,-1.068282207E0,2.455194397E0,2.022156038E0,3.355342224E0
1.193049546E1,-1.324217759E0,2.735744389E0,2.065047119E0,3.674543460E0
1.194046146E1,-1.450865527E0,3.139829090E0,2.186648154E0,4.092061540E0
1.195042846E1,-1.474444424E0,3.499994478E0,2.287900879E0,4.433783727E0
1.196039446E1,-1.281634827E0,3.594615583E0,2.360710701E0,4.487405045E0
1.197036046E1,-1.123837187E0,3.281819074E0,2.357461111E0,4.194158956E0
1.198032646E1,-9.166510409E-1,2.692733440E0,2.327016121E0,3.675060072E0
1.199029246E1,-7.776802665E-1,1.964615635E0,2.125465813E0,2.997016202E0
1.200025862E1,-2.986956561E-1,8.831599438E-1,1.642496325E0,1.888646277E0
1.201022463E1,2.790215296E-1,-4.249931753E-1,1.182892896E0,1.287520026E0
1.202019062E1,7.623833656E-1,-1.693236416E0,6.280704832E-1,1.960293470E0
1.203015662E1,1.020198798E0,-3.026148985E0,-7.417426944E-2,3.194352061E0
1.204012263E1,8.663480294E-1,-4.358867427E0,-6.184588301E-1,4.486956148E0
1.205008862E1,3.152269042E-1,-5.527779922E0,-1.008350000E0,5.627831607E0
1.206005562E1,-1.834096134E-1,-6.714907957E0,-1.267198051E0,6.835891957E0
1.207002162E1,-2.778351295E-1,-7.712425405E0,-1.304398622E0,7.826886594E0
1.207998763E1,-4.422722822E-1,-8.361694969E0,-1.204994786E0,8.459643016E0
1.208995362E1,-1.237238088E0,-8.565705492E0,-1.015806370E0,8.714007761E0
1.209991962E1,-2.433731022E0,-8.569607340E0,-1.025827036E0,8.967359575E0
1.210988563E1,-3.349593859E0,-8.777695711E0,-1.193390695E0,9.470580889E0
1.211985263E1,-4.032984849E0,-9.300674188E0,-1.465433865E0,1.024280252E1
1.212981862E1,-5.124689832E0,-9.927145457E0,-1.991207310E0,1.134793238E1
1.213978462E1,-6.355925753E0,-1.063739271E1,-2.417623113E0,1.262524524E1
1.214975063E1,-6.972186615E0,-1.181026582E1,-2.734022384E0,1.398458592E1
1.215971662E1,-7.351752772E0,-1.298668701E1,-3.039761303E0,1.522965716E1
1.216968262E1,-7.860438314E0,-1.334724738E1,-3.102519177E0,1.579750387E1
1.217964962E1,-7.979746656E0,-1.305039243E1,-2.613099040E0,1.551829198E1
1.218961563E1,-7.218966597E0,-1.243087408E1,-1.743606378E0,1.448034089E1
1.219958162E1,-6.016732281E0,-1.149999384E1,-9.269023794E-1,1.301192045E1
1.220954762E1,-4.723712341E0,-1.049333603E1,-3.188551015E-1,1.151196021E1
1.221951362E1,-2.882354550E0,-1.002647328E1,-6.587180793E-2,1.043275962E1
1.222948063E1,-9.904130816E-1,-1.001848364E1,-2.412707359E-1,1.007021073E1
1.223944662E1,5.717816770E-2,-1.024445748E1,-8.587893337E-1,1.028054947E1
1.224941262E1,1.966015166E-1,-1.037254308E1,-1.371127632E0,1.046462102E1
1.225937862E1,-1.412862718E-1,-1.009625161E1,-1.636275473E0,1.022896162E1
1.226934463E1,-4.924250203E-1,-9.362023759E0,-1.777506781E0,9.541986251E0
1.227931062E1,-5.609578961E-1,-8.478886034E0,-1.275971214E0,8.592687861E0
1.228927762E1,-7.386758298E-1,-7.468206503E0,-8.865384650E-1,7.556831400E0
1.229924362E1,-1.115520108E0,-6.304408275E0,-6.855471513E-1,6.438938088E0
1.230920963E1,-1.638331354E0,-5.005698409E0,-5.099459097E-1,5.291615162E0
1.231917562E1,-1.991668071E0,-3.723917694E0,-3.099913073E-1,4.234430222E0
1.232914162E1,-1.451142100E0,-1.918184650E0,-1.003505582E0,2.606198227E0
1.233910763E1,-1.649511230E0,-1.511517233E0,-2.535979528E0,3.381828472E0
1.234907463E1,-1.527743549E0,-6.891095674E-1,-1.558036804E0,2.288307459E0
1.235904062E1,-1.309134282E0,3.218550155E-1,-2.968970525E-1,1.380424239E0
1.236900662E1,-8.828360081E-1,8.661884004E-1,3.106187135E-1,1.275212040E0
1.237897263E1,-3.445366573E-1,1.492787139E0,1.073497923E0,1.870699533E0
1.238893862E1,8.251590729E-2,2.214528263E0,1.789050938E0,2.848095427E0
1.239890462E1,2.941675723E-1,2.625032038E0,2.080986044E0,3.362711804E0
1.240887162E1,4.301539278E-1,2.787332034E0,2.374465399E0,3.686778838E0
1.241883763E1,5.808273196E-1,2.963254287E0,2.835211374E0,4.142059860E0
1.242880362E1,9.361602759E-1,3.325994496E0,3.057556427E0,4.613814773E0
1.243876962E1,1.636176070E0,3.803366445E0,2.686092172E0,4.935358103E0
1.244873563E1,2.290113466E0,4.169910268E0,2.154432920E0,5.222485283E0
1.245870263E1,2.933596625E0,4.377368894E0,2.000734178E0,5.636513536E0
1.246866862E1,3.754770820E0,4.457334246E0,2.118223452E0,6.201048547E0
1.247863462E1,4.503890947E0,4.348057387E0,2.254819672E0,6.653934810E0
1.248860063E1,4.949219568E0,4.313026718E0,2.495274721E0,7.023059856E0
1.249856662E1,5.214574401E0,4.587823634E0,2.846471942E0,7.506151770E0
1.250853262E1,5.642647305E0,4.700420542E0,3.049561529E0,7.951933564E0
1.251849962E1,6.383054495E0,4.229006322E0,3.113560474E0,8.265720657E0
1.252846563E1,7.159922583E0,3.775445990E0,3.095521814E0,8.666068262E0
1.253843162E1,7.512554126E0,3.875174346E0,2.939149725E0,8.949527742E0
1.254839762E1,7.261723777E0,4.552537442E0,2.427217809E0,8.907840124E0
1.255836362E1,7.200480040E0,5.528979771E0,1.536309135E0,9.207430471E0
1.256832963E1,7.735457003E0,5.968702667E0,8.779570913E-1,9.809868258E0
1.257829662E1,8.374048966E0,5.534948024E0,7.625137585E-1,1.006686510E1
1.258826262E1,8.357093210E0,4.839641578E0,8.965898287E-1,9.698814920E0
1.259822862E1,7.716479280E0,4.514450433E0,9.351896381E-1,8.988820548E0
1.260819463E1,7.474588155E0,4.182396412E0,9.286179525E-1,8.615349043E0
1.261816062E1,7.639548633E0,3.671770763E0,6.904140812E-1,8.504191641E0
1.262812662E1,7.684849352E0,3.359492025E0,2.869661415E-1,8.391986999E0
1.263809362E1,7.815053396E0,3.286045150E0,-7.833807170E-2,8.478165436E0
1.264805963E1,7.958897824E0,3.274416792E0,-5.131604165E-1,8.621438019E0
1.265802562E1,8.499893911E0,3.842813516E0,-1.013851646E0,9.383139526E0
1.266799162E1,9.085276796E0,4.401342478E0,-1.234816171E0,1.017048873E1
1.267795763E1,1.036338984E1,4.324873762E0,-1.503001640E0,1.132975711E1
1.268792362E1,1.139780205E1,4.036010199E0,-1.360853489E0,1.216762887E1
1.269789062E1,1.237614181E1,3.373585569E0,-1.143586158E0,1.287857736E1
1.270785662E1,1.329195845E1,2.288023671E0,-1.437383602E0,1.356382259E1
1.271782263E1,1.285777813E1,1.502801081E0,-1.457917269E0,1.302714060E1
1.272778862E1,1.217895498E1,5.585593683E-1,-1.124011434E0,1.224346090E1
1.273775462E1,1.193312400E1,-5.623963112E-1,-6.483199757E-1,1.196394821E1
1.274772062E1,1.100943467E1,-1.230447131E0,-1.287743998E-1,1.107872893E1
1.275768763E1,9.538478109E0,-1.298618065E0,3.469117963E-1,9.632721387E0
1.276765362E1,7.928972944E0,-1.259718293E0,6.777162677E-1,8.056972227E0
1.277761962E1,6.719532520E0,-1.352418296E0,5.628991717E-1,6.877354724E0
1.278758563E1,5.220076046E0,-1.489646015E0,3.472094196E-1,5.439558213E0
1.279755163E1,3.868309715E0,-1.681914160E0,1.468580836E-1,4.220689824E0
1.280751762E1,2.937062269E0,-1.854901112E0,1.072607392E-1,3.475413324E0
1.281748462E1,2.041674628E0,-1.819862257E0,2.689625645E-1,2.748213016E0
1.282745063E1,1.216140164E0,-1.761804668E0,4.717369866E-1,2.192142416E0
1.283741662E1,4.233085924E-1,-1.852311380E0,4.843529391E-1,1.960827729E0
1.284738262E1,-3.898619342E-1,-1.934805652E0,2.987938893E-1,1.996182113E0
1.285734862E1,-1.179314985E0,-1.812082244E0,1.538764966E-1,2.167510984E0
1.286731463E1,-1.881906477E0,-1.840975383E0,1.116590148E-1,2.635000965E0
1.287728162E1,-2.539056333E0,-1.965106509E0,4.647238362E-1,3.244136079E0
1.288724762E1,-3.267145779E0,-2.119915636E0,8.298424003E-1,3.982075119E0
1.289721362E1,-3.848157871E0,-2.339252589E0,1.109213886E0,4.637971229E0
1.290717963E1,-4.207041256E0,-2.519507630E0,1.260787164E0,5.063269606E0
1.291714562E1,-4.493738426E0,-2.705972121E0,1.239367644E0,5.389990938E0
1.292711162E1,-4.627473019E0,-3.045015611E0,1.199380290E0,5.667816131E0
1.293707862E1,-4.626355031E0,-3.508750099E0,1.286765758E0,5.947289655E0
1.294704463E1,-4.499752287E0,-4.094567724E0,1.398755141E0,6.242577308E0
1.295701062E1,-4.330988195E0,-4.980622040E0,1.326960688E0,6.732375459E0
1.296697662E1,-4.368942472E0,-6.081910025E0,1.438795120E0,7.625445513E0
1.297694263E1,-4.459141620E0,-7.270287609E0,1.594170257E0,8.676543362E0
1.298690862E1,-4.811058633E0,-8.277880980E0,1.432346225E0,9.680971769E0
1.299687521E1,-5.461725097E0,-8.924157354E0,8.752714652E-1,1.049938692E1
1.300684221E1,-6.128191321E0,-9.568126416E0,3.213550785E-1,1.136692751E1
1.301680821E1,-6.378322928E0,-1.024337340E1,1.432912821E-1,1.206773527E1
1.302677421E1,-6.233855771E0,-1.056138124E1,4.180273873E-1,1.227104227E1
1.303674021E1,-5.802790262E0,-1.025169399E1,1.007253647E0,1.182303533E1
1.304670621E1,-5.090549694E0,-9.550933848E0,1.603322319E0,1.094096321E1
1.305667321E1,-4.519476115E0,-8.997360401E0,2.055312089E0,1.027630606E1
1.306663921E1,-4.533096619E0,-8.846627367E0,2.294444498E0,1.020177711E1
1.307660521E1,-4.995180438E0,-9.376962810E0,2.018272317E0,1.081446634E1
1.308657121E1,-5.630558771E0,-1.065696919E1,1.393888503E0,1.213330579E1
1.309653721E1,-6.108747575E0,-1.188986864E1,8.818375960E-1,1.339639544E1
1.310650321E1,-6.241896277E0,-1.236328612E1,6.913847190E-1,1.386687151E1
1.311647021E1,-5.767200015E0,-1.215290564E1,1.183120353E0,1.350383224E1
1.312643621E1,-4.810738791E0,-1.135446951E1,2.052385558E0,1.250117883E1
1.313640221E1,-3.904822653E0,-1.013629334E1,2.776263254E0,1.121158866E1
1.314636821E1,-2.849562196E0,-9.135149453E0,2.921251398E0,1.000523213E1
1.315633421E1,-1.408045197E0,-8.804322177E0,2.225840287E0,9.189833799E0
1.316630021E1,5.835638165E-2,-9.067480795E0,9.945856547E-1,9.122050979E0
1.317626621E1,1.215930834E0,-9.701440594E0,-1.072303337E-1,9.777931056E0
1.318623321E1,2.023390385E0,-1.020830648E1,-8.397902682E-1,1.044073166E1
1.319619921E1,2.666765955E0,-1.009347535E1,-1.201912719E0,1.050878107E1
1.320616521E1,3.125706895E0,-9.344089764E0,-1.423544996E0,9.955327090E0
1.321613121E1,3.111587623E0,-7.976064080E0,-1.506414075E0,8.693035092E0
1.322609721E1,2.995921512E0,-5.881349359E0,-2.080346943E0,6.920524502E0
1.323606321E1,2.402101679E0,-5.150409395E0,-2.061561593E0,6.045398714E0
1.324603021E1,2.398293972E0,-3.321062078E0,-3.289760470E-2,4.096626606E0
1.325599621E1,1.702875259E0,-2.229090754E0,-5.523531336E-1,2.858972494E0
1.326596221E1,8.639652890E-1,-2.172543501E0,-1.192630264E0,2.624642496E0
1.327592821E1,3.682424390E-1,-1.579598411E0,-1.642943053E0,2.308678304E0
1.328589421E1,-2.235899252E-1,-9.916322261E-1,-1.791478995E0,2.059787347E0
1.329586021E1,-4.081607956E-1,-3.424492013E-1,-1.818288771E0,1.894740284E0
1.330582721E1,-1.824179256E-1,3.730038267E-1,-1.687049770E0,1.737396063E0
1.331579321E1,3.003188431E-1,9.982349020E-1,-1.348636317E0,1.704548105E0
1.332575921E1,8.741604942E-1,1.563738424E0,-7.592358094E-1,1.945732109E0
1.333572521E1,1.207792679E0,2.256031215E0,2.208782789E-1,2.568506806E0
1.334569121E1,1.386135680E0,2.959675207E0,1.251283100E0,3.499536948E0
1.335565721E1,1.483622798E0,3.535362239E0,2.130340345E0,4.386145546E0
1.336562421E1,1.293881235E0,3.991311743E0,2.632392513E0,4.953199817E0
1.337559021E1,1.299303358E0,4.412486687E0,2.917125603E0,5.446820151E0
1.338555621E1,2.183801145E0,4.716016236E0,3.167562434E0,6.086316485E0
1.339552221E1,2.303704149E0,5.291685142E0,3.030129770E0,6.518486854E0
1.340548821E1,2.202432713E0,5.656014040E0,2.561488007E0,6.588051721E0
1.341545421E1,2.695306215E0,5.483342253E0,2.116660491E0,6.466217557E0
1.342542021E1,3.248180043E0,5.138783376E0,1.921873658E0,6.375842418E0
1.343538721E1,3.820588249E0,4.858829800E0,1.912355268E0,6.470102338E0
1.344535321E1,4.561377262E0,4.624155893E0,1.867415907E0,6.758418634E0
1.345531921E1,5.486553544E0,4.225271705E0,1.737351027E0,7.139578374E0
1.346528521E1,6.562835326E0,3.672477107E0,1.565556908E0,7.681722727E0
1.347525121E1,7.617944925E0,3.179696576E0,1.369662612E0,8.367767377E0
1.348521721E1,8.174498114E0,3.185854864E0,1.184641213E0,8.852991892E0
1.349518421E1,8.137505704E0,3.782905868E0,9.896026576E-1,9.028216286E0
1.350515021E1,8.163746839E0,4.716650074E0,7.999216130E-1,9.462210363E0
1.351511621E1,8.544341521E0,5.385166333E0,6.709206337E-1,1.012205132E1
1.352508221E1,9.162157742E0,5.558728650E0,7.818113244E-1,1.074503735E1
1.353504821E1,9.310583464E0,5.558794724E0,9.432143569E-1,1.088470562E1
1.354501421E1,8.994873580E0,5.437662635E0,1.106429149E0,1.056882733E1
1.355498121E1,8.629187543E0,4.717216085E0,1.461441093E0,9.942374732E0
1.356494721E1,8.492463269E0,3.560950824E0,1.820542288E0,9.387048384E0
1.357491321E1,8.324245892E0,2.727053087E0,2.064132906E0,8.999474032E0
1.358487921E1,7.913461450E0,2.512598852E0,2.268494848E0,8.607095561E0
1.359484521E1,7.831860632E0,2.617848734E0,2.202379503E0,8.546440688E0
1.360481121E1,8.351388082E0,2.874365500E0,1.852830320E0,9.024446804E0
1.361477721E1,9.462208198E0,3.217652022E0,1.150592292E0,1.006034448E1
1.362474421E1,1.056368505E1,3.299152853E0,3.322604281E-1,1.107186743E1
1.363471021E1,1.174417708E1,2.982852985E0,-2.523248971E-1,1.211968543E1
1.364467621E1,1.287872285E1,2.260768629E0,-4.939186916E-1,1.308497355E1
1.365464221E1,1.372470269E1,1.494002191E0,-3.587038761E-1,1.381043718E1
1.366460821E1,1.387683204E1,7.077288562E-1,-8.761497170E-2,1.389514390E1
1.367457421E1,1.344458949E1,-4.565944523E-1,1.582353035E-1,1.345327110E1
1.368454121E1,1.270347128E1,-1.805490970E0,5.867406088E-1,1.284454143E1
1.369450721E1,1.177085441E1,-2.858231277E0,1.228661976E0,1.217506098E1
1.370447321E1,1.051513912E1,-3.308661010E0,2.004101005E0,1.120409788E1
1.371443921E1,9.222738404E0,-3.155221301E0,2.699831083E0,1.011451497E1
1.372440521E1,7.837026647E0,-2.747111376E0,2.852539890E0,8.780808130E0
1.373437121E1,6.225411807E0,-2.439225651E0,2.358512440E0,7.090003870E0
1.374433721E1,3.691760640E0,-2.698413425E0,1.447525305E0,4.796442551E0
1.375430421E1,1.732838731E0,-3.452521811E0,5.454925954E-1,3.901307357E0
1.376427021E1,1.033887130E-1,-3.836051795E0,2.457654905E-1,3.845306656E0
1.377423621E1,-2.075639935E0,-3.222033926E0,4.330611634E-1,3.857113652E0
1.378420221E1,-3.600186226E0,-2.625009819E0,4.886357322E-1,4.482274232E0
1.379416821E1,-4.154546708E0,-2.389696811E0,8.672464541E-1,4.870628872E0
1.380413421E1,-4.156841741E0,-2.150170884E0,1.303906579E0,4.858265169E0
1.381410121E1,-3.851677310E0,-1.607192007E0,1.515094559E0,4.440044568E0
1.382406721E1,-3.474162356E0,-9.899248391E-1,1.559844763E0,3.934827944E0
1.383403321E1,-3.163939499E0,-5.681727755E-1,1.621110134E0,3.600184929E0
1.384399921E1,-3.252386822E0,-6.871127433E-1,1.499879812E0,3.646886811E0
1.385396521E1,-4.070768387E0,-9.075048262E-1,1.441721651E0,4.412854132E0
1.386393121E1,-5.103791299E0,-1.794838805E0,1.074242566E0,5.515807198E0
1.387389821E1,-5.885765761E0,-2.854084140E0,6.414281550E-1,6.572629987E0
1.388386421E1,-6.284246491E0,-3.469004235E0,5.513374722E-1,7.199285891E0
1.389383021E1,-6.288432512E0,-3.880007362E0,7.875904199E-1,7.430958166E0
1.390379621E1,-6.012585436E0,-4.221195319E0,1.076536429E0,7.424863920E0
1.391376221E1,-5.812538155E0,-4.724734142E0,1.269720540E0,7.597427378E0
1.392372821E1,-5.504082327E0,-5.703058398E0,1.441654116E0,8.055939668E0
1.393369421E1,-4.874209147E0,-7.228101118E0,1.534217294E0,8.851959290E0
1.394366121E1,-4.163580657E0,-9.049576621E0,1.469502650E0,1.006924421E1
1.395362721E1,-3.725458143E0,-1.058819891E1,1.541844402E0,1.132988432E1
1.396359321E1,-3.710829579E0,-1.136150020E1,1.821918430E0,1.209021628E1
1.397355921E1,-3.939392561E0,-1.093339397E1,2.069045152E0,1.180418846E1
1.398352521E1,-3.914479330E0,-9.560762433E0,2.269726856E0,1.057747544E1
1.399349121E1,-3.405217836E0,-8.406720868E0,2.340493368E0,9.367303426E0
1.400345675E1,-2.966660875E0,-7.903953878E0,2.263111316E0,8.740436859E0
1.401342375E1,-3.004706368E0,-7.826601647E0,1.939015355E0,8.604866893E0
1.402338975E1,-3.299359844E0,-8.579725361E0,1.551762449E0,9.322308156E0
1.403335575E1,-3.221130531E0,-9.946806135E0,1.142344794E0,1.051758460E1
1.404332175E1,-3.156797125E0,-1.114264594E1,4.439910713E-1,1.158969605E1
1.405328775E1,-3.887196806E0,-1.172573262E1,-3.070849487E-1,1.235707917E1
1.406325375E1,-5.013980405E0,-1.168307367E1,-8.073297429E-1,1.273915191E1
1.407322075E1,-5.711193044E0,-1.129170550E1,-5.484030470E-1,1.266574455E1
1.408318675E1,-5.785801762E0,-1.066128326E1,1.771124545E-1,1.213135737E1
1.409315275E1,-5.164270220E0,-9.991399341E0,8.640594292E-1,1.128026358E1
1.410311875E1,-3.739142967E0,-9.432722443E0,1.187150546E0,1.021600554E1
1.411308475E1,-1.998322787E0,-8.946576748E0,1.020398481E0,9.223651258E0
1.412305075E1,-3.955518597E-1,-8.596948335E0,6.456989613E-1,8.630232274E0
1.413301675E1,8.772934324E-1,-8.396201727E0,8.090119869E-2,8.442297804E0
1.414298375E1,1.595601071E0,-8.086054884E0,-5.413863882E-1,8.259741254E0
1.415294975E1,1.688307506E0,-7.320067295E0,-1.000976369E0,7.578635835E0
1.416291575E1,1.222352246E0,-6.311795647E0,-1.083044672E0,6.519654520E0
1.417288175E1,7.693655258E-1,-5.445769215E0,-7.294074082E-1,5.548005121E0
1.418284775E1,4.132022649E-1,-4.782692036E0,-1.078708962E-1,4.801720041E0
1.419281375E1,6.858140767E-2,-3.975975666E0,4.978164455E-1,4.007606158E0
1.420278075E1,-3.528753716E-1,-2.971834491E0,9.799217150E-1,3.149058247E0
1.421274675E1,-7.392716610E-1,-1.784556184E0,1.172368200E0,2.259559815E0
1.422271275E1,-8.434362996E-1,-5.736329055E-1,8.699923065E-1,1.340643918E0
1.423267875E1,-7.539165974E-1,4.753283465E-1,2.217135537E-1,9.184139441E-1
1.424264475E1,-5.692293674E-1,1.367397108E0,-5.512263751E-1,1.580394710E0
1.425261075E1,-3.111502254E-1,2.044165542E0,-1.190942465E0,2.386162438E0
1.426257675E1,-1.139493692E-1,2.559307580E0,-1.472530630E0,2.954891911E0
1.427254375E1,-8.829354107E-2,2.922809681E0,-1.436933074E0,3.258126585E0
1.428250975E1,-1.782412595E-1,3.135529048E0,-1.113919140E0,3.332285733E0
1.429247575E1,-3.420971990E-1,3.352519221E0,-5.712679991E-1,3.418005668E0
1.430244175E1,-3.703497756E-1,3.584946043E0,-1.409266680E-2,3.604052676E0
1.431240775E1,-2.318842006E-1,3.803234882E0,4.312581745E-1,3.834625075E0
1.432237375E1,2.787192285E-2,4.068825358E0,7.958209607E-1,4.146015875E0
1.433233975E1,4.099845421E-1,4.333213645E0,1.135022034E0,4.498122146E0
1.434230675E1,9.635954118E-1,4.452251846E0,1.395916610E0,4.764414529E0
1.435227275E1,1.650933273E0,4.352135235E0,1.514418329E0,4.894908033E0
1.436223875E1,2.485919176E0,4.068910727E0,1.404027868E0,4.970626008E0
1.437220475E1,3.693721211E0,3.558092705E0,1.381234544E0,5.311441325E0
1.438217075E1,4.552367288E0,2.944995772E0,1.576720412E0,5.646511779E0
1.439213675E1,4.776546028E0,2.603814247E0,1.641969784E0,5.682543916E0
1.440210375E1,4.683339071E0,2.647502303E0,1.712644787E0,5.645891025E0
1.441206975E1,4.861483267E0,2.879160801E0,1.815634135E0,5.934653637E0
1.442203575E1,5.534294305E0,2.933607150E0,1.837065935E0,6.527578082E0
1.443200175E1,6.176409216E0,2.863202580E0,1.992408620E0,7.093352658E0
1.444196775E1,6.368473293E0,3.293495087E0,2.251517749E0,7.514911453E0
1.445193375E1,6.505299894E0,4.131381794E0,2.375774590E0,8.064213982E0
1.446189975E1,7.387888564E0,4.479903914E0,2.182881963E0,8.911532426E0
1.447186675E1,8.660698773E0,3.974318565E0,1.902669063E0,9.717152920E0
1.448183275E1,9.311343602E0,3.301646690E0,1.808793770E0,1.004359126E1
1.449179875E1,9.268022166E0,3.186748903E0,1.920253687E0,9.986940355E0
1.450176475E1,9.268634369E0,3.262770308E0,2.103078579E0,1.004869109E1
1.451173075E1,9.744954404E0,2.742158200E0,2.296545695E0,1.038064016E1
1.452169675E1,1.008422038E1,1.882356128E0,2.571012536E0,1.057567354E1
1.453166275E1,1.006393873E1,1.264272105E0,2.908465877E0,1.055179702E1
1.454162975E1,9.881793283E0,9.893658453E-1,3.343333245E0,1.047886256E1
1.455159575E1,9.518925020E0,1.465097065E0,3.844129139E0,1.036984917E1
1.456156175E1,9.227593932E0,2.523377609E0,3.907314736E0,1.033358760E1
1.457152775E1,9.480818716E0,3.200981026E0,3.365797078E0,1.055749937E1
1.458149375E1,1.063947549E1,2.887280245E0,2.411745492E0,1.128500519E1
1.459145975E1,1.199278899E1,1.616591406E0,1.215843710E0,1.216218038E1
1.460142575E1,1.296045874E1,3.946747774E-1,9.801512182E-2,1.296683716E1
1.461139275E1,1.336044221E1,-4.573037195E-1,-5.732408497E-1,1.338055110E1
1.462135875E1,1.303310455E1,-1.185559226E0,-6.297503883E-1,1.310205902E1
1.463132475E1,1.227893535E1,-2.022969970E0,6.189219296E-2,1.244461697E1
1.464129075E1,1.107344648E1,-2.715201366E0,5.820847633E-1,1.141631981E1
1.465125675E1,9.231201664E0,-2.807378628E0,1.471308270E0,9.760184780E0
1.466122275E1,7.284931961E0,-2.772039226E0,2.299471934E0,8.126623304E0
1.467118875E1,5.294857841E0,-2.650253418E0,2.582335377E0,6.459707326E0
1.468115575E1,3.079014539E0,-2.628602348E0,2.636365989E0,4.831180649E0
1.469112175E1,8.031121463E-1,-2.694634954E0,2.164179936E0,3.548199748E0
1.470108775E1,-1.086800339E0,-2.577102411E0,1.406700922E0,3.130718655E0
1.471105375E1,-2.266702968E0,-2.092824317E0,6.804881403E-1,3.159259419E0
1.472101975E1,-2.668928255E0,-1.425788573E0,1.963918939E-1,3.032263324E0
1.473098575E1,-2.965381504E0,-1.166502566E0,-3.146094382E-3,3.186569566E0
1.474095175E1,-3.721153423E0,-1.594332810E0,6.871411023E-1,4.106220014E0
1.475091875E1,-3.189724551E0,-3.760356081E-1,1.547722023E0,3.565275438E0
1.476088475E1,-3.369841597E0,7.519267899E-1,3.596329987E-1,3.471391966E0
1.477085075E1,-3.494412434E0,9.129199326E-2,6.745163789E-1,3.560087756E0
1.478081675E1,-2.329466397E0,1.497091860E-1,2.664228263E-1,2.349427091E0
1.479078275E1,-3.311585788E0,-2.156505758E-1,3.524040860E-1,3.337258491E0
1.480074875E1,-4.316348521E0,-1.052520452E0,4.129742235E-2,4.443013542E0
1.481071475E1,-5.195946341E0,-1.346662589E0,3.375539124E-1,5.378224721E0
1.482068175E1,-5.281485844E0,-1.804725277E0,6.632748145E-1,5.620592453E0
1.483064775E1,-4.635998259E0,-2.675995785E0,9.769434357E-1,5.441309748E0
1.484061375E1,-4.215962353E0,-3.463486218E0,1.537934661E0,5.668802198E0
1.485057975E1,-3.841703129E0,-4.162377592E0,1.854054143E0,5.959998902E0
1.486054575E1,-3.560364933E0,-4.871120940E0,1.851242217E0,6.311189699E0
1.487051175E1,-3.445349616E0,-5.701970816E0,1.827234719E0,6.908088873E0
1.488047775E1,-3.687114442E0,-6.650330722E0,1.966432657E0,7.854207090E0
1.489044475E1,-4.416053488E0,-7.550280361E0,2.252739818E0,9.032336277E0
1.490041075E1,-5.256260371E0,-8.417797834E0,2.349513283E0,1.019842175E1
1.491037675E1,-5.692778408E0,-9.457474877E0,2.324642151E0,1.128075876E1
1.492034275E1,-5.652150199E0,-1.010511716E1,2.503942926E0,1.184609323E1
1.493030875E1,-5.366133061E0,-9.842109400E0,2.756551121E0,1.154387611E1
1.494027475E1,-4.696133949E0,-8.952536815E0,2.804317903E0,1.049122435E1
1.495024075E1,-3.726507719E0,-8.347768655E0,2.702589799E0,9.532895306E0
1.496020775E1,-2.962593552E0,-8.141863634E0,2.479301882E0,9.011872270E0
1.497017375E1,-2.585282666E0,-8.134930006E0,1.935335118E0,8.752502195E0
1.498013975E1,-2.713745994E0,-8.533921198E0,1.370919471E0,9.059340402E0
1.499010575E1,-3.322155799E0,-9.237564604E0,1.261825045E0,9.897551284E0
1.500007137E1,-4.169957045E0,-9.726792952E0,1.556191422E0,1.069676468E1
1.501003737E1,-4.648773841E0,-1.018762371E1,1.929861832E0,1.136323641E1
1.502000338E1,-4.773583828E0,-1.054440327E1,2.346569502E0,1.181007753E1
1.502997038E1,-4.834678461E0,-1.026776682E1,2.814180694E0,1.169276547E1
1.503993637E1,-4.543408769E0,-9.337292960E0,3.167446952E0,1.085634944E1
1.504990237E1,-3.311286995E0,-8.589831104E0,3.347014652E0,9.795525869E0
1.505986838E1,-1.585793536E0,-8.685725441E0,2.985149186E0,9.320283431E0
1.506983437E1,-2.481265962E-2,-9.006220686E0,2.369309909E0,9.312693282E0
1.507980037E1,1.233062591E0,-9.068632697E0,1.815652261E0,9.330441334E0
1.508976637E1,2.165192966E0,-8.893968179E0,1.318934508E0,9.248260311E0
1.509973338E1,2.940552472E0,-8.257098221E0,8.805971092E-1,8.809198099E0
1.510969937E1,3.311793364E0,-7.025246589E0,5.630158237E-1,7.787108047E0
1.511966537E1,3.007407782E0,-5.699057148E0,4.228840846E-1,6.457753858E0
1.512963137E1,2.431649414E0,-4.548079525E0,7.146747637E-1,5.206602179E0
1.513959738E1,1.305833529E0,-3.489856868E0,8.267933697E-2,3.727081705E0
1.514956337E1,4.382037896E-1,-2.423159841E0,-7.123233059E-1,2.563421672E0
1.515952937E1,-1.019538063E-1,-1.378447761E0,-8.439815524E-1,1.619511553E0
1.516949637E1,-9.716452736E-1,-5.719032991E-1,-8.746370423E-1,1.426940040E0
1.517946238E1,-1.709427064E0,1.491291422E-1,-1.214124044E0,2.102017503E0
1.518942837E1,-2.126546963E0,8.752416444E-1,-1.855655987E0,2.954946542E0
1.519939437E1,-2.179470112E0,1.603964344E0,-2.407314179E0,3.621871497E0
1.520936038E1,-2.125380444E0,2.260472175E0,-2.691463717E0,4.107426619E0
1.521932637E1,-1.883517970E0,2.760895017E0,-2.659997511E0,4.271506525E0
1.522929237E1,-1.591408617E0,3.219271116E0,-2.084834096E0,4.152447606E0
1.523925937E1,-1.297987735E0,3.711509026E0,-1.142786844E0,4.094634682E0
1.524922538E1,-8.040517938E-1,4.183057147E0,-2.389701489E-1,4.266330170E0
1.525919137E1,-2.705342960E-1,4.642051297E0,3.871663678E-1,4.666018307E0
1.526915737E1,3.754029393E-2,5.056568016E0,6.698748592E-1,5.100884404E0
1.527912338E1,3.891129059E-1,5.342630762E0,7.178591573E-1,5.404667805E0
1.528908938E1,1.681554556E0,5.303103000E0,1.240876518E0,5.700026464E0
1.529905537E1,2.446060461E0,5.342061828E0,1.659222578E0,6.105231848E0
1.530902137E1,3.020378661E0,5.392195271E0,1.567673600E0,6.376210286E0
1.531898838E1,4.306484561E0,5.305200981E0,1.200213811E0,6.937685487E0
1.532895437E1,6.035983654E0,5.432134092E0,6.151443359E-1,8.143683566E0
1.533892037E1,7.787485528E0,5.733246987E0,-1.065751532E-1,9.670905342E0
1.534888637E1,9.102076432E0,6.202361498E0,-7.846235427E-1,1.104231487E1
1.535885238E1,9.759539698E0,6.689583081E0,-1.581127166E0,1.193729869E1
1.536881837E1,1.016368170E1,6.856664929E0,-2.530431690E0,1.251868061E1
1.537878437E1,1.058414446E1,6.583081895E0,-3.154891225E0,1.285746553E1
1.538875137E1,1.086474766E1,6.285644560E0,-3.146197585E0,1.294027157E1
1.539871738E1,1.045253182E1,6.518193004E0,-2.802659340E0,1.263317699E1
1.540868337E1,9.802440720E0,7.003958046E0,-2.393763257E0,1.228305234E1
1.541864937E1,9.705326654E0,6.397318193E0,-1.840291259E0,1.176884520E1
1.542861538E1,9.311992643E0,4.910986379E0,-1.062025978E0,1.058106296E1
1.543858137E1,8.161693296E0,3.606150970E0,-2.880107465E-1,8.927514350E0
1.544854737E1,6.820179473E0,2.447115299E0,4.243897426E-1,7.258328181E0
1.545851437E1,6.141075661E0,1.048004063E0,1.197044912E0,6.343818985E0
1.546848038E1,5.864387755E0,-1.077314401E-1,1.962843636E0,6.185095387E0
1.547844637E1,5.310587436E0,-5.351342529E-1,2.687617126E0,5.975951255E0
1.548841237E1,4.717055871E0,-3.895999789E-2,3.206278018E0,5.703713939E0
1.549837837E1,4.621111248E0,7.662442821E-1,3.542974729E0,5.873199247E0
1.550834438E1,5.191275585E0,1.024615200E0,3.388471119E0,6.283384043E0
1.551831037E1,5.963709145E0,4.877028090E-1,2.840679106E0,6.623680139E0
1.552827637E1,7.022995995E0,-5.008110970E-1,2.208900611E0,7.379195513E0
1.553824337E1,9.499143890E0,-1.041105518E0,1.829045894E0,9.729493523E0
1.554820938E1,9.906067414E0,-1.526206316E0,1.286793825E0,1.010521230E1
1.555817537E1,9.675254424E0,-1.839997144E0,9.319631445E-1,9.892658538E0
1.556814137E1,9.203750156E0,-2.067367879E0,6.956648809E-1,9.458698457E0
1.557810738E1,9.130443029E0,-3.050463170E0,5.287464622E-1,9.641052239E0
1.558807337E1,8.514985574E0,-3.527377866E0,1.045595010E0,9.275809553E0
1.559803937E1,7.526678660E0,-3.220761572E0,1.774315955E0,8.376896434E0
1.560800537E1,6.924726520E0,-3.183435870E0,1.857033884E0,7.844404130E0
1.561797238E1,5.545049089E0,-3.189888273E0,1.503491637E0,6.571411089E0
1.562793837E1,3.344003336E0,-3.031943284E0,1.022885301E0,4.628318564E0
1.563790437E1,9.896535283E-1,-3.013599983E0,4.013517129E-1,3.197230390E0
1.564787037E1,-7.678201067E-1,-2.949255468E0,-6.210941702E-2,3.048198339E0
1.565783638E1,-1.836500509E0,-2.519231933E0,-7.171259165E-2,3.118398042E0
1.566780237E1,-2.331555607E0,-1.867693650E0,-1.091736558E-1,2.989372845E0
1.567776837E1,-2.448961850E0,-1.499620780E0,3.351390123E-2,2.871828652E0
1.568773538E1,-2.814290621E0,-7.981589699E-1,4.950676695E-1,2.966880759E0
1.569770138E1,-3.128557997E0,7.043731391E-2,6.254418674E-1,3.191240211E0
1.570766737E1,-2.824794559E0,6.063469076E-1,6.465397909E-1,2.960596997E0
1.571763337E1,-2.497570338E0,9.537019229E-1,1.108947545E0,2.894334053E0
1.572759938E1,-2.841874276E0,1.092992540E0,1.595842561E0,3.437672988E0
1.573756537E1,-3.383147521E0,1.052949345E0,1.727605180E0,3.941954989E0
1.574753137E1,-3.896252389E0,9.844193932E-1,1.516926785E0,4.295454701E0
1.575749738E1,-4.134009533E0,5.204890242E-1,7.921608961E-1,4.241280765E0
1.576746438E1,-4.360333031E0,2.222930127E-1,2.498278436E-1,4.373137578E0
1.577743037E1,-5.369732022E0,-1.024979189E0,2.243263820E-1,5.471281994E0
1.578739637E1,-5.310843544E0,-2.194578733E0,6.043056446E-1,5.778098327E0
1.579736238E1,-4.886810482E0,-2.492377718E0,-3.192287385E-2,5.485789136E0
1.580732837E1,-5.282783926E0,-3.228983926E0,-6.503188464E-1,6.225516669E0
1.581729437E1,-5.067723334E0,-4.126199699E0,-6.979312617E-1,6.572248610E0
1.582726037E1,-4.719846162E0,-5.009108505E0,-4.909564921E-1,6.899938702E0
1.583722638E1,-4.331773476E0,-5.852144855E0,-3.121568236E-1,7.287612966E0
1.584719337E1,-3.826069429E0,-6.467168446E0,-1.239638954E-1,7.515214038E0
1.585715937E1,-3.446391006E0,-7.341079849E0,1.464312369E-1,8.111134718E0
1.586712537E1,-3.521539421E0,-8.030809221E0,4.248043102E-1,8.779270775E0
1.587709138E1,-4.128789724E0,-8.050933583E0,7.289197505E-1,9.077211034E0
1.588705737E1,-4.469866583E0,-7.781381620E0,8.447776508E-1,9.013504117E0
1.589702337E1,-4.244503782E0,-8.046217804E0,9.120744252E-1,9.142719129E0
1.590698938E1,-4.014842693E0,-8.462717314E0,1.136274507E0,9.435447310E0
1.591695638E1,-4.292338684E0,-8.677553372E0,1.450470255E0,9.789176057E0
1.592692237E1,-4.531621367E0,-8.985861851E0,1.588090907E0,1.018839232E1
1.593688837E1,-4.150648955E0,-9.656469659E0,1.496719977E0,1.061675392E1
1.594685438E1,-3.573352184E0,-1.021233405E1,1.356921237E0,1.090421238E1
1.595682037E1,-3.640635509E0,-1.031654897E1,1.114563796E0,1.099671142E1
1.596678637E1,-3.619731129E0,-1.021781289E1,8.681720683E-1,1.087473569E1
1.597675237E1,-3.195889270E0,-1.026262010E1,7.160076365E-1,1.077254596E1
1.598671838E1,-2.869393612E0,-9.863367537E0,8.710202470E-1,1.030912776E1
1.599668512E1,-2.458470592E0,-8.952913375E0,1.166618048E0,9.357335798E0
1.600665112E1,-1.712731326E0,-8.257035656E0,1.348163862E0,8.539884789E0
1.601661713E1,-6.592589468E-1,-8.190143509E0,1.315024475E0,8.321199578E0
1.602658312E1,3.319423395E-1,-8.521589420E0,1.042838340E0,8.591576326E0
1.603654912E1,1.113005220E0,-8.810285168E0,6.004078907E-1,8.900583969E0
1.604651512E1,1.749443069E0,-8.816123028E0,9.040672481E-2,8.988478718E0
1.605648113E1,2.219791342E0,-8.316738067E0,-3.101491821E-1,8.613466096E0
1.606644712E1,2.432242321E0,-7.304616612E0,-5.459551102E-1,7.718244201E0
1.607641412E1,2.318338560E0,-5.898665303E0,-7.507085225E-1,6.382202545E0
1.608638012E1,1.966070715E0,-4.337002641E0,-8.269535834E-1,4.833102336E0
1.609634613E1,1.391747253E0,-2.977640777E0,-6.524147809E-1,3.350962557E0
1.610631212E1,5.851010495E-1,-1.870497390E0,-4.021948814E-1,2.000715984E0
1.611627812E1,-4.039823753E-1,-9.911662030E-1,-2.297099134E-1,1.094704913E0
1.612624413E1,-1.112715783E0,-2.322859043E-1,-1.741756904E-1,1.149969707E0
1.613621012E1,-1.260167944E0,4.166246402E-1,1.589606506E-1,1.336737755E0
1.614617612E1,-1.185218918E0,9.674159825E-1,4.548294702E-1,1.596091293E0
1.615614312E1,-1.027539977E0,1.530199964E0,5.530512911E-1,1.924374201E0
1.616610913E1,-8.246211290E-1,2.103915315E0,6.135407370E-1,2.341557579E0
1.617607512E1,-6.014434326E-1,2.597059543E0,6.963627461E-1,2.755244735E0
1.618604112E1,-2.927291572E-1,3.088094096E0,7.918518707E-1,3.201412952E0
1.619600712E1,6.053563893E-2,3.553793247E0,8.900745687E-1,3.664061100E0
1.620597313E1,4.539187664E-1,3.909564745E0,9.675934455E-1,4.053020579E0
1.621593912E1,8.548904103E-1,4.214615155E0,1.089811362E0,4.436384488E0
1.622590512E1,1.049893298E0,4.319440529E0,1.104070090E0,4.580263440E0
1.623587212E1,1.286722489E0,4.290840043E0,8.544404671E-1,4.560376251E0
1.624583813E1,1.676282122E0,4.342951598E0,5.741688028E-1,4.690503187E0
1.625580412E1,2.221218355E0,4.299853526E0,5.215897626E-1,4.867710674E0
1.626577012E1,2.848602960E0,4.155409757E0,5.789986029E-1,5.071213707E0
1.627573613E1,3.363574259E0,3.949010062E0,4.526592761E-1,5.207034922E0
1.628570212E1,3.774163403E0,3.677098746E0,3.371188796E-1,5.280058117E0
1.629566812E1,4.126952236E0,3.522093152E0,2.934147432E-1,5.433504131E0
1.630563412E1,4.487053597E0,3.627842971E0,2.074077559E-1,5.773899253E0
1.631560113E1,5.175748304E0,3.637007312E0,1.541074616E-1,6.327712209E0
1.632556712E1,6.106778233E0,3.244294276E0,1.029978266E-1,6.915836485E0
1.633553312E1,6.909767588E0,2.823875962E0,9.804348081E-2,7.465170868E0
1.634549912E1,7.270887533E0,3.041081312E0,1.878853646E-1,7.883481590E0
1.635546513E1,7.391135523E0,3.924863985E0,1.263785031E-1,8.369552745E0
1.636543112E1,7.784070754E0,4.536617228E0,-1.371844500E-2,9.009597193E0
1.637539712E1,8.408421239E0,4.344792302E0,-5.574355334E-2,9.464770215E0
1.638536313E1,8.901594118E0,3.853128004E0,-9.203517437E-3,9.699745252E0
1.639532912E1,8.837015129E0,3.463565447E0,-4.831378877E-2,9.491651923E0
1.640529612E1,8.547622978E0,2.986947790E0,-1.331832004E-1,9.055465391E0
1.641526212E1,8.352069283E0,2.065408477E0,-1.793677256E-1,8.605529981E0
1.642522813E1,8.465024625E0,7.888537109E-1,-1.935650575E-1,8.503904957E0
1.643519412E1,8.630856339E0,-5.398675740E-1,-1.977826542E-1,8.649985903E0
1.644516012E1,8.144770870E0,-8.652505070E-1,-1.094584152E-1,8.191332743E0
1.645512613E1,7.077742891E0,2.007770133E-1,-8.062257886E-2,7.081049063E0
1.646509212E1,6.582246913E0,1.499057693E0,-1.425837690E-1,6.752294315E0
1.647505812E1,6.998961600E0,1.758071221E0,-1.798200077E-1,7.218629588E0
1.648502512E1,7.781247134E0,1.164411601E0,-1.046917650E-1,7.868584479E0
1.649499113E1,8.021481158E0,3.763484341E-1,1.043540883E-1,8.030982996E0
1.650495712E1,7.904761963E0,-1.082892644E-1,4.008643475E-1,7.915660458E0
