"Time (s)","Linear Acceleration x (m/s^2)","Linear Acceleration y (m/s^2)","Linear Acceleration z (m/s^2)","Absolute acceleration (m/s^2)"
1.226083317E-3,5.995579979E-1,-9.359111845E-2,-5.736498624E-1,8.350468579E-1
1.119208330E-2,8.354408169E-1,-1.306998879E-1,-1.161683291E0,1.436854859E0
2.115908329E-2,1.100518784E0,-2.956469178E-1,-1.417859749E0,1.819031325E0
3.112608334E-2,1.011320094E0,-3.700343183E-1,-1.650565483E0,1.970801903E0
4.109208332E-2,8.851880506E-1,-4.774657962E-1,-1.293811653E0,1.638743441E0
5.105908331E-2,9.853730741E-1,-7.686205906E-1,-2.978045404E-1,1.284688776E0
6.102608331E-2,7.437231463E-1,-1.107480186E0,6.409366965E-1,1.480012274E0
7.099208329E-2,2.016760227E-1,-1.215795178E0,1.488671869E0,1.932608359E0
8.095908334E-2,7.488470614E-2,-7.066213936E-1,1.919935598E0,2.047211326E0
9.092608333E-2,7.662325877E-1,-3.809738740E-1,1.983302459E0,2.160032897E0
1.008920833E-1,1.448913141E0,-2.641853893E-1,1.571544456E0,2.153809460E0
1.108590833E-1,1.789966612E0,8.697280124E-2,7.213557923E-1,1.931812341E0
1.208260833E-1,1.944736271E0,1.734884964E-1,-5.458861130E-1,2.027335461E0
1.307920833E-1,1.443119135E0,1.883782849E-2,-1.773121369E0,2.286243008E0
1.407590833E-1,5.607421339E-1,-3.024764657E-2,-2.774076980E0,2.830344458E0
1.507250833E-1,-5.551925415E-1,1.823103368E-2,-3.026510051E0,3.077065845E0
1.606920833E-1,-1.523495547E0,3.315037984E-1,-1.781589891E0,2.367487273E0
1.706590833E-1,-1.549355443E0,4.222201332E-1,3.019022691E-1,1.633988099E0
1.806250833E-1,-8.451097727E-1,-1.643681556E-2,2.216999881E0,2.372671315E0
1.905920833E-1,2.652878818E-1,-9.885465042E-1,4.172585369E0,4.296285664E0
2.005590833E-1,1.050221912E0,-2.520488500E0,5.031123272E0,5.724336619E0
2.105250833E-1,1.217928827E0,-4.065870759E0,6.527707009E0,7.786245209E0
2.204920833E-1,1.453471923E0,-4.225949105E0,2.832967798E0,5.291212811E0
2.304590833E-1,9.752293244E-1,-4.124460445E0,3.750298870E-1,4.254749536E0
2.404250833E-1,1.774480847E-1,-3.598548421E0,-1.019722835E0,3.744445649E0
2.503920833E-1,-3.507083935E-1,-2.849270419E0,-1.962747157E0,3.477601861E0
2.603590833E-1,-4.766436777E-1,-2.556645343E0,-3.078209378E0,4.029763960E0
2.703250833E-1,-8.264983776E-1,-2.997887053E0,-2.838551888E0,4.210439784E0
2.802920833E-1,-8.525871190E-1,-3.968198285E0,-1.480719656E0,4.320420479E0
2.902590833E-1,5.066115350E-1,-4.082125142E0,-1.079438109E0,4.252715315E0
3.002250833E-1,2.311857507E0,-3.928148366E0,-1.645152131E0,4.845777569E0
3.101920833E-1,2.345814188E0,-3.443638136E0,-2.493752106E0,4.855953808E0
3.201590833E-1,1.298414581E0,-3.062738522E0,-3.544206737E0,4.860828024E0
3.301250833E-1,-4.726473981E-1,-3.100244025E0,-3.931912803E0,5.029398261E0
3.400920833E-1,-2.166100600E0,-3.568850705E0,-3.725662796E0,5.595466954E0
3.500580833E-1,-2.699412130E0,-4.709657097E0,-3.248332363E0,6.326085595E0
3.600250833E-1,-3.017680463E0,-6.282231540E0,-4.940727657E-1,6.986911793E0
3.699920833E-1,-2.865583566E0,-6.907424608E0,9.568015319E-1,7.539201090E0
3.799580833E-1,-2.352919579E0,-6.996595232E0,1.228391835E0,7.483149196E0
3.899250833E-1,-2.175276782E0,-6.568114777E0,2.333813217E0,7.301961718E0
3.998920833E-1,-1.509965967E0,-6.165080236E0,2.355005865E0,6.770100749E0
4.098580833E-1,-7.772177517E-1,-5.954332550E0,1.876931666E0,6.291344533E0
4.198250833E-1,-2.522833818E-1,-4.524201835E0,2.673079194E0,5.260931621E0
4.297920833E-1,2.596099430E-1,-3.475851324E0,3.676205292E0,5.065908122E0
4.397580833E-1,8.191750324E-1,-2.675173666E0,3.348464761E0,4.363464007E0
4.497250833E-1,1.143913018E0,-1.412205199E0,2.828244417E0,3.361819001E0
4.596920833E-1,2.025850309E0,4.498607987E-1,2.506182117E0,3.253827441E0
4.696580833E-1,3.076060526E0,2.122345154E0,2.509577011E0,4.501607944E0
4.796250833E-1,4.227139306E0,3.572434756E0,2.576404839E0,6.104822576E0
4.895920833E-1,5.308049160E0,4.780957460E0,2.247011885E0,7.488791793E0
4.995580833E-1,5.633094708E0,5.355019258E0,1.843344090E0,7.987859831E0
5.095250833E-1,5.214271515E0,5.338960465E0,1.447056066E0,7.601782524E0
5.194920833E-1,4.779522260E0,5.493860809E0,9.630475277E-1,7.345325055E0
5.294580833E-1,4.629406693E0,6.119208244E0,5.622857988E-1,7.693652006E0
5.394250833E-1,4.609872315E0,6.134897493E0,5.786813915E-1,7.695632668E0
5.493910833E-1,4.491290197E0,5.098090848E0,7.322310287E-1,6.833621310E0
5.593580833E-1,5.129337199E0,5.004559371E0,6.067796016E-1,7.191932709E0
5.693250833E-1,5.765282128E0,4.995258790E0,2.646087277E-1,7.632896316E0
5.792910833E-1,6.608033134E0,4.844160598E0,-4.288254404E-1,8.204625833E0
5.892580833E-1,7.076318509E0,4.339336849E0,-1.184740031E0,8.384970893E0
5.992250833E-1,6.378994188E0,3.053768601E0,-2.064593375E0,7.367470076E0
6.091910833E-1,4.869492783E0,1.571788870E0,-3.013824809E0,5.938486355E0
6.191580833E-1,2.621719590E0,6.175829172E-3,-3.806765724E0,4.622219924E0
6.291250833E-1,-8.253034991E-1,-1.355966386E0,-4.925985657E0,5.175432871E0
6.390910833E-1,-5.153493217E0,-2.126446391E0,-6.517757387E0,8.576795902E0
6.490580833E-1,-4.932342750E0,-2.417909626E0,-6.037618536E0,8.162544306E0
6.590250833E-1,-4.135202950E0,-2.905523558E0,-4.878911770E0,7.024653062E0
6.689910833E-1,-3.643472579E0,-3.256726626E0,-3.673215026E0,6.113400802E0
6.789580833E-1,-2.936089877E0,-2.912830238E0,-2.980869609E0,5.098116063E0
6.889250833E-1,-2.298789564E0,-2.043622921E0,-2.890207946E0,4.220678864E0
6.988910833E-1,-1.472307267E0,-1.320154529E0,-3.043513169E0,3.629527391E0
7.088580833E-1,6.505787551E-2,-8.579368097E-1,-3.000370073E0,3.121299196E0
7.188250833E-1,1.952294090E0,-5.516122913E-1,-2.562655696E0,3.268475569E0
7.287910833E-1,3.155168676E0,-4.731888503E-1,-2.683135235E0,4.168718238E0
7.387580833E-1,2.884123918E0,-4.876677257E-1,-3.227381204E0,4.355683646E0
7.487240833E-1,1.653997214E0,-2.948230451E-1,-3.631084375E0,4.000925037E0
7.586910833E-1,3.275469875E-1,-8.031560004E-2,-3.142786027E0,3.160829264E0
7.686580833E-1,-2.092250705E-1,-1.707679331E-2,-1.813064868E0,1.825176968E0
7.786240833E-1,5.557936352E-1,8.756030023E-2,-4.077345335E-1,6.948530931E-1
7.885910833E-1,1.706612799E0,2.669593084E-1,1.192319850E0,2.098909513E0
7.985580833E-1,2.551286370E0,3.677325618E-1,2.544931031E0,3.622287030E0
8.085240833E-1,3.466645761E0,5.098678493E-1,3.307095126E0,4.818140328E0
8.184910833E-1,3.763419437E0,3.160694879E-1,2.897276645E0,4.759982955E0
8.284577083E-1,3.403493493E0,-4.489942414E-1,1.554634894E0,3.768587724E0
8.384237083E-1,2.873480231E0,-1.069355171E0,5.678377301E-1,3.118148298E0
8.483907083E-1,2.212247264E0,-1.314428936E0,-2.975584457E-1,2.590425142E0
8.583577083E-1,2.171018547E0,-1.449352267E0,-1.082012638E0,2.825720240E0
8.683237083E-1,2.751542981E0,-1.650077240E0,-8.198756019E-1,3.311486022E0
8.782907083E-1,3.491656056E0,-1.846710917E0,5.798793398E-2,3.950362746E0
8.882577083E-1,3.803295693E0,-2.024201394E0,5.291170295E-1,4.340784980E0
8.982237083E-1,2.866306867E0,-2.288282703E0,2.811358827E-1,3.678449424E0
9.081907083E-1,1.289558389E0,-2.590806531E0,-3.805851804E-1,2.918918361E0
9.181567083E-1,6.044763833E-1,-2.955886796E0,-7.884924991E-1,3.118393636E0
9.281237083E-1,5.251092017E-1,-2.888494127E0,-3.539261162E-1,2.957093453E0
9.380907083E-1,1.286802596E-1,-2.691257603E0,4.188009739E-1,2.726686698E0
9.480567083E-1,2.135332990E-1,-2.560202204E0,1.392839951E0,2.922368034E0
9.580237083E-1,-1.406512642E-1,-2.511651603E0,2.267682231E0,3.386821409E0
9.679907083E-1,-7.194361514E-1,-2.302137095E0,2.503029591E0,3.476000678E0
9.779567083E-1,-1.349837919E0,-2.089119521E0,2.605266695E0,3.601929668E0
9.879237083E-1,-2.061542298E0,-1.728169144E0,2.919931974E0,3.970205029E0
9.978907083E-1,-2.654842313E0,-1.209735124E0,3.287088878E0,4.395065422E0
1.007856708E0,-3.206279773E0,-4.533018851E-1,3.479311707E0,4.753032982E0
1.017823708E0,-3.989190958E0,4.897107428E-1,3.424632931E0,5.280300354E0
1.027790708E0,-4.303625565E0,1.361213678E0,3.000391708E0,5.420004251E0
1.037756708E0,-3.683763403E0,1.768419038E0,3.355119770E0,5.287177638E0
1.047723708E0,-2.784206112E0,1.646691118E0,4.344694068E0,5.416619043E0
1.057690708E0,-2.311807805E0,1.545969905E0,4.788142810E0,5.537218602E0
1.067656708E0,-2.116644704E0,1.488718062E0,4.583052014E0,5.263157990E0
1.077623708E0,-2.378420455E0,1.395398839E0,3.494527916E0,4.451488194E0
1.087589708E0,-2.686772203E0,1.641041538E0,1.915729111E0,3.685346691E0
1.097556708E0,-2.289615283E0,2.250847659E0,7.468730414E-1,3.296433325E0
1.107523708E0,-1.466707388E0,2.758290668E0,-7.414561808E-2,3.124883285E0
1.117489708E0,-4.677076703E-1,2.739998823E0,-4.427687109E-1,2.814673719E0
1.127456708E0,6.843733227E-1,2.497345220E0,-4.855217975E-1,2.634545769E0
1.137423708E0,1.402663420E0,2.129484020E0,-7.870767421E-1,2.668643224E0
1.147389708E0,1.128596821E0,1.377951332E0,-1.507478853E0,2.333446625E0
1.157356708E0,8.606183428E-1,9.130041325E-1,-2.445611395E0,2.748682516E0
1.167323708E0,5.407013869E-1,5.138562351E-1,-3.277072597E0,3.360894379E0
1.177289708E0,4.412893653E-1,-4.135911047E-2,-3.508723494E0,3.536606769E0
1.187256708E0,1.115129514E0,-1.617643905E-1,-2.658252994E0,2.887211549E0
1.197223708E0,1.619938352E0,-3.917207640E-1,-1.067002251E0,1.978923754E0
1.207189708E0,1.603267356E0,-7.425501949E-1,6.294293761E-2,1.767995707E0
1.217156708E0,1.263155286E0,-7.529015207E-1,4.955918723E-1,1.551783903E0
1.227123708E0,5.833568251E-1,-8.397180551E-1,5.091977584E-1,1.142240760E0
1.237089708E0,-3.599955261E-2,-9.710213757E-1,5.423421156E-1,1.112795332E0
1.247056708E0,-2.909668064E-1,-1.062928496E0,1.054746487E0,1.525440534E0
1.257022708E0,-6.581625938E-1,-1.422070913E0,1.757198816E0,2.354402549E0
1.266989708E0,-9.876543653E-1,-1.651711537E0,2.197697638E0,2.921213285E0
1.276956708E0,-1.794208183E0,-1.743069604E0,2.185527828E0,3.321747512E0
1.286922708E0,-2.696217796E0,-1.701210557E0,1.716343151E0,3.620710092E0
1.296889708E0,-3.395545372E0,-1.711765366E0,1.411367585E0,4.056085244E0
1.306856708E0,-3.389166645E0,-1.607487876E0,1.378771112E0,3.996433109E0
1.316822708E0,-2.757672617E0,-1.106388511E0,1.334998856E0,3.257464619E0
1.326789708E0,-2.288324803E0,-4.059944022E-1,8.729442734E-1,2.482598147E0
1.336756708E0,-2.202054983E0,3.061800921E-1,-1.221454114E-1,2.226591992E0
1.346722708E0,-2.050050180E0,1.054896176E0,-1.104282344E0,2.556355057E0
1.356689708E0,-1.746927012E0,1.967890953E0,-2.452962515E0,3.597412110E0
1.366656708E0,-1.616696071E0,2.582087163E0,-3.471963218E0,4.619026834E0
1.376622708E0,-1.382103440E0,2.525774383E0,-3.028133238E0,4.178437155E0
1.386589708E0,-1.461387007E0,1.973717119E0,-1.796057072E0,3.042537141E0
1.396555708E0,-1.086772857E0,1.403919986E0,-8.163423488E-1,1.954093499E0
1.406522708E0,-3.743136030E-1,1.067578787E0,4.023422313E-1,1.200714125E0
1.416489708E0,-4.284395242E-1,6.655406106E-1,1.333804269E0,1.550979871E0
1.426455708E0,-7.063027203E-2,4.647951722E-3,1.303279172E0,1.305199923E0
1.436422708E0,7.863698137E-1,-1.011772960E-1,2.201558554E0,2.339973162E0
1.446389708E0,-5.354225206E-1,-7.722417712E-3,2.885987718E0,2.935244797E0
1.456355708E0,-1.326913911E0,-7.200612187E-2,1.870460845E0,2.294451826E0
1.466322708E0,-9.173094374E-1,-6.900123775E-2,8.383655941E-1,1.244618272E0
1.476289708E0,-6.788488734E-1,4.151640058E-2,2.384646571E-1,7.207113133E-1
1.486255708E0,-1.680869848E-1,6.321424842E-2,-3.533144975E-1,3.963337101E-1
1.496222708E0,5.133410954E-1,-4.022404897E-1,-6.072909406E-1,8.911334234E-1
1.506189708E0,8.764952874E-1,-1.042170296E0,-3.462411207E-1,1.405078584E0
1.516155708E0,1.129375085E0,-1.553355523E0,-2.692090246E-1,1.939297543E0
1.526122708E0,1.360041896E0,-1.815921233E0,-1.643751723E-1,2.274709450E0
1.536088708E0,1.457095735E0,-1.883809454E0,-2.002957875E-1,2.389975824E0
1.546055708E0,1.679898040E0,-1.639406072E0,-5.058113435E-1,2.401156973E0
1.556022708E0,1.439315522E0,-1.233494115E0,-1.087109656E0,2.185164595E0
1.565988708E0,1.085412210E0,-9.300052044E-1,-1.020490867E0,1.756254809E0
1.575955708E0,5.711560249E-1,-7.900032735E-1,-4.011254257E-1,1.054147041E0
1.585922708E0,-5.023226023E-2,-9.198339728E-1,5.735773569E-1,1.085176853E0
1.595888708E0,-4.125415295E-1,-1.041287951E0,1.539571589E0,1.903878092E0
1.605855708E0,-8.376469713E-1,-8.957437366E-1,2.169416994E0,2.492063279E0
1.615822708E0,-1.490537131E0,-5.725169644E-1,2.284522943E0,2.787206790E0
1.625788708E0,-1.892032101E0,-4.107698232E-2,1.736423366E0,2.568392278E0
1.635755708E0,-1.423699948E0,7.463859683E-1,5.563877124E-1,1.701052862E0
1.645722708E0,5.415316916E-1,2.059331465E0,-2.084959227E-1,2.139526398E0
1.655688708E0,1.794644970E0,2.538340634E0,-3.524239665E-1,3.128598152E0
1.665655708E0,1.935200924E0,2.212221244E0,3.311497495E-1,2.957800806E0
1.675621708E0,1.630802479E0,7.993842539E-1,8.995131442E-1,2.026735258E0
1.685588708E0,2.407336691E0,-5.367677895E0,8.742789003E-1,5.947402755E0
1.695555708E0,1.070426965E0,-5.458819031E0,6.755723861E-1,5.603652126E0
1.705521708E0,-1.985373543E0,-8.404018870E-1,6.031063807E-1,2.238687281E0
1.715488708E0,-4.296101367E-1,2.803789607E-1,1.099252569E0,1.213067781E0
1.725455708E0,4.221122521E-1,-8.856774625E-1,-3.670273876E-1,1.047526813E0
1.735421708E0,-3.529075313E-1,-1.264191851E0,-1.166237979E0,1.755800611E0
1.745388708E0,-5.741497993E-1,-8.378475308E-1,-7.853026968E-1,1.283875696E0
1.755355708E0,3.246648949E-1,-3.719163908E-1,-4.610605556E-1,6.755042055E-1
1.765321708E0,5.450043529E-1,6.812576339E-2,6.853857681E-2,5.535055563E-1
1.775288708E0,3.181949508E-1,7.630120875E-1,4.308256267E-1,9.322264709E-1
1.785255708E0,-2.123591781E-2,1.643513741E0,7.082545209E-1,1.789752175E0
1.795221708E0,1.232587797E0,1.119401928E0,7.327454375E-1,1.819134198E0
1.805188708E0,2.159495439E0,-3.368294424E-1,-1.658211887E-1,2.191887609E0
1.815154708E0,2.208686310E-1,-6.005753403E-1,4.261173025E-2,6.413185255E-1
1.825121708E0,-1.049862308E0,-1.055893857E-1,9.680919206E-1,1.431978335E0
1.835089667E0,-1.149658492E0,3.960564744E-1,8.517662430E-1,1.484614802E0
1.845055667E0,-1.055687889E0,5.482274844E-1,2.942044097E-1,1.225392398E0
1.855022667E0,-5.186351645E-1,4.133495051E-1,6.161078109E-1,9.052232221E-1
1.864989667E0,-1.872149813E-1,8.142654178E-1,7.000830370E-1,1.090043063E0
1.874955667E0,-3.318060994E-1,1.457807195E0,3.193754306E-1,1.528822348E0
1.884922667E0,1.458161098E-1,1.939970206E0,-8.253469147E-2,1.947192521E0
1.894889667E0,5.850548565E-1,1.867402313E0,-3.179937335E-1,1.982574235E0
1.904855667E0,5.408925909E-1,1.447412307E0,-1.811099400E-1,1.555753192E0
1.914822667E0,9.273438442E-1,1.206727974E0,2.041122468E-1,1.535519723E0
1.924789667E0,7.626616931E-1,8.703482558E-1,4.380453300E-1,1.237353084E0
1.934755667E0,1.702457768E-1,4.365533399E-1,4.664288843E-1,6.611492624E-1
1.944722667E0,-1.738201797E-2,5.759481105E-1,5.388981056E-1,7.889420313E-1
1.954688667E0,-7.383127177E-1,9.805442972E-1,5.903044868E-1,1.361995659E0
1.964655667E0,-2.165128062E0,1.384204345E0,6.365746737E-1,2.647456989E0
1.974622667E0,-8.753784692E-1,1.859258749E0,-5.645791499E-1,2.131168735E0
1.984588667E0,2.612442398E-1,1.633185950E0,-3.020179709E-1,1.681297045E0
1.994555667E0,1.586788148E-1,1.411809196E0,2.968632118E-1,1.451382768E0
2.004522667E0,1.410834904E0,2.247647770E-1,-2.633982810E-1,1.452705402E0
2.014488667E0,3.544775087E0,-1.752162024E0,-5.843319945E-1,3.997117218E0
2.024455667E0,2.642840903E0,-3.476725191E0,-1.597704899E-1,4.370097562E0
2.034422667E0,-4.629462826E-1,-3.944039344E0,5.651135123E-1,4.011124392E0
2.044388667E0,-1.926853439E0,-3.510960346E0,6.089265530E-1,4.050974978E0
2.054355667E0,-2.025660274E0,-2.625792761E0,8.477293253E-3,3.316347243E0
2.064321667E0,-9.887840474E-1,-1.139114208E0,-3.154876169E-1,1.541041046E0
2.074288667E0,-4.437375945E-1,-8.114034981E-3,-4.457355881E-1,6.290064426E-1
2.084255667E0,-2.153149456E-1,4.927708831E-1,-6.130408001E-1,8.154769719E-1
2.094221667E0,4.533586031E-1,8.477038899E-1,-4.600155120E-1,1.065715806E0
2.104188667E0,1.028919920E0,1.374686539E0,-1.737616345E-1,1.725871487E0
2.114155667E0,1.239364135E0,1.690703695E0,-1.478911404E-1,2.101517126E0
2.124121667E0,1.053419754E0,1.223635710E0,-2.400947877E-1,1.632367310E0
2.134088667E0,4.352053374E-1,6.153907961E-1,-3.134820950E-1,8.163213469E-1
2.144055667E0,-1.591138476E-1,4.909921601E-1,-2.209335351E-1,5.614286640E-1
2.154021667E0,-7.196998608E-1,3.201330104E-1,2.372064094E-1,8.226298771E-1
2.163988667E0,-1.047277254E0,1.127015734E-1,9.049840915E-1,1.388699931E0
2.173954667E0,-1.121807619E0,2.926478809E-1,1.335045633E0,1.768174753E0
2.183921667E0,-9.549111271E-1,6.633110672E-1,1.271587848E0,1.723012620E0
2.193888667E0,-5.543552202E-1,1.054757597E0,6.345550454E-1,1.349993853E0
2.203854667E0,-1.072028518E-1,1.402034552E0,-5.596011959E-2,1.407240161E0
2.213821667E0,4.319776744E-1,1.372352331E0,-4.074339136E-1,1.495312016E0
2.223788667E0,8.252970672E-1,4.705356762E-1,-5.401798884E-1,1.092846459E0
2.233754667E0,-1.458587945E-2,-9.917360142E-1,-4.908597938E-1,1.106660023E0
2.243721667E0,-1.102358025E0,-1.972711982E0,-2.999808741E-1,2.279643460E0
2.253688667E0,-1.049376404E0,-1.390896775E0,-1.321996987E-1,1.747358417E0
2.263654667E0,-6.132372665E-1,5.497902989E-2,-1.251293186E-1,6.282833638E-1
2.273621667E0,-5.516304177E-1,7.290402031E-1,-2.135859970E-1,9.388368940E-1
2.283588667E0,-2.289377886E-1,6.803589168E-1,-4.939495356E-1,8.713707079E-1
2.293554667E0,2.504081798E-1,4.494146562E-1,-7.912067036E-1,9.437615363E-1
2.303521667E0,2.139741790E-1,-1.971941319E-1,-7.380870882E-1,7.933744543E-1
2.313487667E0,2.075176835E-1,-7.478433868E-1,-4.364713327E-1,8.904159390E-1
2.323454667E0,3.844485819E-1,-7.764406568E-1,-3.742662041E-1,9.437881103E-1
2.333421667E0,4.771357208E-1,-4.650846094E-1,-5.031587541E-1,8.349436639E-1
2.343387667E0,3.120547897E-1,-5.059540156E-1,-3.215324684E-1,6.758334010E-1
2.353354667E0,4.653114814E-1,-1.464955562E-1,8.432269692E-2,4.950616526E-1
2.363321667E0,8.024215901E-1,1.058508293E0,-1.273219514E-1,1.334365428E0
2.373287667E0,1.544305202E0,2.163249351E0,-2.614312411E-1,2.670743830E0
2.383254667E0,1.884727759E0,2.485126002E0,-1.009931087E-2,3.118998551E0
2.393221667E0,1.957496942E0,2.185767564E0,3.708094398E-1,2.957511414E0
2.403187667E0,1.243183537E0,1.630286170E0,4.836069075E-1,2.106469544E0
2.413154667E0,3.958676094E-1,1.110541204E0,1.375873232E-1,1.186989132E0
2.423120667E0,-6.010937691E-2,4.415650615E-1,2.162768856E-1,4.953468805E-1
2.433087667E0,-3.957904261E-1,9.034854501E-2,4.289014542E-1,5.905669974E-1
2.443054667E0,-5.638259554E-1,-5.956833404E-1,4.999603271E-1,9.605720581E-1
2.453020667E0,6.464552987E-1,-3.237734869E-1,3.809680268E-2,7.240062779E-1
2.462987667E0,7.622594047E-1,2.710845190E-1,7.285629241E-1,1.088728686E0
2.472954667E0,1.678211119E0,1.481671290E0,1.616693147E0,2.761419762E0
2.482920667E0,1.773867474E0,2.973472297E0,1.160601117E0,3.651730859E0
2.492887667E0,6.389603376E-1,3.168827772E0,-5.545864776E-2,3.233081413E0
2.502854667E0,-1.468172116E0,1.652434545E0,-1.989405198E0,2.973853112E0
2.512820667E0,-2.165801661E0,-3.008027002E-1,-3.378366545E0,4.024243980E0
2.522787667E0,-1.555412573E0,-1.185410122E0,-3.341469737E0,3.871682507E0
2.532753667E0,-1.283527570E0,-3.184767866E-1,2.625277914E0,2.939550069E0
2.542720667E0,2.220550311E-1,1.271591941E0,1.149299940E1,1.156526220E1
2.552687667E0,3.526344078E0,-3.148167220E-1,2.805339704E0,4.517094528E0
2.562653667E0,1.074392547E0,-1.057085958E0,-7.004705612E-1,1.662049661E0
2.572620667E0,7.470812023E-2,-1.560069588E0,-2.966766125E0,3.352774920E0
2.582587667E0,5.830229491E-1,-1.926123707E0,-3.187266966E0,3.769421574E0
2.592553667E0,5.242853290E-1,-2.324256235E0,-1.484612586E0,2.807332663E0
2.602520667E0,7.483734369E-2,-3.076973276E0,-9.636604621E-1,3.225214203E0
2.612487667E0,-3.982591206E-1,-2.819402257E0,-2.728341521E-1,2.860433165E0
2.622453667E0,-7.890905231E-1,-2.015826427E0,-1.025732457E0,2.395484734E0
2.632420667E0,-7.672663754E-1,-1.158302431E0,-8.983600733E-1,1.654512929E0
2.642387667E0,-3.027425140E-1,-6.904541346E-1,-3.459573846E-1,8.294977117E-1
2.652353667E0,-1.899023616E-1,-6.803001523E-1,1.918567935E-1,7.319017922E-1
2.662320667E0,-3.740843922E-1,-7.441397604E-1,5.508214554E-1,9.985426337E-1
2.672286667E0,-5.805372977E-1,-3.398466057E-1,9.467484140E-1,1.161400805E0
2.682253667E0,-7.637141919E-1,3.494559199E-1,1.359311578E0,1.597844415E0
2.692220667E0,-7.163558382E-1,7.920442441E-1,1.531248808E0,1.866875112E0
2.702186667E0,-4.762896287E-1,6.651611263E-1,1.633924746E0,1.827293411E0
2.712153667E0,-3.804648739E-1,4.021346551E-1,1.560094439E0,1.655403413E0
2.722120667E0,-8.874786973E-2,9.970906019E-2,1.168450127E0,1.176050076E0
2.732086667E0,2.382214129E-1,-2.159060991E-1,2.899155501E-1,4.329155938E-1
2.742053667E0,5.702198857E-1,-3.375606367E-1,-2.022435681E-1,6.928205845E-1
2.752020667E0,1.127739619E0,-1.898006201E-1,1.741172183E-1,1.156779032E0
2.761986667E0,1.362835110E0,3.316420850E-1,3.906418797E-1,1.455990072E0
2.771953667E0,1.366190827E0,8.898450655E-1,-6.959706903E-2,1.631914633E0
2.781919667E0,1.331468892E0,1.423040089E0,-1.172121155E0,2.274141708E0
2.791886667E0,1.339736854E0,1.460138334E0,-1.714738090E0,2.620539164E0
2.801853667E0,9.794027746E-1,7.164265895E-1,-1.365257027E0,1.826587968E0
2.811819667E0,4.368027967E-1,-2.959737772E-1,-5.409984255E-1,7.556960079E-1
2.821786667E0,-8.986293375E-2,-8.341377649E-1,1.145341273E-1,8.467462571E-1
2.831752917E0,-1.243438475E0,-1.131961893E0,2.872526550E-1,1.705869590E0
2.841718917E0,-1.869160132E0,-1.144068553E0,1.765729757E-1,2.198597387E0
2.851685917E0,-1.154873623E0,-1.701849657E-1,-2.687180778E-1,1.197875375E0
2.861652917E0,-2.127222902E-1,8.113061419E-1,-1.417275027E0,1.646856682E0
2.871618917E0,4.648887277E-2,9.323724496E-1,-1.785684696E0,2.014981249E0
2.881585917E0,4.054576278E-2,8.048800519E-1,-7.900523901E-1,1.128564857E0
2.891551917E0,-1.303332675E-1,6.251790351E-1,3.352066939E-1,7.212483027E-1
2.901518917E0,2.058991742E-1,7.065591207E-1,1.174138445E0,1.385720516E0
2.911485917E0,2.270380282E-1,8.511859068E-1,1.541181181E0,1.775191017E0
2.921451917E0,2.353176856E-1,8.918948069E-1,1.682014879E0,1.918339076E0
2.931418917E0,1.244223171E-1,6.084896198E-1,1.576728598E0,1.694642618E0
2.941385917E0,1.685302037E-1,1.792680305E-1,1.060397236E0,1.088568673E0
2.951351917E0,-1.448747081E-1,-6.467283636E-2,7.473044197E-1,7.639601773E-1
2.961318917E0,-1.669163722E-1,8.873325169E-2,3.924079581E-1,4.355670681E-1
2.971285917E0,-7.758611977E-2,4.946656734E-1,3.747503901E-1,6.254211295E-1
2.981251917E0,3.413832539E-1,8.125729412E-1,1.242999642E-1,8.900942601E-1
2.991218917E0,1.130945063E-1,3.938038346E-1,-5.224638482E-1,6.639580561E-1
3.001184917E0,8.114648938E-2,-1.265843251E-1,-6.885609524E-1,7.047868680E-1
3.011151917E0,1.265939730E-1,-3.251812041E-2,-5.806928337E-1,5.952206559E-1
3.021118917E0,6.472750783E-2,1.684977517E-1,-2.338149512E-1,2.953820813E-1
3.031084917E0,9.707079649E-2,4.724746129E-1,1.110970974E-2,4.824711650E-1
3.041051917E0,-3.629530478E-1,2.298391369E-1,-6.440287773E-1,7.741666550E-1
3.051018917E0,-1.478657343E0,-1.461139085E0,-1.901045583E0,2.816971649E0
3.060984917E0,-8.907525533E-1,-2.119438796E0,-1.737962061E0,2.882008509E0
3.070951917E0,-5.903348923E-2,-1.416891450E0,-7.148244524E-1,1.588093300E0
3.080918917E0,4.260135144E-1,-4.354132059E-1,7.911551750E-1,9.984982149E-1
3.090884917E0,7.011548316E-1,2.787452486E-1,1.542394917E0,1.717061179E0
3.100851917E0,9.039403635E-1,5.733116010E-1,1.521161338E0,1.860033922E0
3.110817917E0,8.348297828E-1,5.191915271E-1,9.562156409E-1,1.371440469E0
3.120784917E0,3.003977805E-1,6.053885490E-2,-5.311131227E-1,6.131760992E-1
3.130751917E0,-4.203159875E-1,-4.481636444E-1,-1.972950549E0,2.066409942E0
3.140717917E0,-7.825317013E-1,-4.865649408E-1,-1.605867028E0,1.851461643E0
3.150684917E0,-8.429082960E-1,8.595114648E-2,-7.335577619E-1,1.120709144E0
3.160651917E0,-1.560021349E0,-7.000052691E-2,-2.309708655E-2,1.561761876E0
3.170617917E0,-9.433757401E-1,1.382153141E-1,4.435364503E-1,1.051563523E0
3.180584917E0,-4.275583488E-1,6.585479254E-1,5.117588389E-1,9.372238904E-1
3.190551917E0,-1.022327769E0,5.955389142E-3,3.381450659E-1,1.076815500E0
3.200517917E0,-8.777079999E-1,-6.104694870E-1,-2.316374481E-1,1.093937948E0
3.210484917E0,-4.170029551E-1,-6.566744775E-1,-4.395574200E-1,8.934895407E-1
3.220450917E0,1.828237224E-1,-5.877387285E-1,4.624212027E-2,6.172516992E-1
3.230417917E0,9.001829427E-1,-1.772492793E-1,7.614068806E-1,1.192261328E0
3.240384917E0,1.140609925E0,2.423214805E-1,1.188942425E0,1.665321228E0
3.250350917E0,1.547841014E0,2.842068404E-1,1.107156250E0,1.924157035E0
3.260317917E0,1.128736569E0,1.145811608E-1,9.956533563E-1,1.509470335E0
3.270284917E0,3.217266691E-1,7.679265261E-2,7.751665485E-1,8.427860577E-1
3.280250917E0,-5.791550159E-2,3.171120465E-2,5.638353109E-1,5.676883508E-1
3.290217917E0,-2.070849895E-1,-1.143829402E-1,1.172273183E-1,2.640263132E-1
3.300183917E0,-8.122367263E-2,-2.251520088E-1,-2.715096116E-1,3.619505232E-1
3.310150917E0,1.507944292E-1,5.251705974E-2,-4.065580372E-1,4.367910703E-1
3.320117917E0,1.735178787E-1,7.071695700E-1,-1.909303387E-1,7.527626779E-1
3.330083917E0,2.991002834E-1,8.485701549E-1,1.541922462E-1,9.128567993E-1
3.340050917E0,3.262769723E-1,5.276199961E-1,4.902656436E-1,7.906958481E-1
3.350017917E0,3.156286079E-1,3.386324313E-1,5.503235285E-1,7.191309530E-1
3.359983917E0,3.129956067E-1,1.920693398E-2,2.336407042E-1,3.910538770E-1
3.369950917E0,-9.415245116E-2,-1.010501191E-1,1.686512411E-1,2.179886505E-1
3.379917917E0,-3.983228552E-1,-3.277203575E-1,1.531852826E-1,5.380775599E-1
3.389883917E0,-5.060759300E-1,-9.004147848E-1,-2.838027978E-1,1.071169296E0
3.399850917E0,-4.955813473E-1,-9.662000540E-1,-8.355004585E-1,1.370111102E0
3.409816917E0,-2.420261961E-1,-6.006371015E-1,-9.362538314E-1,1.138381678E0
3.419783917E0,5.287818378E-1,9.910358101E-2,-7.456147937E-1,9.194417721E-1
3.429750917E0,3.827382714E-1,6.207333970E-1,-3.386648834E-1,8.040475345E-1
3.439716917E0,-4.646864140E-1,4.892245468E-1,2.685110863E-1,7.262040513E-1
3.449683917E0,-1.296065170E0,2.273599175E-1,8.980960715E-1,1.593127117E0
3.459650917E0,-1.578503813E0,1.533748055E-1,1.311972520E0,2.058268693E0
3.469616917E0,-1.602948682E0,-1.069189695E-1,1.231349941E0,2.024129152E0
3.479583917E0,-1.453266394E0,-3.878256413E-1,9.691947786E-1,1.789337994E0
3.489550917E0,-1.286176359E0,-1.496779034E-1,6.172075260E-1,1.434433070E0
3.499516917E0,-9.684673119E-1,4.570514122E-1,2.219731700E-1,1.093662204E0
3.509483917E0,-8.000177997E-1,8.445297289E-1,6.323646784E-2,1.165014074E0
3.519449917E0,-1.223767857E0,6.912291831E-1,1.144404622E-1,1.410142606E0
3.529416917E0,-1.301008991E0,6.387583163E-1,3.627191226E-1,1.494055469E0
3.539383917E0,-8.714093792E-1,9.779821935E-1,2.838741704E-1,1.340294006E0
3.549349917E0,-1.697920328E-1,1.108764527E0,-1.410500443E-1,1.130523430E0
3.559316917E0,2.654647601E-1,1.170519311E0,-3.319464326E-1,1.245301341E0
3.569283917E0,8.924423987E-1,1.418147139E0,-5.954874587E-1,1.778257590E0
3.579249917E0,1.198661082E0,1.598935738E0,-1.126708755E0,2.294091651E0
3.589216917E0,1.257341985E0,1.549306618E0,-1.208793138E0,2.332903923E0
3.599183917E0,1.138661048E0,1.442820635E0,-1.011032703E0,2.097729128E0
3.609149917E0,1.258525461E0,1.417163345E0,-5.956062303E-1,1.986702057E0
3.619116917E0,1.459507712E0,1.034890805E0,-3.995343983E-2,1.789625105E0
3.629082917E0,9.151991773E-1,1.707758269E-1,5.855284810E-1,1.099817039E0
3.639049917E0,2.753541559E-1,-5.534839851E-1,3.351465406E-1,7.031981489E-1
3.649016917E0,4.496643323E-1,-5.251781988E-1,-1.510278062E-1,7.076860536E-1
3.658982917E0,5.538915360E-1,-6.036121649E-1,3.861717564E-1,9.056887460E-1
3.668949917E0,9.542445445E-1,-5.728967410E-1,1.192524430E0,1.631228936E0
3.678916917E0,1.889187430E0,-9.834607422E-2,1.814067081E0,2.620980822E0
3.688882917E0,2.522520407E0,-2.288699609E-1,1.213347534E0,2.808505457E0
3.698849917E0,1.914825717E0,-6.169800693E-1,2.306574182E-1,2.024950561E0
3.708816917E0,6.202732211E-1,-1.203751084E0,-2.925309366E-1,1.385398819E0
3.718782917E0,-1.237190140E0,-1.762327994E0,-3.540746355E-1,2.182156788E0
3.728749917E0,-2.514179939E0,-2.082794588E0,-7.147683191E-1,3.342159154E0
3.738715917E0,-2.493748598E0,-1.978537563E0,-1.577852433E0,3.552887735E0
3.748682917E0,-1.811023021E0,-4.404795259E-1,-1.480876361E0,2.380508641E0
3.758649917E0,-8.290907407E-1,9.643035096E-1,-2.177182682E0,2.521387940E0
3.768615917E0,-6.787330985E-1,1.502718050E0,-1.840010154E0,2.470724089E0
3.778582917E0,7.848776042E-2,2.003135045E0,-1.212590904E0,2.342880073E0
3.788549917E0,9.245535529E-1,2.238818182E0,-4.319910499E-1,2.460431342E0
3.798515917E0,1.073832968E0,2.321150486E0,3.070712078E-1,2.575878404E0
3.808482917E0,5.108782482E-1,2.332479467E0,1.346804530E0,2.741411952E0
3.818448917E0,-8.359524482E-1,1.992708875E0,2.444650844E0,3.262824375E0
3.828415917E0,-8.901309943E-1,7.527231807E-1,2.910265650E0,3.135055267E0
3.838383542E0,-1.116654468E0,9.451644033E-1,2.927028447E0,3.272269622E0
3.848349542E0,-1.786288714E0,1.496628175E0,2.516369137E0,3.429699243E0
3.858316542E0,-1.635225897E0,1.313981624E0,1.305096049E0,2.470584372E0
3.868283542E0,4.335219240E-1,6.804954493E-1,5.281402521E-1,9.643378251E-1
3.878249542E0,3.159812534E0,4.700728691E-1,1.280013978E-1,3.197149999E0
3.888216542E0,5.026877024E0,4.421734643E-1,2.033638215E-1,5.050382840E0
3.898183542E0,4.558456578E0,-1.499126691E-1,3.508421485E-1,4.574395085E0
3.908149542E0,3.260005159E0,-5.591399968E-1,1.680514629E-1,3.311874465E0
3.918116542E0,1.887222766E0,-6.902550370E-1,-3.767114000E-1,2.044498291E0
3.928082542E0,4.685531777E-1,-1.424653628E0,-1.535811975E0,2.146601608E0
3.938049542E0,-3.875400048E-1,-2.330546377E0,-2.757695421E0,3.631324511E0
3.948016542E0,-5.042609543E-1,-2.524603186E0,-3.000634367E0,3.953695355E0
3.957982542E0,-2.587042093E-2,-2.207274792E0,-2.546909144E0,3.370382393E0
3.967949542E0,7.281683832E-1,-1.797494318E0,-1.674306933E0,2.562131675E0
3.977916542E0,7.815230566E-1,-1.597849910E0,-1.232147502E0,2.163813784E0
3.987882542E0,9.569956595E-1,-1.269001333E0,-8.851010732E-1,1.819233076E0
3.997849542E0,1.043906334E0,-1.049655901E0,-1.073571159E0,1.828680666E0
4.007816542E0,1.256049750E0,-9.468735445E-1,-1.015157767E0,1.872104638E0
4.017782542E0,1.941866750E0,-6.535941643E-1,-4.370745461E-1,2.095009777E0
4.027749542E0,3.097142077E0,-5.783247113E-2,-8.577485293E-2,3.098869304E0
4.037715542E0,3.599844748E0,5.653093940E-1,2.157154799E-2,3.644025556E0
4.047682542E0,3.492361815E0,9.645087469E-1,3.417440271E-1,3.639183583E0
4.057649542E0,2.659920035E0,8.383112150E-1,1.373335540E-1,2.792275200E0
4.067615542E0,1.121384280E0,2.716850281E-1,-5.465310609E-1,1.276719100E0
4.077582542E0,-9.139899731E-1,-5.188000560E-2,-1.219743218E0,1.525071383E0
4.087549542E0,-2.159015967E0,-5.042200238E-1,-1.294917508E0,2.567566773E0
4.097515542E0,-1.986979188E0,-1.154422803E0,-1.075824530E0,2.537356247E0
4.107482542E0,-1.039609215E0,-1.099128608E0,-8.259170182E-1,1.723661782E0
4.117449542E0,-5.843637156E-1,-3.887112021E-1,-5.186926134E-1,8.727080715E-1
4.127415542E0,-1.458723015E0,-1.011112225E-1,1.542086184E-1,1.470332144E0
4.137382542E0,-2.355300565E0,-1.503979880E-1,7.306109114E-1,2.470597622E0
4.147348542E0,-2.415367257E0,3.569017643E-1,7.603919502E-1,2.557259035E0
4.157315542E0,-1.867128809E0,7.171832192E-1,6.629280746E-1,2.107129657E0
4.167282542E0,-1.658548687E0,-3.207408285E-1,1.779319417E-1,1.698622442E0
4.177248542E0,-1.660957155E0,-5.127826864E-1,-5.857075520E-1,1.834333146E0
4.187215542E0,-1.117728601E0,-1.311150402E-1,-5.123587632E-1,1.236535435E0
4.197182542E0,-6.623269808E-1,1.918301886E-1,-1.957260422E-1,7.167876495E-1
4.207148542E0,-4.680555797E-1,2.234653795E-1,-2.527678236E-1,5.769786600E-1
4.217115542E0,-1.515919894E-1,1.070500640E0,-2.889154570E-1,1.119117462E0
4.227081542E0,5.051234186E-2,2.151596435E0,3.817778662E-2,2.152527877E0
4.237048542E0,3.886310953E-1,2.016145685E0,4.833779159E-1,2.109391324E0
4.247015542E0,6.052815449E-1,1.498549570E0,3.549543491E-1,1.654693069E0
4.256981542E0,3.338994026E-2,1.236288500E0,5.593095660E-2,1.238003399E0
4.266948542E0,-2.802044213E-1,8.587712073E-1,-2.670550565E-1,9.419771268E-1
4.276915542E0,-5.828130341E-1,7.675066960E-1,-2.221308987E-1,9.889791187E-1
4.286881542E0,-1.010159129E0,7.605619580E-1,1.353827767E-1,1.271693538E0
4.296848542E0,-1.134656875E0,5.799449748E-1,3.205091326E-1,1.313966705E0
4.306815542E0,-1.025444920E0,4.844728070E-1,9.202801153E-2,1.137857785E0
4.316781542E0,-5.287853462E-1,7.148747385E-1,-2.060557334E-1,9.127534165E-1
4.326748542E0,3.039306682E-1,9.607063025E-1,-5.869819526E-1,1.166138184E0
4.336714542E0,1.119186312E0,1.049287527E0,-1.195896957E0,1.945186841E0
4.346681542E0,1.565698995E0,1.048159014E0,-1.646955851E0,2.502501595E0
4.356648542E0,1.651733172E0,1.102956195E0,-2.205108837E0,2.967699416E0
4.366614542E0,1.163438625E0,1.261271898E0,-2.116100328E0,2.724385588E0
4.376581542E0,5.745509183E-1,1.644537588E0,-9.366186976E-1,1.977844084E0
4.386548542E0,2.885922521E-1,2.142675923E0,-3.583992362E-1,2.191528145E0
4.396514542E0,6.022766608E-1,2.305733133E0,-4.023749757E-1,2.416826034E0
4.406481542E0,7.716582191E-1,2.140938715E0,-1.584640758E-1,2.281268475E0
4.416447542E0,1.255562677E0,2.033790243E0,-1.173130385E0,2.662512964E0
4.426414542E0,1.595650188E0,1.599254996E0,-1.701440498E0,2.828182426E0
4.436381542E0,1.722405544E0,1.180257556E0,-1.697896940E0,2.691197275E0
4.446347542E0,1.698988615E0,1.119768110E0,-1.714420002E0,2.660766595E0
4.456314542E0,1.861248849E0,1.463702504E0,-1.166454180E0,2.639562019E0
4.466281542E0,2.279511294E0,1.922320678E0,-1.116740860E0,3.184116624E0
4.476247542E0,2.303042829E0,1.940852843E0,-1.139804618E0,3.220259399E0
4.486214542E0,1.961074854E0,2.110401632E0,-1.222259714E0,3.129461365E0
4.496181542E0,1.336028550E0,2.211963674E0,-1.571727913E0,3.024580007E0
4.506147542E0,1.111780229E0,2.098085057E0,-1.454463319E0,2.784507089E0
4.516114542E0,1.524224110E0,1.964824088E0,-1.110610785E0,2.723462713E0
4.526080542E0,1.724318168E0,1.702131493E0,-1.185119369E0,2.697226851E0
4.536047542E0,2.095190100E0,8.822635657E-1,-5.532049267E-1,2.339710718E0
4.546014542E0,2.523177050E0,1.879195708E-1,-1.895214155E-2,2.530236229E0
4.555980542E0,2.385651707E0,1.148972028E-1,-2.756107025E-1,2.404266353E0
4.565947542E0,1.757259042E0,6.280260444E-1,-1.695223300E-1,1.873796647E0
4.575914542E0,1.144054520E0,1.402048877E0,7.613440230E-2,1.811186972E0
4.585880542E0,5.920335084E-1,2.056352309E0,7.674119711E-2,2.141256105E0
4.595847542E0,2.115107471E-1,2.279469779E0,-2.900800762E-1,2.307567057E0
4.605814542E0,2.273222029E-1,2.113115324E0,-4.328633814E-1,2.168940401E0
4.615780542E0,4.510337502E-1,1.460330415E0,-4.309210825E-1,1.587982791E0
4.625747542E0,8.298321676E-1,-2.406766587E-1,-5.725768983E-1,1.036528333E0
4.635713542E0,1.319001458E0,-2.257111781E0,-9.290151246E-1,2.774416612E0
4.645680542E0,1.844695382E0,-3.430216438E0,-9.931403692E-1,4.019404639E0
4.655647542E0,1.838121357E0,-3.151393129E0,-2.313474262E-1,3.655610812E0
4.665613542E0,1.278040543E0,-1.377254344E0,9.052988179E-1,2.085613365E0
4.675580542E0,3.262284404E-1,6.559640408E-1,1.606833426E0,1.765963612E0
4.685547542E0,-5.849244636E-1,1.623338508E0,1.932053222E0,2.590404253E0
4.695513542E0,-1.231345848E0,1.858462066E0,2.211192281E0,3.139978527E0
4.705480542E0,-1.761777771E0,1.685617787E0,2.352573423E0,3.388180920E0
4.715446542E0,-1.706628002E0,1.533172104E0,2.092918311E0,3.105398991E0
4.725413542E0,-1.790446669E0,1.255339898E0,2.064800512E0,3.007487105E0
4.735380542E0,-2.146300612E0,9.911375517E-1,2.256345795E0,3.268035543E0
4.745346542E0,-2.608869749E0,4.345978117E-1,1.793991251E0,3.195853757E0
4.755313542E0,-2.944253175E0,-9.547275245E-2,7.784303181E-1,3.046915747E0
4.765280542E0,-2.750843069E0,-4.582556462E-1,2.483582190E-1,2.799788855E0
4.775246542E0,-2.304789392E0,-8.661784601E-1,4.261276082E-1,2.498780504E0
4.785213542E0,-2.086146212E0,-5.469017744E-1,9.332391532E-1,2.349902739E0
4.795180542E0,-1.974016204E0,-2.685906816E-1,1.467557573E0,2.474390058E0
4.805146542E0,-1.919102663E0,-3.759326971E-1,1.475281745E0,2.449640106E0
4.815113542E0,-1.846613853E0,-5.879410422E-1,1.102225951E0,2.229475149E0
4.825079542E0,-1.752663423E0,-1.240451133E0,6.070520818E-1,2.231380810E0
4.835046292E0,-1.511694404E0,-2.254738396E0,5.629851258E-1,2.772366761E0
4.845013292E0,-1.481015817E0,-2.123169027E0,6.809129405E-1,2.676732523E0
4.854979292E0,-1.504313171E0,-1.952858931E0,1.091806140E0,2.696044652E0
4.864946292E0,-1.419968255E0,-1.563910916E0,1.166694939E0,2.413152353E0
4.874913292E0,-1.317761264E0,-1.342185084E0,1.103161579E0,2.180578138E0
4.884879292E0,-1.069489657E0,-1.656457137E0,8.133278167E-1,2.132876113E0
4.894846292E0,-5.035525641E-1,-2.306752303E0,3.644603138E-1,2.389038026E0
4.904812292E0,6.142646223E-2,-2.131603636E0,1.758538413E-1,2.139727049E0
4.914779292E0,5.688399428E-1,-5.770622975E-1,5.879945442E-2,8.124267053E-1
4.924746292E0,1.096780951E0,6.321085703E-1,2.660937743E-1,1.293559274E0
4.934712292E0,1.292332308E0,8.990573537E-1,2.934754081E-1,1.601422722E0
4.944679292E0,1.478296131E0,6.687051237E-2,1.976559158E-1,1.492949757E0
4.954646292E0,1.413086959E0,-4.169731343E-1,2.556333248E-1,1.495335997E0
4.964612292E0,1.261305520E0,3.765261894E-1,5.801889499E-1,1.438500192E0
4.974579292E0,1.097102402E0,9.505222070E-1,7.137766314E-1,1.617591798E0
4.984546292E0,3.785545886E-1,1.119331323E0,6.871180058E-1,1.366871370E0
4.994512292E0,-4.173087645E-1,9.368134099E-1,6.364485200E-1,1.206993243E0
5.004479292E0,-7.360124230E-1,1.258788586E-1,4.409303463E-1,8.671674257E-1
5.014445292E0,-6.021635903E-1,-1.358273113E-1,4.535405246E-1,7.659954670E-1
5.024412292E0,-3.220527975E-1,3.772483206E-1,3.936661327E-1,6.332513907E-1
5.034379292E0,1.075244486E-2,6.174174410E-1,2.292225480E-2,6.179363570E-1
5.044345292E0,6.575259782E-1,8.506453317E-1,-2.784374658E-1,1.110614836E0
5.054312292E0,9.294365627E-1,8.907543075E-1,-5.831872559E-1,1.413295063E0
5.064279292E0,6.636771760E-1,9.434920996E-1,-7.881122839E-1,1.397056086E0
5.074245292E0,1.125462567E-1,6.855059284E-1,-5.531875312E-1,8.880323657E-1
5.084212292E0,-4.553245832E-1,7.003520089E-1,4.750687301E-1,9.609910046E-1
5.094179292E0,-4.664763198E-1,-7.944027185E-2,6.456694329E-1,8.004998003E-1
5.104145292E0,-2.934081651E-1,-5.717869395E-1,-3.403231537E-1,7.272197086E-1
5.114112292E0,4.158966619E-1,-7.652268666E-1,-8.328329587E-1,1.205053081E0
5.124078292E0,9.439563686E-1,-7.180462682E-1,-7.148022330E-1,1.384769404E0
5.134045292E0,1.687543567E0,-3.647311860E-1,-2.994394219E-1,1.752283110E0
5.144012292E0,2.186621842E0,-5.623150349E-1,-1.841568875E-1,2.265265335E0
5.153978292E0,2.569156045E0,-1.300663421E0,-6.232108623E-1,2.946299356E0
5.163945292E0,3.060285323E0,-2.015413029E0,-1.236044671E0,3.867174984E0
5.173912292E0,3.751776169E0,-2.488843954E0,-1.746239964E0,4.829029163E0
5.183878292E0,4.601183937E0,-2.248868961E0,-1.610968723E0,5.368754553E0
5.193845292E0,5.260425927E0,-1.362745063E0,-1.028067981E0,5.530468227E0
5.203812292E0,5.021269544E0,-7.626897597E-1,-7.135421580E-1,5.128741163E0
5.213778292E0,3.779946299E0,-5.935888678E-1,-6.893978351E-1,3.887880032E0
5.223745292E0,2.074622811E0,-2.203593385E-1,-6.787880623E-1,2.193939671E0
5.233711292E0,6.724277535E-1,8.180605531E-2,-3.698480844E-1,7.717764702E-1
5.243678292E0,-2.560057193E-1,6.851065636E-2,6.562911194E-2,2.730198137E-1
5.253645292E0,-7.920445365E-1,2.962374866E-1,3.730605082E-1,9.242647559E-1
5.263611292E0,-1.071072790E0,4.642046034E-1,7.582756966E-1,1.392000312E0
5.273578292E0,-2.085090497E0,-5.631862700E-1,8.698599402E-1,2.328398048E0
5.283545292E0,-1.909986269E0,-1.161836488E0,-4.483633268E-1,2.280118691E0
5.293511292E0,-9.774591601E-1,-2.286338503E0,-1.354307531E0,2.831416439E0
5.303478292E0,1.694242430E-1,-3.006202086E0,-1.801383301E0,3.508694537E0
5.313444292E0,1.184669280E0,-3.743774546E0,-2.451461388E0,4.629141615E0
5.323411292E0,1.769296997E0,-4.528913521E0,-2.928281506E0,5.675940638E0
5.333378292E0,2.100069309E0,-4.660854773E0,-2.521940364E0,5.700354508E0
5.343344292E0,2.563496233E0,-4.142683293E0,-1.813564513E0,5.198302996E0
5.353311292E0,2.657365386E0,-3.621103470E0,-1.363613375E0,4.693977266E0
5.363278292E0,2.145828157E0,-3.662647938E0,-7.205384246E-1,4.305664178E0
5.373244292E0,1.205737967E0,-4.241043985E0,-4.941962881E-1,4.436720422E0
5.383211292E0,8.703013319E-1,-3.919471682E0,-4.334588472E-1,4.038263148E0
5.393178292E0,2.196056324E-1,-3.717013010E0,-1.468134694E0,4.002478211E0
5.403144292E0,1.274666700E-1,-2.421606821E0,-2.821241207E0,3.720192104E0
5.413111292E0,3.066969860E-1,-1.025571805E0,-2.642567838E0,2.851144568E0
5.423077292E0,-1.042464995E-1,-5.466000581E-1,-1.330664315E0,1.442326757E0
5.433044292E0,-1.171693431E0,-7.458690745E-1,-6.370623314E-1,1.528081996E0
5.443011292E0,-1.678475997E0,-4.685695499E-1,-6.594700313E-1,1.863260534E0
5.452977292E0,-1.319099107E0,5.951085591E-1,-7.732007146E-1,1.640736419E0
5.462944292E0,-8.111801344E-1,1.737570298E0,-5.113705838E-1,1.984606667E0
5.472911292E0,-7.047546700E-1,2.422422507E0,-2.775930548E-1,2.538083500E0
5.482877292E0,-1.214685962E0,2.565574041E0,-5.035575342E-1,2.882915596E0
5.492844292E0,-1.950082965E0,2.419330500E0,-7.376157296E-1,3.193753372E0
5.502811292E0,-2.532049322E0,2.096526189E0,-5.406919583E-1,3.331522719E0
5.512777292E0,-2.657160734E0,1.795234954E0,2.573249973E-2,3.206872911E0
5.522744292E0,-2.373827468E0,1.517449526E0,9.855658130E-1,2.984803156E0
5.532710292E0,-2.154259403E0,1.258235439E0,1.989878823E0,3.191176543E0
5.542677292E0,-2.109324574E0,8.786932558E-1,2.506053479E0,3.391409152E0
5.552644292E0,-1.774969235E0,6.462483072E-1,2.610622745E0,3.222344453E0
5.562610292E0,-1.179638190E0,5.170377052E-1,2.344776746E0,2.675229380E0
5.572577292E0,-3.004221927E-1,1.678261989E-1,1.618473040E0,1.654652262E0
5.582544292E0,2.440759376E-1,-5.212447768E-1,6.382982866E-1,8.594730266E-1
5.592510292E0,6.865284602E-1,-5.882702404E-1,-2.931456251E-1,9.504301973E-1
5.602477292E0,8.588358191E-1,-5.436454600E-1,-8.221265607E-1,1.307303114E0
5.612443292E0,3.307623714E-1,-1.623344940E0,-4.088969600E-1,1.706414154E0
5.622410292E0,1.205171080E-1,-1.926611364E0,-2.191665065E-1,1.942778855E0
5.632377292E0,3.078798777E-1,-1.927111886E0,-6.292105441E-1,2.050477054E0
5.642343292E0,8.450252804E-1,-1.168756083E0,-2.848245987E-1,1.470096445E0
5.652310292E0,1.676143397E0,-2.976846725E-1,4.595958281E-1,1.763321065E0
5.662277292E0,1.565461598E0,-2.006588995E-2,1.210449654E0,1.978954527E0
5.672243292E0,1.639827656E0,1.235025501E-1,1.450796237E0,2.192965422E0
5.682210292E0,9.531408095E-1,1.438789272E-1,1.126446653E0,1.482585786E0
5.692177292E0,-7.790256377E-1,2.608571541E-1,8.951097523E-1,1.214968669E0
5.702143292E0,-1.844225850E0,6.902795953E-1,6.757635900E-1,2.081900895E0
5.712110292E0,-1.873764522E0,1.093219997E0,5.555954146E-1,2.239377081E0
5.722076292E0,-1.230930404E0,1.404090725E0,7.053778370E-1,1.996050680E0
5.732043292E0,-4.892879160E-1,1.878037959E0,7.700174904E-1,2.087907128E0
5.742010292E0,8.110884793E-2,2.515494393E0,3.930219157E-1,2.547303852E0
5.751976292E0,4.083148697E-1,3.208368398E0,2.145917912E-1,3.241357501E0
5.761943292E0,5.767036073E-1,3.874069807E0,2.276274276E-1,3.923368217E0
5.771910292E0,6.522649460E-1,4.260195955E0,3.936985847E-1,4.327784388E0
5.781876292E0,6.501891844E-1,4.528146951E0,7.309440565E-1,4.632616971E0
5.791843292E0,5.269280512E-1,4.703688551E0,9.538750005E-1,4.828272639E0
5.801809292E0,1.358288462E-1,4.632850703E0,9.945584652E-1,4.740348263E0
5.811776292E0,1.856767251E-1,4.714914036E0,5.407332543E-1,4.749450775E0
5.821743292E0,3.471464159E-1,5.086612179E0,-3.592818734E-1,5.111087708E0
5.831708542E0,3.542868163E-1,4.874462332E0,-1.194432522E0,5.031160027E0
5.841675542E0,4.094334421E-1,4.087959786E0,-1.889068439E0,4.521905630E0
5.851642542E0,9.075093578E-1,2.936228456E0,-3.172194014E0,4.416766424E0
5.861608542E0,1.884632157E0,7.876029915E-1,-3.861550333E0,4.368492625E0
5.871575542E0,3.580307154E0,-1.965384836E0,-3.420715882E0,5.327535454E0
5.881542542E0,4.829191141E0,-4.340698081E0,-2.728472791E0,7.043245749E0
5.891508542E0,5.641043413E0,-6.895258307E0,-2.529363989E0,9.260866055E0
5.901475542E0,5.376821771E0,-9.236269446E0,-3.272810854E0,1.117721685E1
5.911441542E0,4.393071299E0,-1.046222884E1,-3.873719559E0,1.199012139E1
5.921408542E0,4.397446479E0,-9.651431113E0,-2.647226315E0,1.093139814E1
5.931375542E0,5.294361413E0,-6.858216780E0,5.673129424E-1,8.682582804E0
5.941341542E0,5.686857517E0,-3.470140057E0,3.025682670E0,7.316896614E0
5.951308542E0,3.979486919E0,-3.300466722E-1,3.736492132E0,5.468694579E0
5.961275542E0,2.257734509E0,1.747428119E0,2.649911356E0,3.895240729E0
5.971241542E0,1.803104721E0,2.104732756E0,8.641813436E-1,2.903083878E0
5.981208542E0,1.278333781E0,1.152283307E0,-7.965065467E-1,1.896395727E0
5.991175542E0,6.778753851E-1,-1.053112775E-1,-2.726169573E0,2.811157421E0
6.001141542E0,-5.561886147E-1,-2.082996317E0,-3.963616991E0,4.512037132E0
6.011108542E0,-3.350144666E0,-4.536679793E0,-1.255980753E0,5.777752200E0
6.021074542E0,-6.115078940E0,-6.547885750E0,2.693447092E0,9.355407820E0
6.031041542E0,-8.017687485E0,-8.278018389E0,3.735135870E0,1.211446000E1
6.041008542E0,-8.799223405E0,-7.456888633E0,2.960957793E0,1.190792978E1
6.050974542E0,-7.326248971E0,-2.345120562E0,1.920704361E0,7.928595064E0
6.060941542E0,-6.510123847E0,2.565872249E0,2.432206653E0,7.408174006E0
6.070908542E0,-6.259714497E0,4.789719805E0,3.063026790E0,8.456215141E0
6.080874542E0,-5.565450609E0,6.121476379E0,3.250109332E0,8.888752680E0
6.090841542E0,-4.489540710E0,6.954557844E0,3.487416240E0,8.982422982E0
6.100807542E0,-3.741885896E0,7.148453270E0,3.430239826E0,8.767476232E0
6.110774542E0,-3.569104182E0,6.638288382E0,2.977176508E0,8.103638520E0
6.120741542E0,-3.527652685E0,5.773730185E0,2.346108888E0,7.161321151E0
6.130707542E0,-3.184320554E0,4.761523946E0,1.845519400E0,6.018135055E0
6.140674542E0,-2.576061607E0,3.427847731E0,1.578414789E0,4.569204166E0
6.150641542E0,-2.031967666E0,1.640610598E0,1.657162896E0,3.093005754E0
6.160607542E0,-1.406659407E0,-3.557948864E-1,1.877635525E0,2.372929803E0
6.170574542E0,-4.234723145E-1,-1.785436190E0,1.720451843E0,2.515365924E0
6.180541542E0,9.636831200E-1,-2.592613905E0,9.874871349E-1,2.936913832E0
6.190507542E0,2.889093174E0,-2.588283457E0,6.416301763E-1,3.931635780E0
6.200474542E0,4.745905741E0,-2.061216023E0,6.275220144E-1,5.212102903E0
6.210440542E0,5.735640253E0,-1.445459776E0,6.023895852E-1,5.945569467E0
6.220407542E0,6.007311248E0,-7.523910588E-1,5.845017830E-1,6.082394517E0
6.230374542E0,5.545839633E0,-2.164662623E-1,1.723783294E-1,5.552738888E0
6.240340542E0,4.791946424E0,1.558592874E-1,-7.139870580E-1,4.847351872E0
6.250307542E0,4.055073291E0,6.017562586E-1,-1.491013094E0,4.362207015E0
6.260274542E0,3.142925776E0,1.153345746E0,-1.570283797E0,3.697834507E0
6.270240542E0,1.981998238E0,1.529450936E0,-8.406448388E-1,2.640875030E0
6.280207542E0,8.951853275E-1,1.602296718E0,7.235112587E-2,1.836830484E0
6.290174542E0,3.056836635E-2,1.473615289E0,6.324102867E-1,1.603876309E0
6.300140542E0,-5.931655294E-1,1.381327515E0,7.157564986E-1,1.664998022E0
6.310107542E0,-8.344479597E-1,1.378784561E0,2.987237227E-1,1.639080878E0
6.320073542E0,-7.150679889E-1,1.510284348E0,-2.796875640E-1,1.694256820E0
6.330040542E0,-7.168446654E-1,1.567161968E0,-7.575079572E-1,1.882466790E0
6.340007542E0,-1.003091307E0,1.480002787E0,-7.319357443E-1,1.931924003E0
6.349973542E0,-1.217375681E0,1.390894144E0,-4.614430000E-1,1.905129841E0
6.359940542E0,-1.243474728E0,1.268657516E0,-3.121565312E-1,1.803652681E0
6.369907542E0,-1.305133909E0,1.018333536E0,-3.364932275E-1,1.689261793E0
6.379873542E0,-1.523714232E0,5.463737708E-1,-5.489482999E-1,1.709261126E0
6.389840542E0,-1.476917504E0,1.055252856E-1,-5.625529435E-1,1.583946563E0
6.399806542E0,-9.497591454E-1,-1.026940638E-1,-2.993628234E-1,1.001102695E0
6.409773542E0,7.715313345E-2,-1.741230655E-1,-2.103548256E-1,2.837615206E-1
6.419740542E0,1.417852440E0,-4.016475821E-1,-5.671892738E-1,1.579028180E0
6.429706542E0,2.819002600E0,-9.214726549E-1,-1.082804936E0,3.157270030E0
6.439673542E0,4.127680507E0,-1.626548629E0,-1.468711814E0,4.673384341E0
6.449640542E0,5.239878227E0,-2.443230409E0,-1.724035163E0,6.033075161E0
6.459606542E0,6.137348646E0,-3.259074867E0,-1.798675455E0,7.178011618E0
6.469573542E0,6.799025416E0,-3.895475879E0,-1.751845105E0,8.029348679E0
6.479539542E0,7.215509723E0,-4.333942208E0,-1.697466584E0,8.586502690E0
6.489506542E0,7.329297709E0,-4.712653502E0,-1.856627941E0,8.909252228E0
6.499473542E0,7.254322371E0,-5.123357252E0,-2.176114980E0,9.143820810E0
6.509439542E0,7.076611454E0,-5.352226043E0,-2.501762792E0,9.218653392E0
6.519406542E0,6.588992845E0,-5.411270642E0,-2.699883415E0,8.943491887E0
6.529373542E0,5.378946649E0,-5.166240147E0,-2.448735709E0,7.849803238E0
6.539339542E0,3.743127552E0,-4.646971144E0,-1.869904629E0,6.253150246E0
6.549306542E0,2.276177797E0,-4.300747565E0,-1.606458181E0,5.124268032E0
6.559273542E0,9.548763362E-1,-4.219699894E0,-1.691583701E0,4.645332219E0
6.569239542E0,-3.797813344E-1,-4.292961413E0,-2.078292962E0,4.784668556E0
6.579206542E0,-1.766569564E0,-4.205887016E0,-2.593230786E0,5.247389782E0
6.589172542E0,-3.031465566E0,-3.905488651E0,-3.336359271E0,5.964387501E0
6.599139542E0,-3.900255978E0,-3.259346763E0,-3.931308201E0,6.425770163E0
6.609106542E0,-4.220940380E0,-2.674045154E0,-3.390044312E0,6.038150016E0
6.619072542E0,-4.360173110E0,-2.349262145E0,-1.440352233E0,5.157979908E0
6.629039542E0,-4.295721591E0,-1.964921152E0,6.935815179E-1,4.774431321E0
6.639006542E0,-4.193328074E0,-1.652610254E0,2.286654253E0,5.054098205E0
6.648972542E0,-4.295419290E0,-1.705895931E0,3.255716811E0,5.653352966E0
6.658939542E0,-4.730893891E0,-2.074382783E0,3.856893611E0,6.446708406E0
6.668906542E0,-5.017334368E0,-2.511911219E0,3.774237370E0,6.762263664E0
6.678872542E0,-5.065699612E0,-2.786190657E0,3.051609224E0,6.537315183E0
6.688839542E0,-4.888951732E0,-2.604270329E0,2.039508820E0,5.902852633E0
6.698805542E0,-4.506865425E0,-1.772875201E0,8.865887511E-1,4.923511151E0
6.708772542E0,-3.921309462E0,-5.474724627E-1,1.201018095E-2,3.959360837E0
6.718739542E0,-3.009778243E0,6.492105067E-1,-1.596722567E-1,3.083137134E0
6.728705542E0,-1.644382491E0,1.945906007E0,4.397421920E-1,2.585327283E0
6.738672542E0,2.362229808E-1,3.092564292E0,1.406210926E0,3.405463898E0
6.748639542E0,2.131654068E0,3.786459805E0,1.935461272E0,4.756809567E0
6.758605542E0,3.027226920E0,4.031991407E0,2.355832661E0,5.565159931E0
6.768572542E0,3.314681596E0,3.990484362E0,2.631914503E0,5.817048520E0
6.778539542E0,3.069402886E0,3.788019843E0,2.513686726E0,5.485339494E0
6.788505542E0,2.379441087E0,3.365630432E0,2.227895875E0,4.685373851E0
6.798472542E0,1.637390537E0,3.155012555E0,1.980194664E0,4.068946166E0
6.808438542E0,8.598690952E-1,3.112536042E0,1.733769315E0,3.665134583E0
6.818405542E0,-1.202311791E-1,3.230169157E0,1.782196248E0,3.691161305E0
6.828372542E0,-6.382589641E-1,3.698828754E0,1.979710807E0,4.243579095E0
6.838339542E0,-5.368235866E-1,4.418915700E0,2.322375771E0,5.020799214E0
6.848306542E0,-1.669771832E-1,5.205453329E0,2.862329006E0,5.942857316E0
6.858273542E0,-3.164472912E-2,6.040502967E0,3.478458598E0,6.970534535E0
6.868239542E0,-1.291338208E-1,6.509227468E0,3.753196750E0,7.514865509E0
6.878206542E0,-3.766130206E-1,6.779712063E0,2.999222850E0,7.423049961E0
6.888172542E0,-6.845928126E-1,6.981673722E0,1.982946656E0,7.290028307E0
6.898139542E0,-9.102460740E-1,6.821907325E0,1.580574019E0,7.061528284E0
6.908106542E0,-1.049623011E0,6.454057235E0,1.668511465E0,6.748369711E0
6.918072542E0,-1.315142588E0,5.907142596E0,1.117092716E0,6.154009247E0
6.928039542E0,-2.051064964E0,4.798323398E0,-1.292776111E0,5.376062220E0
6.938006542E0,-2.161245218E0,2.110477061E0,-7.383923568E0,7.977933415E0
6.947972542E0,1.968379780E0,-3.409384562E0,-1.275455957E1,1.334830371E1
6.957939542E0,6.188338121E0,-1.077553669E1,-1.252517798E1,1.764335011E1
6.967906542E0,5.339615353E0,-1.685323204E1,-7.296949743E0,1.912559536E1
6.977872542E0,1.362234309E0,-1.836288372E1,-1.915468326E0,1.851270374E1
6.987839542E0,-1.156260437E0,-1.612251369E1,-2.828687051E-1,1.616639726E1
6.997805542E0,-1.621968652E-1,-9.981160866E0,7.773218322E-1,1.001269740E1
7.007772542E0,3.069927966E0,-3.066036644E0,9.359676102E-1,4.438589166E0
7.017739542E0,4.174038402E0,1.884599705E0,2.418188539E0,5.178991063E0
7.027705542E0,3.038147764E0,4.668206477E0,3.302994766E0,6.475512951E0
7.037672542E0,3.319655091E-1,5.216463636E0,3.440923567E0,6.257926890E0
7.047639542E0,-2.344882873E0,3.541265588E0,3.663924092E0,5.609222531E0
7.057605542E0,-3.955344935E0,8.676940584E-1,2.547175485E0,4.783905254E0
7.067572542E0,-5.896149246E0,-2.743114804E0,5.007423922E-1,6.522269368E0
7.077538542E0,-8.063710919E0,-7.295228907E0,6.190950072E-1,1.089160581E1
7.087505542E0,-6.660801331E0,-9.588248439E0,1.701599396E0,1.179814490E1
7.097472542E0,-4.975732014E0,-8.243359603E0,3.216969945E0,1.015183640E1
7.107438542E0,-5.941797289E0,-3.386293323E0,3.758540520E0,7.803753221E0
7.117405542E0,-6.964940161E0,5.195561010E-1,3.271562181E0,7.712551399E0
7.127372542E0,-7.708151091E0,2.478514847E0,3.809326804E0,8.948161810E0
7.137338542E0,-7.656334235E0,3.542235056E0,4.974992341E0,9.793744529E0
7.147305542E0,-7.236574903E0,3.864627723E0,4.383421347E0,9.301491626E0
7.157272542E0,-6.279119067E0,4.253200931E0,2.674335176E0,8.041711450E0
7.167238542E0,-5.701106597E0,4.871248117E0,2.035757392E0,7.770198377E0
7.177205542E0,-5.638976423E0,5.095341488E0,2.220488184E0,7.917772903E0
7.187171542E0,-5.073282282E0,4.998002889E0,2.391189459E0,7.512390632E0
7.197138542E0,-4.152293776E0,4.771876441E0,2.165828704E0,6.686042353E0
7.207105542E0,-3.331605484E0,4.109310894E0,1.909610877E0,5.624290607E0
7.217071542E0,-2.516636939E0,2.497704824E0,2.020131293E0,4.080799102E0
7.227038542E0,-1.745788998E0,3.870289582E-1,2.142528719E0,2.790698829E0
7.237005542E0,-7.191214250E-1,-1.030223265E0,2.036326911E0,2.392722902E0
7.246971542E0,6.495470139E-1,-1.611551691E0,1.751721875E0,2.467294004E0
7.256938542E0,2.165186242E0,-1.715862510E0,1.497315223E0,3.142318967E0
7.266904542E0,3.492481683E0,-1.725955389E0,1.354547267E0,4.124457371E0
7.276871542E0,4.699358396E0,-1.777086366E0,1.333604879E0,5.198125360E0
7.286838542E0,6.433902467E0,-1.733928652E0,1.162021844E0,6.764015397E0
7.296804542E0,7.719639115E0,-1.532494996E0,1.440484234E-1,7.871602056E0
7.306771542E0,7.988487074E0,-8.727963388E-1,-1.135558516E0,8.115860542E0
7.316738542E0,6.717488333E0,1.644669735E-1,-2.091261356E0,7.037405271E0
7.326704542E0,5.055628953E0,8.469674331E-1,-2.599708332E0,5.747627454E0
7.336671542E0,3.730527387E0,1.030399266E0,-2.467257203E0,4.589762013E0
7.346638542E0,3.185544669E0,1.591014515E0,-1.731466974E0,3.959419137E0
7.356604542E0,3.117894430E0,1.859392943E0,-7.804939467E-1,3.713189814E0
7.366571542E0,2.721886195E0,1.622799979E0,-1.656650498E-1,3.173261594E0
7.376537542E0,2.057737807E0,1.399481950E0,1.641784865E-2,2.488594815E0
7.386504542E0,1.523405792E0,1.229896908E0,-4.564921625E-1,2.010422022E0
7.396471542E0,1.194361332E0,1.297043409E0,-1.214369627E0,2.140914335E0
7.406437542E0,5.128370655E-1,1.517400994E0,-1.862860342E0,2.456777622E0
7.416404542E0,-2.016730991E-1,1.382612733E0,-2.218852279E0,2.622135665E0
7.426371542E0,-6.570457757E-1,9.346218735E-1,-2.255959294E0,2.528750588E0
7.436337542E0,-6.567010823E-1,4.857884306E-1,-1.961577129E0,2.124860359E0
7.446304542E0,2.615050256E-2,1.985188186E-2,-1.148392643E0,1.148861875E0
7.456271542E0,1.150287067E0,-6.543005079E-1,-4.744354767E-1,1.405830187E0
7.466237542E0,2.195275429E0,-2.037943520E0,-4.085269044E-1,3.023134504E0
7.476204542E0,3.210400890E0,-3.411624046E0,-6.951468176E-1,4.735935135E0
7.486170542E0,4.023415004E0,-4.108979942E0,-1.355665693E0,5.908418902E0
7.496137542E0,4.734088225E0,-4.248637179E0,-2.036128544E0,6.678946672E0
7.506104542E0,5.168868470E0,-3.927635565E0,-2.219162620E0,6.860627167E0
7.516070542E0,5.432310678E0,-3.567830658E0,-2.180161692E0,6.855109037E0
7.526037542E0,5.783428377E0,-3.716096751E0,-2.224203066E0,7.225268032E0
7.536004542E0,6.107544218E0,-4.263991383E0,-2.213588616E0,7.770694528E0
7.545970542E0,6.114564970E0,-4.905660735E0,-2.119462038E0,8.120685399E0
7.555937542E0,5.683527528E0,-5.135348137E0,-1.630566836E0,7.831540963E0
7.565903542E0,4.620468931E0,-4.932338072E0,-1.270999765E0,6.876927541E0
7.575870542E0,3.139729103E0,-4.725308046E0,-1.782150055E0,5.946637183E0
7.585837542E0,1.226185681E0,-4.548347912E0,-3.053389701E0,5.613749969E0
7.595803542E0,-7.704817593E-1,-4.072955831E0,-4.373537214E0,6.025814393E0
7.605770542E0,-2.261305111E0,-3.384447942E0,-5.160906317E0,6.572894544E0
7.615737542E0,-3.149784560E0,-2.983593827E0,-4.693015044E0,6.391194340E0
7.625703542E0,-3.744780560E0,-3.042454823E0,-2.789947493E0,5.573483633E0
7.635670542E0,-4.495148482E0,-2.938004841E0,-4.710633508E-1,5.390745125E0
7.645637542E0,-5.139106143E0,-2.856988159E0,1.813101121E0,6.153058505E0
7.655603542E0,-5.894692705E0,-3.195905643E0,3.267227640E0,7.458953775E0
7.665570542E0,-6.153548942E0,-3.310004116E0,3.832103755E0,7.969147446E0
7.675536542E0,-6.358330713E0,-3.631179392E0,3.528849610E0,8.128137105E0
7.685503542E0,-7.107401723E0,-4.294289315E0,2.301535563E0,8.617026513E0
7.695470542E0,-7.367912722E0,-4.908707719E0,-3.065227389E-2,8.853388555E0
7.705436542E0,-6.243994843E0,-4.293664833E0,-1.267842561E0,7.683127882E0
7.715403542E0,-4.674672913E0,-2.486527287E0,-1.191840305E0,5.427326055E0
7.725370542E0,-3.105079965E0,-5.043778986E-1,-1.506333384E-1,3.149382329E0
7.735336542E0,-1.850422729E0,1.197294588E0,9.954150823E-1,2.418352702E0
7.745303542E0,-8.081217483E-2,2.832898216E0,2.125175353E0,3.542345718E0
7.755269542E0,2.150267071E0,4.054182175E0,3.000569756E0,5.483015634E0
7.765236542E0,3.763467384E0,4.628742449E0,3.125259583E0,6.734700504E0
7.775203542E0,4.628354779E0,4.728183707E0,2.364983554E0,7.026417034E0
7.785169542E0,4.176051891E0,4.339730952E0,1.292539884E0,6.159816026E0
7.795136542E0,2.453233533E0,4.047732112E0,7.361118257E-1,4.790026162E0
7.805103542E0,6.335294437E-1,4.164584039E0,8.010021785E-1,4.287974378E0
7.815069542E0,-3.626848798E-1,4.556848009E0,1.375946030E0,4.773848718E0
7.825036542E0,-6.874131440E-1,4.883713796E0,2.204466959E0,5.402117349E0
7.835003208E0,-4.660279845E-1,4.950922862E0,3.106547616E0,5.863399812E0
7.844969208E0,-7.078902394E-1,5.046940575E0,3.742184396E0,6.322710006E0
7.854936208E0,-7.766090566E-1,5.266659059E0,4.197758509E0,6.779527695E0
7.864902208E0,-7.565117379E-1,5.682699562E0,4.659875364E0,7.387815830E0
7.874869208E0,-1.028819494E0,6.016815897E0,4.679896231E0,7.691681989E0
7.884836208E0,-1.466072819E0,6.416371345E0,3.708267622E0,7.554497965E0
7.894802208E0,-1.874967586E0,6.773505244E0,1.723550721E0,7.236470398E0
7.904769208E0,-2.202427304E0,6.724480433E0,1.838900206E0,7.311010676E0
7.914736208E0,-2.448352570E0,6.470053462E0,1.817940277E0,7.152686835E0
7.924702208E0,-2.551618199E0,6.044244601E0,6.503773186E-1,6.592923394E0
7.934669208E0,-2.476535272E0,5.507297126E0,-1.901479739E0,6.330811464E0
7.944636208E0,-2.709827482E0,3.992037383E0,-7.213056232E0,8.678001363E0
7.954602208E0,-1.427180064E0,-6.283283454E-1,-1.537445366E1,1.545333183E1
7.964569208E0,6.582445718E0,-9.523850130E0,-1.572766525E1,1.952925413E1
7.974535208E0,7.633612540E0,-1.679887632E1,-5.919777260E0,1.937828808E1
7.984502208E0,3.839103457E-1,-1.928881604E1,-3.775064752E-1,1.929632925E1
7.994469208E0,-4.370607759E0,-1.826574042E1,8.866978016E-1,1.880227960E1
8.004435208E0,-3.023684969E0,-1.244121781E1,3.792825669E-1,1.280899788E1
8.014402208E0,1.097939796E0,-3.734642365E0,-9.515054163E-1,4.007291847E0
8.024369208E0,2.039032856E0,2.334498510E0,1.097815031E0,3.288272514E0
8.034335208E0,1.099058076E0,5.312686586E0,2.368423178E0,5.919628010E0
8.044302208E0,-6.103831675E-1,5.659009568E0,2.942801604E0,6.407576623E0
8.054268208E0,-2.071303786E0,3.675115955E0,3.788932885E0,5.670342941E0
8.064235208E0,-2.793626561E0,1.153368550E0,3.360647435E0,4.519796407E0
8.074202208E0,-3.060865366E0,-2.481512715E0,2.438125205E0,4.633708737E0
8.084168208E0,-3.485570859E0,-6.247276885E0,2.702829535E0,7.647415261E0
8.094135208E0,-5.126732265E0,-8.217597356E0,3.192894619E0,1.019837566E1
8.104102208E0,-7.859436686E0,-7.513878520E0,3.911563031E0,1.155549397E1
8.114068208E0,-8.422567407E0,-3.740147519E0,3.964078336E0,1.003206171E1
8.124035208E0,-7.777230681E0,-5.813167316E-1,4.148273523E0,8.833539462E0
8.134002208E0,-7.989398071E0,6.444391787E-1,3.948740505E0,8.935229989E0
8.143968208E0,-7.769084340E0,1.492716973E0,3.571258003E0,8.679905482E0
8.153935208E0,-6.442956296E0,2.839769863E0,2.821280091E0,7.585222479E0
8.163901208E0,-5.142235572E0,4.410964656E0,2.467644289E0,7.210302644E0
8.173868208E0,-4.543267266E0,5.563823914E0,2.501610472E0,7.606278259E0
8.183835208E0,-4.405794548E0,5.830037702E0,2.220016021E0,7.637331756E0
8.193801208E0,-3.802768275E0,5.639407947E0,2.111140866E0,7.121859610E0
8.203768208E0,-2.512049214E0,5.126056327E0,1.888349963E0,6.012712391E0
8.213735208E0,-1.265902162E0,4.083496022E0,2.133831279E0,4.778146499E0
8.223701208E0,-7.034187274E-1,2.035736781E0,2.439064268E0,3.253929417E0
8.233668208E0,-3.104751644E-1,-1.291392660E-1,2.378869522E0,2.402517841E0
8.243634208E0,5.324514042E-1,-1.412197890E0,2.164257119E0,2.638525394E0
8.253601208E0,2.029776421E0,-2.055140181E0,1.662504913E0,3.332794034E0
8.263568208E0,3.511950572E0,-2.307641664E0,7.880036719E-1,4.275506597E0
8.273534208E0,5.138698007E0,-2.160956073E0,1.861473528E-1,5.577687621E0
8.283501208E0,6.626906776E0,-1.860486957E0,-3.417696818E-1,6.891597177E0
8.293468208E0,7.155402101E0,-1.489830787E0,-7.784198662E-1,7.350191323E0
8.303434208E0,7.039062974E0,-9.413812548E-1,-1.227241688E0,7.206991632E0
8.313401208E0,6.335306132E0,-2.526932716E-2,-1.761037513E0,6.575560466E0
8.323368208E0,5.482578607E0,1.330984157E0,-1.724415232E0,5.899474120E0
8.333334208E0,4.482886286E0,2.206980677E0,-1.193799123E0,5.137332918E0
8.343301208E0,3.320157513E0,2.404549908E0,-7.491382527E-1,4.167314998E0
8.353267208E0,1.979413476E0,2.398782215E0,-1.813139713E-1,3.115302325E0
8.363234208E0,7.556459114E-1,2.422700835E0,3.409961683E-1,2.560616813E0
8.373201208E0,-6.407554328E-2,2.419237529E0,3.272715837E-1,2.442114368E0
8.383167208E0,-5.268885094E-1,2.210475558E0,-1.435853970E-1,2.276934444E0
8.393134208E0,-9.302651131E-1,1.661427271E0,-5.129183418E-1,1.972008870E0
8.403101208E0,-9.211864337E-1,7.775387639E-1,-7.561057218E-1,1.422971130E0
8.413067208E0,-8.921172935E-1,8.902034998E-2,-1.446746163E0,1.702020079E0
8.423034208E0,-6.609175095E-1,-3.273972988E-2,-1.821876038E0,1.938328182E0
8.433001208E0,3.267365634E-1,1.418861961E-1,-1.575027643E0,1.614806660E0
8.442967208E0,1.905743237E0,-2.448416305E-1,-1.827047315E0,2.651397103E0
8.452934208E0,3.707047308E0,-1.641511070E0,-2.508787637E0,4.767680121E0
8.462900208E0,4.838984351E0,-3.041528040E0,-2.958569498E0,6.435821302E0
8.472867208E0,5.576447468E0,-3.817407364E0,-2.874949052E0,7.344024604E0
8.482834208E0,6.399514407E0,-4.015685277E0,-2.603763961E0,7.991188876E0
8.492800208E0,6.810364337E0,-3.842492504E0,-2.453158396E0,8.195352168E0
8.502767208E0,6.566412068E0,-3.907006588E0,-2.515041234E0,8.044122098E0
8.512734208E0,6.336443415E0,-4.107799973E0,-2.298575702E0,7.893540779E0
8.522700208E0,6.326847550E0,-4.323462828E0,-1.759513290E0,7.862392623E0
8.532667208E0,6.088721446E0,-5.019922931E0,-1.696067638E0,8.071480689E0
8.542633208E0,5.510772711E0,-5.732393294E0,-1.683903383E0,8.128005866E0
8.552600208E0,4.238401336E0,-5.579672792E0,-1.145620989E0,7.099946605E0
8.562567208E0,2.416233814E0,-4.741577339E0,-8.571988910E-1,5.390318307E0
8.572533208E0,7.345485726E-1,-4.225223758E0,-1.550047753E0,4.560123403E0
8.582500208E0,-1.066493251E0,-4.061984700E0,-2.652739069E0,4.967308338E0
8.592467208E0,-2.832577788E0,-3.767749300E0,-3.532887697E0,5.890732314E0
8.602433208E0,-4.181620486E0,-3.622113284E0,-3.755356126E0,6.686430600E0
8.612400208E0,-4.807226076E0,-3.579492345E0,-2.873316509E0,6.646663505E0
8.622367208E0,-4.981961052E0,-2.934015870E0,-8.306519473E-1,5.841093024E0
8.632333208E0,-5.419494166E0,-2.089720615E0,1.390027002E0,5.972438726E0
8.642300208E0,-6.129446719E0,-1.742797709E0,2.688012983E0,6.916131486E0
8.652266208E0,-6.454874675E0,-1.932918171E0,3.307902042E0,7.506250439E0
8.662233208E0,-6.193204173E0,-1.961181858E0,3.689752121E0,7.471029576E0
8.672200208E0,-6.324891071E0,-2.561530691E0,3.163317940E0,7.521453778E0
8.682166208E0,-6.580250089E0,-3.626709781E0,1.596493356E0,7.681243786E0
8.692133208E0,-6.359758603E0,-4.115625302E0,6.848858312E-2,7.575591845E0
8.702100208E0,-5.608047575E0,-3.498990803E0,-1.075188353E0,6.696951862E0
8.712066208E0,-4.538062660E0,-1.741675043E0,-1.056752082E0,4.974351176E0
8.722033208E0,-3.305899078E0,3.968856096E-2,-3.633123592E-1,3.326039652E0
8.732000208E0,-1.672585366E0,1.550397416E0,8.963457075E-1,2.450450894E0
8.741966208E0,5.245844141E-2,2.921802206E0,1.965894713E0,3.521991204E0
8.751933208E0,1.652698547E0,3.882961083E0,2.723973067E0,5.022830729E0
8.761899208E0,3.155973253E0,4.594712824E0,3.085655514E0,6.371249725E0
8.771866208E0,4.370958007E0,4.738640867E0,2.630395397E0,6.962684189E0
8.781833208E0,4.049719288E0,4.203829381E0,1.601723983E0,6.052927184E0
8.791799208E0,2.492714810E0,3.759510573E0,1.021643353E0,4.625073190E0
8.801766208E0,1.068940530E0,3.730811269E0,9.165045682E-1,3.987676919E0
8.811733208E0,2.208564249E-1,4.006591687E0,1.261865975E0,4.206407047E0
8.821699208E0,-3.056303259E-1,4.181581310E0,2.062308283E0,4.672488374E0
8.831666208E0,-8.923375873E-1,4.351056424E0,2.938749484E0,5.325805751E0
8.841631792E0,-8.891344826E-1,4.481538795E0,3.699950542E0,5.879148247E0
8.851598792E0,-6.112209273E-1,4.842654648E0,4.525449338E0,6.656169076E0
8.861565792E0,-6.308122426E-1,5.304415700E0,5.033573256E0,7.339728178E0
8.871531792E0,-9.265831214E-1,5.679635621E0,5.042935817E0,7.651667709E0
8.881498792E0,-1.381685072E0,6.190844822E0,4.296565344E0,7.661337155E0
8.891465792E0,-1.581992115E0,6.746560104E0,2.151932358E0,7.256003388E0
8.901431792E0,-1.781083961E0,7.088896455E0,9.655013117E-1,7.372713598E0
8.911398792E0,-2.207485877E0,6.766919525E0,4.705806997E-1,7.133417130E0
8.921365792E0,-2.557210768E0,6.243698974E0,-9.709091091E-1,6.816580395E0
8.931331792E0,-3.166099168E0,5.254556492E0,-4.790561804E0,7.783574389E0
8.941298792E0,-1.844366622E0,2.672887990E0,-1.118523822E1,1.164712722E1
8.951264792E0,6.202304195E0,-2.979867981E0,-1.508817398E1,1.658315967E1
8.961231792E0,8.294890530E0,-1.128047884E1,-8.709935253E0,1.648991764E1
8.971198792E0,2.792094006E0,-1.654605090E1,-1.141086181E0,1.681872965E1
8.981164792E0,-1.652368472E0,-1.723476637E1,1.425811670E0,1.737240433E1
8.991131792E0,-1.233024876E0,-1.373050313E1,1.268988761E0,1.384403839E1
9.001098792E0,2.180730187E0,-7.025001590E0,6.696012095E-1,7.386108398E0
9.011064792E0,2.707453220E0,-6.537619793E-1,1.114940356E0,3.000133275E0
9.021031792E0,1.146778738E0,2.668814235E0,9.539586157E-1,3.057402154E0
9.030998792E0,-1.001012183E0,2.221752498E0,8.236727107E-1,2.572284255E0
9.040964792E0,-2.904884749E0,-7.835567182E-1,2.333877244E0,3.807794575E0
9.050931792E0,-4.670757325E0,-4.677249781E0,1.784033443E0,6.846562263E0
9.060897792E0,-5.775441080E0,-7.617571873E0,2.145850084E0,9.797336041E0
9.070864792E0,-6.358809015E0,-7.781545926E0,3.607595233E0,1.067715564E1
9.080831792E0,-6.390054781E0,-6.309270819E0,4.067865829E0,9.858358423E0
9.090797792E0,-6.155693700E0,-1.684970500E0,4.179476605E0,7.628873784E0
9.100764792E0,-6.582225278E0,2.201764961E0,3.634127266E0,7.834560584E0
9.110731792E0,-8.562778376E0,3.312128409E0,3.586507249E0,9.856693278E0
9.120697792E0,-1.003701347E1,2.966234028E0,3.690786786E0,1.109784172E1
9.130664792E0,-9.562322470E0,2.678578500E0,3.354977975E0,1.048182575E1
9.140630792E0,-7.972226552E0,2.981540869E0,2.603723322E0,8.900862728E0
9.150597792E0,-6.285149885E0,3.593252013E0,2.038259708E0,7.521241370E0
9.160564792E0,-5.071491864E0,4.156692052E0,1.874880317E0,6.820065597E0
9.170530792E0,-4.280059531E0,4.336871663E0,2.076878521E0,6.437452121E0
9.180497792E0,-3.430311747E0,4.035140133E0,2.290104110E0,5.770092842E0
9.190464792E0,-2.402155912E0,3.400762843E0,2.152741174E0,4.687199110E0
9.200430792E0,-1.717234120E0,2.230244409E0,2.029256165E0,3.469980365E0
9.210397792E0,-1.216672992E0,6.132086152E-1,2.131829484E0,2.530022712E0
9.220364792E0,-1.785407831E-1,-6.067708308E-1,2.143661764E0,2.235024253E0
9.230330792E0,1.048829690E0,-1.148282642E0,1.872450360E0,2.434063905E0
9.240297792E0,2.438304130E0,-1.103618685E0,1.458076752E0,3.047833500E0
9.250263792E0,3.838027570E0,-8.703644818E-1,6.163854074E-1,3.983455902E0
9.260230792E0,5.297948095E0,-7.314282060E-1,-9.486983143E-2,5.349041177E0
9.270197792E0,6.490715184E0,-6.975067538E-1,-6.311413678E-1,6.558524125E0
9.280163792E0,6.767402505E0,-6.989849299E-1,-1.263482730E0,6.919733030E0
9.290130792E0,6.553941711E0,-4.175946933E-1,-1.613871281E0,6.762626545E0
9.300097792E0,6.138488268E0,2.788595617E-1,-1.649076197E0,6.362252210E0
9.310063792E0,5.551137795E0,1.035020905E0,-1.652715504E0,5.883695066E0
9.320030792E0,5.272773492E0,1.694682725E0,-1.451750211E0,5.725527793E0
9.329997792E0,4.797244879E0,2.172765110E0,-8.114719105E-1,5.328503853E0
9.339963792E0,3.797391467E0,2.392009385E0,-3.403237385E-1,4.500856707E0
9.349930792E0,2.832071419E0,2.521717585E0,1.306449423E-1,3.794305760E0
9.359896792E0,2.021625111E0,2.601239718E0,5.121909481E-1,3.334029952E0
9.369863792E0,1.322772328E0,2.300066012E0,5.656239742E-1,2.712924763E0
9.379830792E0,2.652250242E-1,1.372679483E0,1.939685154E-1,1.411459196E0
9.389796792E0,-6.178498426E-1,2.634246665E-1,-7.599217609E-1,1.014205140E0
9.399763792E0,-1.159500233E0,-4.121626300E-1,-2.187070908E0,2.509501540E0
9.409730792E0,-1.552514401E0,-4.428008705E-1,-3.105000735E0,3.499629000E0
9.419696792E0,-1.239969030E0,-1.167770827E-1,-2.989754453E0,3.238794803E0
9.429663792E0,3.014801002E-1,-8.934136212E-2,-2.593256514E0,2.612250271E0
9.439629792E0,2.177199346E0,-8.788429445E-1,-1.959385593E0,3.058063736E0
9.449596792E0,4.064854806E0,-2.540116434E0,-1.364760014E0,4.983754206E0
9.459563792E0,5.542277509E0,-4.106372668E0,-1.447980511E0,7.048104996E0
9.469529792E0,6.434703535E0,-5.019114261E0,-1.375954362E0,8.275878682E0
9.479496792E0,6.987005798E0,-5.414026435E0,-1.195656929E0,8.919614776E0
9.489463792E0,7.107067847E0,-5.375359383E0,-1.424943797E0,9.024154625E0
9.499429792E0,6.981704128E0,-5.450761567E0,-2.200309150E0,9.126683656E0
9.509396792E0,6.327116522E0,-5.846313427E0,-3.385685213E0,9.256060097E0
9.519363792E0,5.487722987E0,-6.044104852E0,-4.215501593E0,9.187859420E0
9.529329792E0,4.828649689E0,-6.093295138E0,-4.306360892E0,8.887567024E0
9.539296792E0,3.951355380E0,-5.922469903E0,-3.589654221E0,7.973360428E0
9.549262792E0,2.822176176E0,-5.539291921E0,-2.492216628E0,6.697729247E0
9.559229792E0,1.694171386E0,-5.279079130E0,-1.937950285E0,5.873205637E0
9.569196792E0,4.032444566E-1,-4.792251649E0,-1.933605219E0,5.183349410E0
9.579162792E0,-9.416247913E-1,-4.273639873E0,-2.361858217E0,4.972829099E0
9.589129792E0,-2.492661893E0,-4.063057664E0,-3.049256305E0,5.658600967E0
9.599096792E0,-4.230170503E0,-3.786613002E0,-2.836825790E0,6.346681107E0
9.609062792E0,-5.372084942E0,-3.616385352E0,-1.443472307E0,6.634843777E0
9.619029792E0,-6.721354512E0,-3.523801709E0,4.397211055E-1,7.601785291E0
9.628995792E0,-7.976372813E0,-3.397018871E0,2.211357318E0,8.947198536E0
9.638962792E0,-8.856296323E0,-2.889316245E0,3.103512619E0,9.819059196E0
9.648929792E0,-8.791146646E0,-2.087536680E0,3.340434780E0,9.633305417E0
9.658895792E0,-9.130071731E0,-1.537594938E0,2.268136121E0,9.532410475E0
9.668862792E0,-9.450772798E0,-1.451077196E0,1.033193504E0,9.617183596E0
9.678829792E0,-8.267180575E0,-1.341319696E0,3.700350492E-1,8.383456276E0
9.688795792E0,-6.639486476E0,-8.055615449E-1,4.527528316E-2,6.688330130E0
9.698762792E0,-5.358943909E0,1.824337131E-1,4.423523891E-1,5.380263704E0
9.708729792E0,-4.103045018E0,1.330985911E0,1.080025170E0,4.446679242E0
9.718695792E0,-2.823468411E0,2.289465010E0,1.862030768E0,4.084211366E0
9.728662792E0,-1.047377095E0,3.582995996E0,2.862792106E0,4.704299919E0
9.738629792E0,1.118887885E0,4.695193132E0,3.631004853E0,6.039945768E0
9.748595792E0,3.664796205E0,5.611632503E0,4.292714660E0,7.959180217E0
9.758562792E0,5.384991501E0,5.832033942E0,4.229300145E0,8.994316710E0
9.768528792E0,5.560117364E0,5.298708817E0,3.153402232E0,8.302720390E0
9.778495792E0,5.023168720E0,4.826639709E0,2.147071275E0,7.289622070E0
9.788462792E0,3.769997847E0,4.494613754E0,1.717586854E0,6.112654183E0
9.798428792E0,2.309557504E0,4.019549117E0,2.096845739E0,5.087985164E0
9.808395792E0,8.826013885E-1,3.699661982E0,2.647765720E0,4.634344323E0
9.818362792E0,-3.062135309E-1,3.729037224E0,3.114214485E0,4.868040386E0
9.828328792E0,-6.859419845E-1,3.926479570E0,3.591063985E0,5.365025514E0
9.838295917E0,-6.882867911E-1,4.443676904E0,4.276873676E0,6.205775663E0
9.848262917E0,-4.884076177E-1,5.242082042E0,4.687668057E0,7.049269321E0
9.858228917E0,-3.331205169E-1,6.125542533E0,3.887125178E0,7.262436419E0
9.868195917E0,-5.093343640E-1,6.865191924E0,2.364778024E0,7.278904914E0
9.878161917E0,-8.246516076E-1,6.940980025E0,1.951801754E0,7.257188441E0
9.888128917E0,-1.168431124E0,6.211593082E0,1.388861944E0,6.471325784E0
9.898095917E0,-1.344899361E0,4.947063115E0,9.087596387E-2,5.127421009E0
9.908061917E0,-1.412126846E0,3.653308180E0,-2.715307493E0,4.765884773E0
9.918028917E0,-2.025558240E0,1.856117333E0,-9.434378375E0,9.826268521E0
9.927995917E0,4.524877773E0,-3.195913244E0,-1.740615528E1,1.826643429E1
9.937961917E0,9.403832520E0,-1.259425464E1,-1.354759989E1,2.075053683E1
9.947928917E0,4.596870154E0,-1.893825909E1,-6.009250184E0,2.039362549E1
9.957894917E0,-1.327872269E0,-1.917210094E1,-1.221785943E0,1.925682892E1
9.967861917E0,-3.691815603E0,-1.469672862E1,7.945690718E-1,1.517414494E1
9.977828917E0,-1.573461612E-1,-7.965355489E0,1.168086869E0,8.052084998E0
9.987794917E0,2.116624531E0,-1.739810951E0,2.062807635E0,3.429608854E0
9.997761917E0,1.122043627E0,3.035782565E0,2.157029376E0,3.889438702E0
1.000772892E1,-9.137194663E-1,5.054296957E0,1.742107445E0,5.423627877E0
1.001769492E1,-2.669359195E0,3.968756109E0,3.717218832E0,6.057575374E0
1.002766192E1,-3.264555170E0,1.891267285E0,4.478159105E0,5.855605978E0
1.003762892E1,-3.781820040E0,-7.243431348E-1,2.813481367E0,4.768911112E0
1.004759492E1,-4.388382125E0,-3.789771668E0,2.470548893E0,6.302688220E0
1.005756192E1,-5.307367959E0,-6.031635665E0,2.563958163E0,8.433425455E0
1.006752792E1,-6.599923046E0,-5.568870061E0,3.462220880E0,9.303669781E0
1.007749492E1,-8.305917794E0,-2.603797290E0,3.688307859E0,9.453657789E0
1.008746192E1,-1.018126896E1,-4.516295815E-1,3.315081838E0,1.071690135E1
1.009742792E1,-1.134438891E1,2.113166195E-1,4.693455924E0,1.227877612E1
1.010739492E1,-1.021057520E1,1.193884492E0,5.378650196E0,1.160220169E1
1.011736192E1,-7.610712504E0,2.784321887E0,4.195358520E0,9.125591833E0
1.012732792E1,-5.821507784E0,4.289734334E0,2.924626411E0,7.800334171E0
1.013729492E1,-5.120665779E0,5.161899759E0,2.015809031E0,7.545191395E0
1.014726192E1,-4.899436374E0,5.211941400E0,1.442093095E0,7.297153036E0
1.015722792E1,-4.151868684E0,5.002128684E0,1.235556282E0,6.617091828E0
1.016719492E1,-2.657821469E0,4.421691374E0,1.188084200E0,5.294045111E0
1.017716092E1,-1.209390577E0,2.858835880E0,1.551596096E0,3.470305260E0
1.018712792E1,-1.525911324E-1,6.622375184E-1,1.843846951E0,1.965099021E0
1.019709492E1,1.002383794E0,-9.613968587E-1,1.958991491E0,2.401396438E0
1.020706092E1,2.518661537E0,-1.342974458E0,1.841526775E0,3.396830464E0
1.021702792E1,3.954775124E0,-1.203907204E0,1.360841210E0,4.352186535E0
1.022699492E1,5.331780084E0,-1.156944707E0,7.288987005E-1,5.504334041E0
1.023696092E1,6.895362972E0,-8.139137077E-1,1.615222427E-1,6.945111624E0
1.024692792E1,8.051898959E0,-4.133823591E-1,-4.453823797E-1,8.074795804E0
1.025689492E1,8.414381890E0,-8.116344631E-2,-1.273615955E0,8.510611476E0
1.026686092E1,8.287740555E0,3.375229222E-1,-1.987925853E0,8.529502589E0
1.027682792E1,7.563325499E0,1.011939021E0,-2.367435876E0,7.989534769E0
1.028679392E1,6.268720379E0,1.654210637E0,-2.088129587E0,6.811281318E0
1.029676092E1,4.659604053E0,1.969724055E0,-1.040634817E0,5.164750101E0
1.030672792E1,2.973781322E0,1.915953060E0,5.990647852E-1,3.587914449E0
1.031669392E1,1.573637467E0,1.677046938E0,1.454610668E0,2.721160324E0
1.032666092E1,4.603132814E-1,1.331325635E0,1.161672181E0,1.825869250E0
1.033662792E1,-4.883889797E-1,8.253116852E-1,7.236373758E-1,1.201380133E0
1.034659392E1,-8.785266101E-1,9.853797984E-1,1.559744775E-1,1.329327044E0
1.035656092E1,-1.358423971E0,1.290768762E0,-1.364188156E0,2.317845769E0
1.036652792E1,-1.493787890E0,1.005221740E0,-2.347442492E0,2.958438652E0
1.037649392E1,-8.127892882E-1,5.622261572E-1,-2.321399578E0,2.523018169E0
1.038646092E1,3.565576556E-1,2.261796570E-1,-2.174253811E0,2.214874767E0
1.039642692E1,2.415519285E0,-1.406488668E0,-2.630885686E0,3.838554843E0
1.040639392E1,4.703083949E0,-3.504229909E0,-3.302501553E0,6.730909477E0
1.041636092E1,6.084872809E0,-4.833345881E0,-3.314545648E0,8.448261499E0
1.042632692E1,7.223294706E0,-5.816229503E0,-3.053523018E0,9.763632258E0
1.043629392E1,8.080663751E0,-6.316876293E0,-2.903885753E0,1.065985953E1
1.044626092E1,8.310521307E0,-6.184486560E0,-2.965016638E0,1.077515485E1
1.045622692E1,8.057360258E0,-5.552833487E0,-2.972285312E0,1.022690051E1
1.046619392E1,7.933643700E0,-4.866608936E0,-2.803687865E0,9.720455264E0
1.047616092E1,7.580964210E0,-4.432506384E0,-2.418061508E0,9.108520882E0
1.048612692E1,6.749301864E0,-4.262085775E0,-2.033219554E0,8.237258801E0
1.049609392E1,5.090480697E0,-4.132837751E0,-1.361159445E0,6.696722828E0
1.050605992E1,2.826300802E0,-4.076971698E0,-1.364209352E0,5.144972460E0
1.051602692E1,5.965940443E-1,-4.252095807E0,-2.318521724E0,4.879732185E0
1.052599392E1,-1.827146133E0,-4.483076028E0,-3.621427991E0,6.045756723E0
1.053595992E1,-4.078900987E0,-4.744269982E0,-4.977615986E0,7.995135511E0
1.054592692E1,-5.299428025E0,-4.866446968E0,-4.228972408E0,8.345684580E0
1.055589392E1,-5.477551171E0,-4.716741875E0,-1.395848490E0,7.362038695E0
1.056585992E1,-5.692929851E0,-4.310044053E0,1.339264984E0,7.264954282E0
1.057582692E1,-6.500222172E0,-4.117750765E0,3.090127172E0,8.292023009E0
1.058579292E1,-7.262848781E0,-3.944488994E0,4.281207340E0,9.307883870E0
1.059575992E1,-7.040376259E0,-3.950355506E0,4.658328191E0,9.320527240E0
1.060572692E1,-7.378250014E0,-4.690865607E0,3.865010716E0,9.559346277E0
1.061569292E1,-8.525214694E0,-5.782341380E0,1.292066113E0,1.038191660E1
1.062565992E1,-8.436062781E0,-6.099824724E0,-1.893837136E0,1.058119256E1
1.063562692E1,-6.910419552E0,-4.453005552E0,-3.138187777E0,8.799510177E0
1.064559292E1,-5.299909251E0,-1.650701723E0,-2.447310304E0,6.066562615E0
1.065555992E1,-3.283232054E0,1.154123425E0,-5.314195168E-1,3.520514210E0
1.066552692E1,-1.196990606E0,3.210967485E0,1.393206426E0,3.699205705E0
1.067549292E1,4.079025679E-1,4.458173321E0,2.162627792E0,4.971785679E0
1.068545992E1,2.212502642E0,5.391875428E0,3.346050446E0,6.720382590E0
1.069542692E1,3.604305004E0,5.855886489E0,3.407744418E0,7.674317113E0
1.070539292E1,3.611735061E0,5.735644931E0,2.282309772E0,7.152006069E0
1.071535992E1,2.907384726E0,5.451091350E0,1.266396983E0,6.306428797E0
1.072532592E1,1.937772822E0,5.304205785E0,8.737225378E-1,5.714276296E0
1.073529292E1,1.016766336E0,5.405627494E0,8.546091592E-1,5.566415292E0
1.074525992E1,1.470736266E-1,5.312788913E0,1.237562023E0,5.457006180E0
1.075522592E1,-9.140221328E-1,5.142954195E0,1.920396359E0,5.565369394E0
1.076519292E1,-1.718388214E0,5.084357493E0,2.552566033E0,5.942991042E0
1.077515992E1,-1.929496381E0,5.557214806E0,3.362239632E0,6.775710149E0
1.078512592E1,-1.723357032E0,6.291047387E0,4.252041720E0,7.786340314E0
1.079509292E1,-1.590318843E0,6.904027376E0,5.192674824E0,8.783995666E0
1.080505892E1,-1.324464073E0,7.446957137E0,5.421351242E0,9.306042390E0
1.081502592E1,-7.917977109E-1,7.860265236E0,3.990189078E0,8.850554902E0
1.082499292E1,-3.376759730E-1,7.590891028E0,-5.880442455E-1,7.621118533E0
1.083495892E1,2.217628895E-1,6.565626202E0,-1.866526838E0,6.829388600E0
1.084492646E1,1.016966530E0,5.653770463E0,-1.298556376E0,5.889447345E0
1.085489346E1,1.954876074E0,4.470153097E0,-4.062862952E0,6.349068006E0
1.086485946E1,5.609846764E0,1.415401579E0,-1.129440223E1,1.269004587E1
1.087482646E1,1.096129103E1,-5.031044919E0,-1.169878631E1,1.680246754E1
1.088479346E1,6.195112705E0,-1.435734453E1,-5.865979367E0,1.670097235E1
1.089475946E1,-2.285890899E0,-1.951938462E1,-1.522700618E0,1.971167903E1
1.090472646E1,-6.116616758E0,-1.839741971E1,7.829676113E-1,1.940337834E1
1.091469246E1,-4.061965697E0,-1.274712893E1,-6.572384414E-1,1.339480584E1
1.092465946E1,-1.621390800E0,-5.365352458E0,6.924857497E-2,5.605417958E0
1.093462646E1,-2.930720672E0,-3.911611855E-1,1.255932806E0,3.212397538E0
1.094459246E1,-6.990757957E0,-3.140019125E-1,1.885508362E0,7.247374407E0
1.095455946E1,-1.010222513E1,-2.663798493E0,2.078928409E0,1.065235740E1
1.096452646E1,-1.057719095E1,-4.956025727E0,1.349166074E-1,1.168149656E1
1.097449246E1,-6.284601417E0,-4.658919345E0,2.421373809E0,8.189309833E0
1.098445946E1,-1.512633320E0,-1.756659118E0,5.746793232E0,6.196736502E0
1.099442646E1,-2.025061373E0,7.108424985E-1,8.039148520E0,8.320701867E0
1.100439246E1,-5.144675615E0,1.980591690E0,7.260664262E0,9.116341160E0
1.101435946E1,-7.729677030E0,2.438163797E0,5.760134239E0,9.943424770E0
1.102432646E1,-9.632399011E0,1.973166896E0,4.417755320E0,1.077928849E1
1.103429246E1,-1.032659449E1,8.426516032E-1,3.405573932E0,1.090626193E1
1.104425946E1,-9.296479980E0,1.245807767E-1,2.441476975E0,9.612537137E0
1.105422546E1,-7.440657347E0,5.822441000E-1,2.314567691E0,7.814065110E0
1.106419246E1,-5.737066973E0,1.886777793E0,2.680804535E0,6.607615368E0
1.107415946E1,-4.651867018E0,3.213929685E0,3.112413250E0,6.454171288E0
1.108412546E1,-3.559610935E0,4.258647028E0,3.272911134E0,6.443512381E0
1.109409246E1,-2.648849502E0,4.412355709E0,3.296299996E0,6.111536652E0
1.110405946E1,-1.508109622E0,3.604559943E0,3.283525292E0,5.103801070E0
1.111402546E1,-5.821164845E-1,1.762581763E0,2.728384498E0,3.299944854E0
1.112399246E1,3.917909306E-1,-3.942561167E-1,1.608949095E0,1.702250043E0
1.113395846E1,1.711877340E0,-1.743949610E0,6.597926514E-1,2.531246849E0
1.114392546E1,3.402062679E0,-2.109553201E0,-6.376154780E-2,4.003537275E0
1.115389246E1,4.707743011E0,-2.005210807E0,-1.060759691E0,5.225794270E0
1.116385846E1,6.210445858E0,-1.418975982E0,-1.413480184E0,6.525416219E0
1.117382546E1,7.176885940E0,-6.819297713E-1,-1.301966765E0,7.325833568E0
1.118379246E1,7.654919794E0,-7.826498151E-2,-1.276918463E0,7.761085183E0
1.119375846E1,7.593740376E0,3.789200395E-1,-1.090205172E0,7.680951804E0
1.120372546E1,7.011272328E0,7.212610674E-1,-1.211860002E0,7.151696432E0
1.121369246E1,6.366533772E0,9.166808617E-1,-1.423215798E0,6.587761325E0
1.122365846E1,5.811776263E0,1.181066810E0,-1.234750682E0,6.057744745E0
1.123362546E1,5.042822381E0,1.532787357E0,-3.133131105E-1,5.279929901E0
1.124359146E1,4.013150217E0,1.839190228E0,3.702421868E-1,4.430019710E0
1.125355846E1,2.941823950E0,2.096409245E0,3.183469784E-1,3.626376245E0
1.126352546E1,1.986226944E0,2.254981640E0,2.179350829E-1,3.012894849E0
1.127349146E1,1.067290227E0,2.149195569E0,1.540156603E-1,2.404552109E0
1.128345846E1,1.694616652E-1,1.765260957E0,-4.954177715E-2,1.774068175E0
1.129342546E1,-9.093855831E-1,1.236345218E0,-7.944121472E-1,1.728184682E0
1.130339146E1,-2.067270522E0,5.258634925E-1,-1.898355864E0,2.855502550E0
1.131335846E1,-2.485747561E0,1.765204239E-1,-2.422105004E0,3.475153672E0
1.132332546E1,-1.576982952E0,2.990418112E-1,-2.235993977E0,2.752448056E0
1.133329146E1,2.179786447E-1,4.668954921E-1,-2.298455542E0,2.355505035E0
1.134325846E1,2.108276753E0,-5.053029281E-1,-2.759960632E0,3.509635965E0
1.135322446E1,4.289881977E0,-2.631174538E0,-3.110839180E0,5.916374500E0
1.136319146E1,5.874779427E0,-4.266308634E0,-3.274186411E0,7.964591599E0
1.137315846E1,7.187445427E0,-5.212004550E0,-3.108732428E0,9.406836902E0
1.138312446E1,7.969606415E0,-5.612066367E0,-3.071573665E0,1.021980822E1
1.139309146E1,7.538561372E0,-5.798675576E0,-3.482744899E0,1.012837885E1
1.140305846E1,6.279680400E0,-5.805564181E0,-3.638139333E0,9.293816180E0
1.141302446E1,5.428176112E0,-5.076298276E0,-2.895584460E0,7.976108666E0
1.142299146E1,4.705894121E0,-4.461379935E0,-1.788618829E0,6.726701102E0
1.143295846E1,3.914806481E0,-4.361597199E0,-7.869552661E-1,5.913420204E0
1.144292446E1,2.803154599E0,-4.571434473E0,-4.327413207E-1,5.379865603E0
1.145289146E1,1.182690582E0,-5.036595681E0,-6.246434301E-1,5.211164216E0
1.146285746E1,-7.323239994E-1,-5.498989987E0,-9.155997115E-1,5.622589452E0
1.147282446E1,-2.831540492E0,-5.556365206E0,-1.479956009E0,6.409452835E0
1.148279146E1,-4.588904784E0,-5.406963583E0,-2.375022638E0,7.478905992E0
1.149275746E1,-6.155787256E0,-5.294869536E0,-2.554031637E0,8.511899773E0
1.150272446E1,-7.100364014E0,-4.794266599E0,-9.277589965E-1,8.617476319E0
1.151269146E1,-7.713286700E0,-3.621450210E0,8.479293001E-1,8.563216536E0
1.152265746E1,-7.822397498E0,-2.590684324E0,1.702781703E0,8.414333807E0
1.153262446E1,-7.763966857E0,-1.926407297E0,1.815754588E0,8.202877005E0
1.154259146E1,-7.707768098E0,-1.813093520E0,1.434282238E0,8.046997123E0
1.155255746E1,-7.205734348E0,-2.222978075E0,1.090331618E0,7.619256004E0
1.156252446E1,-6.447588460E0,-2.475699413E0,6.812063245E-1,6.940066757E0
1.157249046E1,-5.410739715E0,-2.349649231E0,-1.027287085E-1,5.899788891E0
1.158245746E1,-4.201891614E0,-1.803202370E0,-2.604899490E-1,4.579878484E0
1.159242446E1,-2.995205812E0,-1.069185601E0,7.947418571E-2,3.181309770E0
1.160239046E1,-1.331595484E0,1.864063114E-1,1.030898033E0,1.694297672E0
1.161235746E1,8.455089913E-1,1.565401372E0,2.101277344E0,2.753313165E0
1.162232446E1,3.025991695E0,2.571737591E0,2.337742546E0,4.608199235E0
1.163229046E1,4.180892508E0,2.998111879E0,1.909986853E0,5.487858123E0
1.164225746E1,4.063544737E0,3.038675183E0,1.381635224E0,5.258788700E0
1.165222446E1,2.965804258E0,3.212766674E0,1.146694246E0,4.520262414E0
1.166219046E1,1.618644509E0,3.776599646E0,1.268297328E0,4.300150351E0
1.167215746E1,3.593723591E-1,4.553754247E0,1.516617028E0,4.813102269E0
1.168212346E1,-3.041736200E-1,4.971162999E0,1.788303664E0,5.291787331E0
1.169209046E1,-6.923574764E-1,5.089879019E0,1.997735726E0,5.511549268E0
1.170205746E1,-1.156877610E0,5.445392069E0,2.536920930E0,6.117730658E0
1.171202346E1,-1.112451635E0,5.708308028E0,3.608040498E0,6.843996305E0
1.172199046E1,-8.632188188E-1,5.984647440E0,4.788096617E0,7.712782956E0
1.173195746E1,-4.438512497E-1,6.612416207E0,5.591079540E0,8.670710608E0
1.174192346E1,-4.927529030E-1,7.338156826E0,5.916209289E0,9.438902657E0
1.175189046E1,-8.141363405E-1,7.696139740E0,5.214725844E0,9.332028210E0
1.176185746E1,-8.094595181E-1,8.269610093E0,1.348771387E0,8.417889288E0
1.177182346E1,-5.981177556E-1,8.594121206E0,1.029762796E0,8.676236256E0
1.178179046E1,-4.255647406E-1,8.416033144E0,1.703453256E0,8.597236313E0
1.179175646E1,-3.833615845E-1,7.626799364E0,9.291956574E-1,7.692752382E0
1.180172346E1,-1.431465635E-1,6.414409019E0,-2.348944641E0,6.832472095E0
1.181169046E1,1.494587789E-1,4.432542052E0,-9.808268639E0,1.076438111E1
1.182165646E1,4.913016533E0,-7.245746845E-1,-1.830712935E1,1.896875654E1
1.183162346E1,1.053992430E1,-1.068701335E1,-1.495587956E1,2.118916213E1
1.184159021E1,4.667017738E0,-1.952200067E1,-4.530748670E0,2.057710495E1
1.185155621E1,-2.914106686E0,-2.272449729E1,6.549384391E-1,2.291994195E1
1.186152321E1,-5.445161689E0,-1.927616969E1,1.342677127E0,2.007543986E1
1.187149021E1,-2.055368515E0,-1.049317230E1,6.663595131E-1,1.071332067E1
1.188145621E1,-5.637651443E-2,-2.465543384E0,1.962270317E0,3.151600750E0
1.189142321E1,-2.269446482E0,8.957010520E-1,3.381856748E0,4.170086663E0
1.190138921E1,-6.741169556E0,-7.516531402E-1,5.239932021E0,8.571186441E0
1.191135621E1,-9.950929592E0,-4.259759753E0,4.056221099E0,1.155938937E1
1.192132321E1,-9.024089193E0,-6.036332148E0,1.682558523E0,1.098646871E1
1.193128921E1,-3.818636741E0,-4.026275754E0,2.162336893E0,5.955550675E0
1.194125621E1,-5.459888779E-1,-2.584586263E-1,4.141104252E0,4.184931199E0
1.195122321E1,-1.834037954E0,2.481733739E0,6.070713776E0,6.810011991E0
1.196118921E1,-4.264148673E0,3.863611477E0,5.707252021E0,8.104516221E0
1.197115621E1,-7.373368759E0,3.761383436E0,4.878034396E0,9.607798487E0
1.198112321E1,-1.030888210E1,1.933899919E0,4.396858249E0,1.137301110E1
1.199108921E1,-1.074431957E1,-9.063418150E-2,3.770579352E0,1.138709297E1
1.200105621E1,-8.989750249E0,-1.019874278E0,2.663669562E0,9.431377875E0
1.201102221E1,-6.610389562E0,-5.939970034E-1,2.058304110E0,6.948863102E0
1.202098921E1,-4.360321045E0,8.311799508E-1,2.517153541E0,5.102873864E0
1.203095621E1,-2.865271325E0,2.042913069E0,3.383304226E0,4.881600256E0
1.204092221E1,-1.908341593E0,2.629294074E0,4.006591687E0,5.158268305E0
1.205088921E1,-1.376006402E0,2.594686158E0,4.240514227E0,5.158270135E0
1.206085621E1,-6.980265713E-1,2.114443227E0,4.218373160E0,4.769987775E0
1.207082221E1,5.614233345E-1,1.180049395E0,3.612564197E0,3.841657560E0
1.208078921E1,1.822477424E0,6.847615778E-2,2.525291988E0,3.114998004E0
1.209075621E1,2.578071295E0,-5.023951077E-1,1.288288812E0,2.925498335E0
1.210072221E1,3.112372612E0,-3.833042818E-1,2.148047760E-2,3.135960277E0
1.211068921E1,3.837196973E0,1.164911538E-1,-7.327135701E-1,3.908263038E0
1.212065521E1,4.359642183E0,6.072087872E-1,-1.310553986E0,4.592682683E0
1.213062221E1,4.817834387E0,9.528605086E-1,-1.383389243E0,5.102277641E0
1.214058921E1,5.133047258E0,1.056601809E0,-1.446354400E0,5.436591081E0
1.215055521E1,4.997238073E0,1.071894032E0,-1.432390079E0,5.307832562E0
1.216052221E1,4.396553316E0,1.220939559E0,-1.161651058E0,4.708482521E0
1.217048921E1,3.936841129E0,1.509487957E0,-9.544258082E-1,4.322985148E0
1.218045521E1,3.788917975E0,1.673618131E0,-7.661431253E-1,4.212347606E0
1.219042221E1,3.573424982E0,1.767510965E0,-3.956389832E-1,4.006244041E0
1.220038921E1,2.917053390E0,1.704237075E0,-3.777769089E-2,3.378616824E0
1.221035521E1,2.137207315E0,1.600360120E0,3.974317396E-1,2.699399861E0
1.222032221E1,1.726820192E0,1.475129718E0,4.299685711E-1,2.311447302E0
1.223028821E1,1.351843222E0,1.364892746E0,-9.954007566E-2,1.923621722E0
1.224025521E1,7.441853687E-1,1.297981303E0,-1.033273757E0,1.818301950E0
1.225022221E1,-1.924318671E-3,1.250403094E0,-2.138931366E0,2.477607513E0
1.226018821E1,-5.595402387E-1,1.147408483E0,-2.720161559E0,3.004814539E0
1.227015521E1,-6.644132674E-1,8.257858944E-1,-2.515347043E0,2.729530744E0
1.228012221E1,-9.038625956E-2,4.060505354E-1,-1.919262584E0,1.963826769E0
1.229008821E1,9.071589634E-1,-8.528164029E-2,-1.817594122E0,2.033189301E0
1.230005521E1,1.892848664E0,-1.610102166E0,-2.097754689E0,3.252057777E0
1.231002221E1,2.873643953E0,-3.412646139E0,-1.897526144E0,4.848153124E0
1.231998821E1,3.554793414E0,-4.400232092E0,-1.231216040E0,5.789170201E0
1.232995521E1,3.995067118E0,-4.619559397E0,-9.573261002E-1,6.182019375E0
1.233992121E1,4.094107256E0,-4.149440335E0,-1.292388295E0,5.970748431E0
1.234988821E1,4.354087036E0,-3.631794519E0,-2.102816185E0,6.047300328E0
1.235985521E1,4.891520121E0,-3.732557833E0,-3.240741507E0,6.954233429E0
1.236982121E1,5.308310530E0,-4.229294590E0,-4.061646731E0,7.909618675E0
1.237978821E1,5.382201794E0,-4.839067966E0,-4.101303132E0,8.318976038E0
1.238975521E1,5.250275745E0,-5.378000570E0,-3.309347473E0,8.212190100E0
1.239972121E1,4.871803018E0,-5.240047211E0,-1.819253561E0,7.382563440E0
1.240968821E1,3.886803581E0,-4.905054964E0,-8.791405678E-1,6.319785947E0
1.241965521E1,2.293931698E0,-5.032588584E0,-1.052697550E0,5.630030428E0
1.242962121E1,6.984306139E-1,-5.036854713E0,-1.865476386E0,5.416429901E0
1.243958821E1,-9.611734951E-1,-4.550104415E0,-2.792362978E0,5.424444274E0
1.244955421E1,-2.402586998E0,-4.196375935E0,-3.233192752E0,5.816831667E0
1.245952121E1,-3.475881438E0,-3.958429341E0,-2.269839415E0,5.736121127E0
1.246948821E1,-4.464972464E0,-3.631312709E0,-3.005550889E-1,5.763049926E0
1.247945421E1,-5.332706283E0,-3.354958094E0,1.331616826E0,6.439464534E0
1.248942121E1,-6.016525290E0,-2.817587866E0,2.729046403E0,7.182274864E0
1.249938821E1,-6.232271175E0,-2.340017112E0,3.662360255E0,7.598010708E0
1.250935421E1,-6.123258026E0,-2.208172340E0,4.029484706E0,7.655524863E0
1.251932121E1,-6.846155729E0,-2.587899295E0,3.296957223E0,8.027265908E0
1.252928821E1,-7.672944421E0,-3.257258137E0,1.247378183E0,8.428508705E0
1.253925421E1,-6.987684660E0,-3.195090541E0,-4.421228859E-1,7.696220703E0
1.254922121E1,-5.191289034E0,-1.845070188E0,-1.208486013E0,5.640408166E0
1.255918821E1,-3.531482027E0,-1.562691772E-1,-7.708056951E-1,3.618000384E0
1.256915421E1,-2.349726706E0,9.802342486E-1,1.537925890E-1,2.550632654E0
1.257912121E1,-8.058353408E-1,2.289172064E0,1.597764687E0,2.905603437E0
1.258908721E1,1.151352722E0,3.557177616E0,2.752130333E0,4.642558245E0
1.259905421E1,2.822407141E0,4.377353107E0,3.306229738E0,6.169145595E0
1.260902121E1,4.268262774E0,4.839246306E0,3.169624747E0,7.189081510E0
1.261898721E1,5.093147027E0,4.865921304E0,2.448640838E0,7.457424403E0
1.262895421E1,4.404530965E0,4.271879277E0,1.500821214E0,6.316748364E0
1.263892121E1,2.468709944E0,3.811940217E0,8.371198449E-1,4.618028436E0
1.264888721E1,7.451693820E-1,3.755453190E0,1.031047430E0,3.965068079E0
1.265885421E1,1.119059135E-1,3.874567990E0,2.008098454E0,4.365462111E0
1.266882021E1,-1.696341580E-1,4.069074449E0,3.153790195E0,5.150974200E0
1.267878721E1,-5.281668569E-1,4.294046071E0,3.976760070E0,5.876428554E0
1.268875421E1,-4.901234832E-1,4.651258907E0,4.816811124E0,6.713873685E0
1.269872021E1,-4.292336491E-1,4.948993281E0,5.539990078E0,7.440985559E0
1.270868721E1,-5.606373225E-1,5.322421616E0,5.737147665E0,7.845849182E0
1.271865421E1,-8.775216930E-1,5.841256755E0,4.625817380E0,7.502566976E0
1.272862021E1,-1.127561864E0,6.530487944E0,1.946903834E0,6.907177650E0
1.273858721E1,-1.118724309E0,6.778746688E0,1.365166980E0,7.004757784E0
1.274855421E1,-1.074868364E0,6.714515609E0,1.804293168E0,7.035306368E0
1.275852021E1,-1.229483364E0,6.368872073E0,1.573697986E0,6.674630041E0
1.276848721E1,-1.295247876E0,5.553938611E0,-5.745307454E-1,5.731839734E0
1.277845421E1,-1.420875450E0,4.002786904E0,-5.949105724E0,7.309791308E0
1.278842021E1,-9.987270914E-1,6.827530593E-1,-1.362386629E1,1.367747565E1
1.279838721E1,4.020202836E0,-7.348812207E0,-1.834430127E1,2.016631996E1
1.280835321E1,5.333184586E0,-1.508863708E1,-1.011561759E1,1.893239409E1
1.281832021E1,-2.654463413E-1,-1.759650904E1,-1.446986776E0,1.765789803E1
1.282828721E1,-3.799939976E0,-1.672477456E1,2.040840815E0,1.727201954E1
1.283825292E1,-1.901477547E0,-1.173786091E1,1.268758381E0,1.195837546E1
1.284821992E1,1.131088319E0,-4.288587111E0,5.623954341E-1,4.470752601E0
1.285818692E1,1.426177705E0,8.789049250E-1,2.117236734E0,2.699842237E0
1.286815292E1,-4.601666625E-1,1.701888834E0,3.817371111E0,4.204818802E0
1.287811992E1,-3.319605829E0,-6.514002889E-1,5.483867333E0,6.443361399E0
1.288808692E1,-5.741883910E0,-3.599041341E0,5.048851445E0,8.450634907E0
1.289805292E1,-6.985773790E0,-6.136983780E0,3.088005218E0,9.797927413E0
1.290801992E1,-6.332949119E0,-6.486756034E0,1.934431431E0,9.269642569E0
1.291798592E1,-4.726854635E0,-3.694424631E0,8.519410747E-1,6.059515797E0
1.292795292E1,-5.215395935E0,7.783269686E-1,9.294783702E-1,5.354444664E0
1.293791992E1,-7.194982488E0,3.236898717E0,2.381218056E0,8.241085228E0
1.294788592E1,-9.353705510E0,3.556414554E0,4.558159247E0,1.099621330E1
1.295785292E1,-1.052526182E1,2.755968153E0,4.590873542E0,1.180900575E1
1.296781992E1,-9.606030992E0,2.075565090E0,3.888490795E0,1.056901900E1
1.297778592E1,-7.769949144E0,1.959499614E0,3.506164752E0,8.746710221E0
1.298775292E1,-6.067106044E0,2.332324516E0,3.550452148E0,7.406431250E0
1.299771992E1,-4.569659259E0,3.116063082E0,3.929195602E0,6.784556946E0
1.300768592E1,-3.474062954E0,3.920292047E0,3.881356315E0,6.519411782E0
1.301765292E1,-2.455090317E0,4.215303372E0,3.378904781E0,5.934075202E0
1.302761892E1,-1.753158098E0,3.864321329E0,3.032756631E0,5.215760293E0
1.303758592E1,-1.219990994E0,2.897762548E0,2.667876341E0,4.123465773E0
1.304755292E1,-3.889708185E-1,1.060476174E0,2.071490896E0,2.359445390E0
1.305751892E1,5.720325226E-1,-6.438187891E-1,1.492297289E0,1.722984341E0
1.306748592E1,1.849188090E0,-1.515810551E0,1.044914979E0,2.609410955E0
1.307745292E1,3.284515226E0,-1.858996502E0,2.290553176E-1,3.781054694E0
1.308741892E1,4.633160605E0,-1.879969879E0,-3.491677983E-1,5.012223269E0
1.309738592E1,5.504513851E0,-1.631964321E0,-5.673062912E-1,5.769299499E0
1.310735292E1,6.136725917E0,-1.172759671E0,-8.144562563E-1,6.300643556E0
1.311731892E1,6.099181530E0,-5.569239020E-1,-1.200685973E0,6.241139830E0
1.312728592E1,5.991443658E0,1.908595508E-1,-1.359333798E0,6.146674943E0
1.313725192E1,5.937896027E0,1.013703126E0,-1.523210202E0,6.213402657E0
1.314721892E1,5.572247413E0,1.936631738E0,-1.553049713E0,6.100200581E0
1.315718592E1,4.988900528E0,2.683660315E0,-1.158557954E0,5.782163756E0
1.316715192E1,3.885478894E0,2.905305457E0,-5.123248494E-1,4.878547200E0
1.317711892E1,2.774234855E0,2.808291378E0,2.274309611E-1,3.954061752E0
1.318708592E1,1.837641593E0,2.544646856E0,5.006222320E-1,3.178486568E0
1.319705192E1,8.722507936E-1,2.041089322E0,4.170602578E-1,2.258496475E0
1.320701892E1,-8.017205089E-2,1.205910460E0,-6.204074878E-2,1.210163894E0
1.321698592E1,-1.072064770E0,2.991967624E-1,-1.000904083E0,1.496880275E0
1.322695192E1,-1.787467805E0,-3.826932478E-1,-2.164934519E0,2.833449620E0
1.323691892E1,-1.898920705E0,-5.247677243E-1,-2.743933414E0,3.377935996E0
1.324688492E1,-1.399174971E0,6.785986125E-2,-2.580846968E0,2.936505855E0
1.325685192E1,-2.094183210E-1,6.168315500E-1,-2.004203331E0,2.107407931E0
1.326681892E1,1.272535682E0,3.187258780E-1,-1.531980441E0,2.016902903E0
1.327678492E1,2.630088418E0,-1.015875952E0,-1.602810834E0,3.243203910E0
1.328675192E1,3.790531514E0,-2.724137081E0,-1.800961132E0,5.003250243E0
1.329671892E1,4.509605430E0,-3.898959065E0,-1.836237969E0,6.237803524E0
1.330668492E1,4.978971956E0,-4.056236302E0,-1.862087778E0,6.686597458E0
1.331665192E1,5.260304305E0,-3.436047866E0,-2.184817830E0,6.652116600E0
1.332661892E1,5.629602166E0,-3.054604753E0,-2.934625150E0,7.045215080E0
1.333658492E1,6.250610383E0,-2.867259378E0,-3.620400635E0,7.771654087E0
1.334655192E1,6.722723930E0,-3.021324155E0,-3.950533261E0,8.362423676E0
1.335651792E1,6.604880315E0,-3.790624192E0,-3.766157103E0,8.495717455E0
1.336648492E1,5.978284500E0,-4.876726958E0,-3.100824069E0,8.314893943E0
1.337645192E1,4.684957873E0,-5.667295657E0,-1.690685130E0,7.544898048E0
1.338641792E1,2.784145009E0,-5.889714385E0,-1.776335876E-1,6.517035573E0
1.339638492E1,5.473306677E-1,-5.835317738E0,4.445145433E-1,5.877762937E0
1.340635192E1,-1.817093308E0,-5.877237012E0,9.834665895E-2,6.152512905E0
1.341631792E1,-3.883813607E0,-5.795695251E0,-8.093851123E-1,7.023474627E0
1.342628492E1,-5.796165951E0,-5.300487540E0,-2.058994812E0,8.119739376E0
1.343625192E1,-7.882848938E0,-4.593862054E0,-3.562964605E0,9.794773745E0
1.344621792E1,-8.896895295E0,-3.581102083E0,-3.929738808E0,1.036445296E1
1.345618492E1,-8.767222179E0,-2.515670979E0,-2.396283115E0,9.430533281E0
1.346615192E1,-8.346544248E0,-1.755645795E0,1.425106788E-1,8.530381137E0
1.347611792E1,-7.733612791E0,-1.127097010E0,2.422783281E0,8.182236449E0
1.348608492E1,-6.978028568E0,-8.303899920E-1,3.277937400E0,7.754179765E0
1.349605092E1,-6.054171419E0,-5.233252162E-1,3.831552948E0,7.183847078E0
1.350601792E1,-5.157918389E0,-3.197818851E-1,3.930590748E0,6.492759521E0
1.351598492E1,-4.307458999E0,-5.493266147E-1,3.243977941E0,5.420272654E0
1.352595092E1,-3.052102437E0,-8.949064153E-1,1.924098816E0,3.717303193E0
1.353591792E1,-1.886813314E0,-8.305841196E-1,5.720705295E-1,2.139438981E0
1.354588492E1,-1.041048946E0,-4.013973212E-1,-2.409719431E-1,1.141477199E0
1.355585092E1,-2.992531881E-1,2.001203710E-1,-8.271924421E-2,3.693820608E-1
1.356581792E1,1.258345951E0,1.252827349E0,7.435638097E-1,1.925070918E0
1.357578492E1,2.640002080E0,2.121309612E0,1.020039462E0,3.536954333E0
1.358575092E1,3.876255204E0,2.795183090E0,1.515515559E0,5.013500805E0
1.359571792E1,4.605828381E0,3.197535262E0,2.408262013E0,6.102262920E0
1.360568392E1,4.242340313E0,3.188859748E0,2.428486655E0,5.836422299E0
1.361565092E1,2.644281657E0,3.086073883E0,2.182073877E0,4.612756648E0
1.362561792E1,1.141382927E0,3.426030416E0,2.271874246E0,4.266362852E0
1.363558392E1,2.866294149E-1,3.980830024E0,2.232829171E0,4.573258162E0
1.364555092E1,-6.656981930E-3,4.390706978E0,2.450380092E0,5.028191989E0
1.365551792E1,-4.861611175E-1,4.738786463E0,2.900737904E0,5.577340779E0
1.366548392E1,-8.454082000E-1,5.016327478E0,3.650331362E0,6.261243921E0
1.367545092E1,-9.407906860E-1,5.120816637E0,4.170271626E0,6.670758246E0
1.368541792E1,-1.000574300E0,5.247707064E0,4.505182596E0,6.988293682E0
1.369538392E1,-1.083260434E0,5.617227119E0,4.465909480E0,7.257481737E0
1.370535092E1,-1.444851665E0,6.112491547E0,3.762849918E0,7.321829605E0
1.371531692E1,-1.597583862E0,6.497758740E0,3.466861523E0,7.536064732E0
1.372528392E1,-1.389321536E0,6.724734203E0,3.433394692E0,7.677269276E0
1.373525092E1,-1.138818485E0,6.627255855E0,3.159109114E0,7.429495145E0
1.374521692E1,-1.129122047E0,6.068310571E0,1.664340938E0,6.392913306E0
1.375518392E1,-1.325260610E0,5.046600267E0,-1.432387741E0,5.410750834E0
1.376515092E1,-1.892301657E0,3.279719047E0,-7.472934562E0,8.377476563E0
1.377511692E1,1.459315630E0,-1.550002145E0,-1.614563475E1,1.628538087E1
1.378508392E1,8.193449525E0,-1.124374780E1,-1.726656937E1,2.217405912E1
1.379505092E1,5.506011908E0,-1.763414055E1,-8.094963702E0,2.016946994E1
1.380501692E1,-1.169238478E0,-1.737759514E1,-3.866190684E-1,1.742117693E1
1.381498392E1,-3.503194951E0,-1.431287061E1,1.782590350E0,1.484278506E1
1.382494992E1,-5.054561251E-1,-8.356285125E0,1.377676513E0,8.484160510E0
1.383491692E1,1.975520546E0,-1.852736472E0,1.208095272E0,2.965604163E0
1.384488417E1,1.270052662E0,2.144846994E0,2.104085177E0,3.261989703E0
1.385485017E1,-1.245447286E0,2.564442020E0,2.807893475E0,4.001470678E0
1.386481717E1,-3.978045873E0,3.196088076E-2,3.071007947E0,5.025630336E0
1.387478417E1,-6.280776168E0,-3.223446613E0,2.193821518E0,7.392672737E0
1.388475017E1,-7.020722013E0,-5.792476943E0,7.340267086E-1,9.131381162E0
1.389471717E1,-5.323751273E0,-5.388999767E0,1.714244877E0,7.766742020E0
1.390468417E1,-3.791297207E0,-3.034894373E0,3.093446344E0,5.757944829E0
1.391465017E1,-4.352139913E0,-2.070434743E-1,4.119121645E0,5.995927947E0
1.392461717E1,-5.966043354E0,1.332351821E0,4.181042197E0,7.406075109E0
1.393458417E1,-6.794171058E0,1.883460667E0,4.161732059E0,8.187075069E0
1.394455017E1,-6.964884027E0,1.974229919E0,3.673846233E0,8.118148769E0
1.395451717E1,-6.746713302E0,1.522947078E0,2.842417775E0,7.477756815E0
1.396448317E1,-5.994102387E0,1.231503723E0,2.330629700E0,6.548106570E0
1.397445017E1,-5.129058287E0,1.449023069E0,1.887007296E0,5.653998877E0
1.398441717E1,-4.458736701E0,2.153845274E0,2.039378280E0,5.355226065E0
1.399438317E1,-3.801300916E0,2.811410868E0,2.793418400E0,5.491548605E0
1.400435017E1,-2.911208805E0,3.280103794E0,3.013464328E0,5.321201449E0
1.401431717E1,-2.085926795E0,3.459536131E0,3.026794810E0,5.047867635E0
1.402428317E1,-1.254775934E0,3.129158506E0,3.104153473E0,4.582779112E0
1.403425017E1,-3.152464923E-1,2.142623298E0,2.735593238E0,3.489080869E0
1.404421717E1,5.055666375E-1,7.946091253E-1,1.999195776E0,2.209928740E0
1.405418317E1,1.135549453E0,-3.568216574E-1,1.284689558E0,1.751348485E0
1.406415017E1,1.917583556E0,-8.662878031E-1,7.896385534E-1,2.247467530E0
1.407411617E1,2.933329407E0,-8.483994162E-1,3.282148857E-1,3.071144411E0
1.408408317E1,3.864269289E0,-7.835777682E-1,-3.449636503E-1,3.957975641E0
1.409405017E1,4.576320407E0,-6.232453609E-1,-6.245211502E-1,4.660597592E0
1.410401617E1,5.315848761E0,-3.982117581E-1,-9.212614974E-1,5.409763710E0
1.411398317E1,5.868705339E0,-8.239253104E-2,-1.233163748E0,5.997431427E0
1.412395017E1,5.974269801E0,3.854513794E-1,-1.241379086E0,6.114040764E0
1.413391617E1,5.498730370E0,7.846910781E-1,-1.165538287E0,5.675407939E0
1.414388317E1,4.899411816E0,1.142657036E0,-9.560946035E-1,5.120939185E0
1.415385017E1,4.414734064E0,1.378052489E0,-4.296218312E-1,4.644726088E0
1.416381617E1,3.824984478E0,1.431065100E0,-1.672669128E-4,4.083926249E0
1.417378317E1,3.219607331E0,1.541311428E0,2.413402995E-1,3.577674863E0
1.418375017E1,2.473183648E0,1.702603948E0,3.849502730E-1,3.027157788E0
1.419371617E1,1.654801206E0,1.680978606E0,4.360508448E-1,2.398790621E0
1.420368317E1,8.842092267E-1,1.530637920E0,2.390131259E-1,1.783761664E0
1.421364917E1,2.374706304E-1,1.321853145E0,-3.256559980E-1,1.381933380E0
1.422361617E1,-4.756420496E-1,1.016782855E0,-1.191633314E0,1.637092755E0
1.423358317E1,-1.133776869E0,6.261941117E-1,-2.002077284E0,2.384508860E0
1.424354917E1,-1.349883820E0,5.665659606E-1,-2.377772584E0,2.792308324E0
1.425351617E1,-7.404077750E-1,7.446312189E-1,-2.193223933E0,2.431647702E0
1.426348317E1,7.190286005E-1,7.502375293E-1,-1.531271174E0,1.850580959E0
1.427344917E1,2.230799895E0,-2.166276455E-2,-1.632766559E0,2.764573038E0
1.428341617E1,3.701345980E0,-2.003635567E0,-2.272744896E0,4.783292476E0
1.429338317E1,4.841905620E0,-3.898480178E0,-2.564312212E0,6.724425243E0
1.430334917E1,5.599139342E0,-4.947316884E0,-2.411299934E0,7.851157437E0
1.431331617E1,6.228705543E0,-5.128042626E0,-2.324460449E0,8.396231911E0
1.432328217E1,6.518358480E0,-4.653475002E0,-2.508287115E0,8.392575953E0
1.433324917E1,6.514690522E0,-3.959795251E0,-2.865040945E0,8.144300500E0
1.434321617E1,6.216151571E0,-3.809932868E0,-3.151979020E0,7.942990656E0
1.435318217E1,5.788037152E0,-4.140479477E0,-2.785336964E0,7.642188586E0
1.436314917E1,4.786131661E0,-4.485292123E0,-1.937996478E0,6.839644146E0
1.437311617E1,3.663398135E0,-4.291996037E0,-9.976823401E-1,5.730365253E0
1.438308217E1,2.611476146E0,-3.909963525E0,-1.627274269E-1,4.704689431E0
1.439304917E1,1.112941193E0,-3.962125951E0,-1.360741369E-1,4.117717368E0
1.440301617E1,-7.408416384E-1,-4.191560168E0,-7.516923896E-1,4.322391054E0
1.441298217E1,-2.904877733E0,-4.600016833E0,-1.964625283E0,5.784308257E0
1.442294917E1,-5.290793442E0,-4.824804268E0,-3.298260568E0,7.883511542E0
1.443291517E1,-7.139536266E0,-4.768666905E0,-3.380343781E0,9.227127734E0
1.444288217E1,-7.682427435E0,-4.279590000E0,-1.795906799E0,8.975514642E0
1.445284917E1,-7.776948845E0,-3.421297095E0,4.486942792E-1,8.508086372E0
1.446281517E1,-7.912180910E0,-2.585804238E0,2.432421831E0,8.672120056E0
1.447278217E1,-8.030649008E0,-2.046317317E0,3.321093360E0,8.927956046E0
1.448274917E1,-7.999472823E0,-1.600687564E0,3.524912095E0,8.887000135E0
1.449271517E1,-8.236800197E0,-1.432535675E0,2.575580381E0,8.748179825E0
1.450268217E1,-8.032108473E0,-1.904251612E0,1.315220210E0,8.358872228E0
1.451264917E1,-6.769978203E0,-2.220495932E0,4.729356658E-1,7.140509449E0
1.452261517E1,-5.228953874E0,-1.897170049E0,-5.445359910E-1,5.589072575E0
1.453258217E1,-3.602190651E0,-1.118360685E0,-8.945887654E-1,3.876441302E0
1.454254917E1,-2.390245426E0,-4.066744334E-1,-4.099199304E-1,2.459002163E0
1.455251517E1,-1.084110912E0,4.252481139E-1,8.063860023E-1,1.416471254E0
1.456248217E1,8.994615425E-1,1.651195813E0,2.154421956E0,2.859547629E0
1.457244817E1,2.827753251E0,2.772529807E0,2.707720438E0,4.797380530E0
1.458241517E1,4.813444882E0,3.617023868E0,2.895935293E0,6.681209061E0
1.459238217E1,5.693051473E0,4.104550676E0,2.579922816E0,7.477578021E0
1.460234817E1,4.898445856E0,4.316582410E0,1.499904370E0,6.699057294E0
1.461231517E1,3.232727021E0,4.197944158E0,7.682282424E-1,5.353824220E0
1.462228217E1,1.684153644E0,4.115696638E0,1.176987500E0,4.600068683E0
1.463224817E1,8.480781117E-1,4.581035601E0,1.788101351E0,4.990233472E0
1.464221517E1,5.085451361E-1,5.254194549E0,2.290817471E0,5.754391645E0
1.465218217E1,4.877355534E-1,5.818633293E0,2.906820762E0,6.522575129E0
1.466214817E1,1.885762862E-1,6.249064379E0,3.592731611E0,7.210692550E0
1.467211517E1,-2.901460035E-1,6.467564887E0,4.132849738E0,7.680756944E0
1.468208117E1,-5.776739893E-1,6.512925248E0,4.488634099E0,7.930935543E0
1.469204817E1,-7.519845311E-1,6.517442222E0,4.688095489E0,8.063545942E0
1.470201517E1,-8.260347665E-1,6.552441316E0,4.628931899E0,8.064975583E0
1.471198117E1,-8.184026152E-1,6.454313927E0,4.064939298E0,7.671485033E0
1.472194817E1,-7.953786919E-1,6.183526447E0,2.667675782E0,6.781232975E0
1.473191517E1,-6.707307453E-1,5.667148308E0,6.785638216E-1,5.746903386E0
1.474188117E1,-8.502274020E-1,4.715904554E0,-1.148743695E0,4.927702758E0
1.475184817E1,-1.170815180E0,3.275579218E0,-3.448953255E0,4.898520793E0
1.476181517E1,-1.276878701E0,1.121513504E-1,-8.554329150E0,8.649829151E0
1.477178117E1,3.149375547E0,-6.595097339E0,-1.524660897E1,1.690777810E1
1.478174817E1,9.224245816E0,-1.466084075E1,-1.339822458E1,2.189838771E1
1.479171417E1,2.649337744E0,-1.867559983E1,-5.002674229E0,1.951470648E1
1.480168117E1,-4.195624568E0,-1.753518695E1,-6.846399558E-1,1.804313661E1
1.481164817E1,-3.440167229E0,-1.279204724E1,-3.210586247E-1,1.325044534E1
1.482161417E1,1.259035631E-1,-5.343398502E0,-2.785262704E-1,5.352133793E0
1.483158117E1,1.404483950E0,8.827061999E-1,4.120348683E-1,1.709244902E0
1.484154767E1,6.234738408E-1,4.147164599E0,1.985049315E0,4.639839935E0
1.485151367E1,-1.447992497E0,4.560607769E0,2.520181521E0,5.408062536E0
1.486148067E1,-3.505840816E0,2.271158547E0,3.662161742E0,5.555223632E0
1.487144767E1,-4.824684400E0,-6.119421083E-1,3.700818561E0,6.111310066E0
1.488141367E1,-5.668579706E0,-3.109912981E0,2.821661621E0,7.054511247E0
1.489138067E1,-5.168778423E0,-3.895443719E0,3.875700303E0,7.543991317E0
1.490134767E1,-4.022568035E0,-2.998908269E0,3.986096904E0,6.408078724E0
1.491131367E1,-4.464947906E0,-8.994918019E-1,3.948120115E0,6.027644461E0
1.492128067E1,-6.521380906E0,1.023979023E0,3.483797106E0,7.464166681E0
1.493124667E1,-8.789490130E0,1.432067313E0,3.390475252E0,9.528970352E0
1.494121367E1,-1.036643507E1,5.767787075E-1,3.385827008E0,1.092059863E1
1.495118067E1,-9.831745795E0,-4.020533788E-1,3.432861426E0,1.042158385E1
1.496114667E1,-7.976417837E0,-6.482942480E-1,2.943428718E0,8.526857543E0
1.497111367E1,-6.258773096E0,7.863569498E-2,2.711303320E0,6.821260142E0
1.498108067E1,-5.099280757E0,1.352820584E0,3.018330089E0,6.078083933E0
1.499104667E1,-4.353150019E0,2.636549883E0,3.386232220E0,6.112927206E0
1.500101367E1,-3.517740485E0,3.358864034E0,3.497503564E0,5.990742600E0
1.501098067E1,-2.536101151E0,3.491647870E0,3.550143708E0,5.588106499E0
1.502094667E1,-1.607187183E0,3.086303678E0,3.606201257E0,5.011288112E0
1.503091367E1,-7.155229023E-1,1.707662959E0,3.165287282E0,3.667032777E0
1.504087967E1,1.049747702E-1,-2.779783863E-1,2.332847403E0,2.351694855E0
1.505084667E1,1.275630613E0,-1.783453399E0,1.452437843E0,2.630116951E0
1.506081367E1,2.784910117E0,-2.464432413E0,7.270087342E-1,3.789154678E0
1.507077967E1,4.511666574E0,-2.617059944E0,1.651136756E-2,5.215784759E0
1.508074667E1,6.045668398E0,-2.458914396E0,-8.514001342E-1,6.581887918E0
1.509071367E1,7.014918652E0,-1.874201601E0,-1.589218251E0,7.432854766E0
1.510067967E1,7.248062927E0,-9.577692461E-1,-1.958492138E0,7.568845987E0
1.511064667E1,6.761940036E0,1.238615692E-2,-2.094863241E0,7.079013947E0
1.512061367E1,5.966566679E0,9.118036991E-1,-1.979680109E0,6.352199403E0
1.513057967E1,5.237312468E0,1.498308080E0,-1.812507044E0,5.741040914E0
1.514054667E1,4.641200527E0,1.951570204E0,-1.259475049E0,5.189956261E0
1.515051367E1,4.048856531E0,2.071983671E0,-6.013498040E-1,4.587807443E0
1.516047967E1,3.282699080E0,2.074006222E0,-1.664877713E-1,3.886558020E0
1.517044667E1,2.558354191E0,2.098394959E0,3.754263282E-2,3.309055307E0
1.518041267E1,2.027508287E0,2.100873009E0,3.534349501E-1,2.940981727E0
1.519037967E1,1.566537778E0,1.967599177E0,8.465423405E-1,2.653699505E0
1.520034667E1,1.343424986E0,1.769718874E0,7.469361913E-1,2.344058288E0
1.521031267E1,1.169743970E0,1.316174330E0,5.635603091E-2,1.761758162E0
1.522027967E1,9.860598296E-1,6.177969253E-1,-8.565539432E-1,1.444877741E0
1.523024667E1,9.854148817E-1,3.720548236E-1,-1.811427063E0,2.095408143E0
1.524021267E1,1.550923958E0,5.848893803E-1,-2.331142209E0,2.860364436E0
1.525017967E1,2.739812881E0,6.473668796E-1,-2.589492661E0,3.825066110E0
1.526014667E1,3.941910372E0,-8.872038782E-2,-2.651373745E0,4.751453612E0
1.527011267E1,4.659925358E0,-1.459645121E0,-2.337826746E0,5.413954388E0
1.528007967E1,4.787673864E0,-2.592391126E0,-1.756862601E0,5.720915921E0
1.529004567E1,4.564455529E0,-3.352516882E0,-1.358305857E0,5.823969310E0
1.530001267E1,4.213725209E0,-3.763601870E0,-1.324478838E0,5.802966772E0
1.530997967E1,3.845645322E0,-3.885420422E0,-1.630042925E0,5.704605134E0
1.531994567E1,3.694332245E0,-3.946077683E0,-1.956821589E0,5.748806011E0
1.532991267E1,3.894980035E0,-4.208325890E0,-2.210920385E0,6.145652546E0
1.533987967E1,4.123390112E0,-4.821277812E0,-2.586272600E0,6.850975968E0
1.534984567E1,4.082622155E0,-6.019484566E0,-3.388686004E0,8.024038318E0
1.535981267E1,4.063875105E0,-6.711983764E0,-3.554121276E0,8.613802004E0
1.536977967E1,3.586773298E0,-6.341314146E0,-2.762579600E0,7.791601494E0
1.537974567E1,2.425091761E0,-5.771369079E0,-1.993074326E0,6.569788153E0
1.538971267E1,8.610440201E-1,-5.374688122E0,-1.632764804E0,5.682832931E0
1.539967967E1,-7.674414995E-1,-5.140804759E0,-1.524372044E0,5.416691809E0
1.540964567E1,-2.170140880E0,-4.825978974E0,-1.453963382E0,5.487585444E0
1.541961267E1,-3.232776430E0,-4.435962088E0,-8.852772206E-1,5.559884788E0
1.542957867E1,-3.872943048E0,-4.259222978E0,2.008653063E-1,5.760296443E0
1.543954567E1,-4.581819128E0,-3.641816647E0,1.445753306E0,6.028772482E0
1.544951267E1,-5.599142266E0,-2.710937576E0,2.501417806E0,6.704973355E0
1.545947867E1,-6.459032046E0,-1.879657638E0,3.173966889E0,7.438163323E0
1.546944567E1,-6.974993278E0,-1.295861102E0,3.482271860E0,7.902911143E0
1.547941267E1,-7.347564411E0,-1.151589242E0,3.473125645E0,8.208255741E0
1.548937867E1,-8.191531638E0,-1.337070524E0,2.730647371E0,8.737584519E0
1.549934567E1,-8.870493947E0,-1.680595613E0,9.976542735E-1,9.083247136E0
1.550931267E1,-8.172197819E0,-1.552787173E0,-2.726145892E-1,8.322877142E0
1.551927867E1,-6.794264029E0,-8.249058884E-1,-5.332828782E-1,6.864902333E0
1.552924567E1,-5.193439055E0,3.529572326E-1,-1.960739516E-1,5.209110579E0
1.553921167E1,-3.627200362E0,1.382291136E0,5.017402196E-1,3.913956374E0
1.554917867E1,-1.536967970E0,2.749200001E0,1.663798463E0,3.562105629E0
1.555914567E1,7.154495198E-1,3.845255313E0,2.353094264E0,4.564527254E0
1.556911167E1,3.482611583E0,4.669935499E0,3.111679717E0,6.604500864E0
1.557907867E1,5.785282529E0,4.749022599E0,2.856953076E0,8.011547320E0
1.558904567E1,6.210867442E0,4.195030491E0,1.788288754E0,7.705266502E0
1.559901167E1,4.755881675E0,3.475333554E0,1.031854930E0,5.980056723E0
1.560897867E1,2.646644809E0,3.251368822E0,8.189659944E-1,4.271631218E0
1.561894567E1,1.721234639E0,3.399764723E0,1.191241843E0,3.992506228E0
1.562891167E1,1.310710837E0,3.569682471E0,1.848923211E0,4.228370003E0
1.563887867E1,8.741957237E-1,3.779647214E0,2.536554894E0,4.635090286E0
1.564884567E1,2.793366214E-1,4.127011001E0,3.235105376E0,5.251300367E0
1.565881167E1,-7.835692897E-2,4.568610268E0,3.566403645E0,5.796341480E0
1.566877867E1,-6.475528210E-2,5.037267526E0,3.488740342E0,6.127770113E0
1.567874467E1,-1.612328055E-1,5.442746204E0,3.358957882E0,6.397818403E0
1.568871167E1,-6.269363426E-1,5.596903367E0,3.641295075E0,6.706519686E0
1.569867867E1,-1.033947064E0,5.494701054E0,3.781668305E0,6.749948249E0
1.570864467E1,-1.224968144E0,5.474756786E0,3.445392593E0,6.583634175E0
1.571861167E1,-1.219324485E0,5.661336175E0,3.089170568E0,6.563570239E0
1.572857867E1,-1.355355645E0,5.522828500E0,1.868319010E0,5.985753043E0
1.573854467E1,-1.828798995E0,4.828116131E0,-6.227693975E-2,5.163244092E0
1.574851167E1,-2.098204486E0,3.866337449E0,-2.850171475E0,5.241612803E0
1.575847867E1,-2.268678743E0,2.261446906E0,-8.560893234E0,9.140565536E0
1.576844467E1,7.883121125E-1,-2.248760203E0,-1.598432293E1,1.616096959E1
1.577841167E1,8.239128558E0,-1.111927345E1,-1.414996718E1,1.979249991E1
1.578837867E1,5.122296567E0,-1.653265844E1,-4.333283519E0,1.784219895E1
1.579834467E1,-1.789640192E0,-1.670308607E1,1.253455048E0,1.684538648E1
1.580831167E1,-2.970421804E0,-1.361245136E1,1.052681835E0,1.397248642E1
1.581827767E1,4.090681373E-1,-8.009544067E0,2.497375041E-2,8.020022232E0
1.582824467E1,2.161448994E0,-2.273967549E0,1.038616066E0,3.304771323E0
1.583821167E1,8.709815092E-1,5.292513692E-1,2.238806195E0,2.459871741E0
1.584817796E1,-2.121313998E0,-4.039964086E-1,3.102101393E0,3.779711527E0
1.585814496E1,-5.242420011E0,-2.630248924E0,4.087188246E0,7.148865975E0
1.586811196E1,-7.562988700E0,-4.863091251E0,3.432888615E0,9.624613178E0
1.587807796E1,-8.036226082E0,-5.606948884E0,3.052255634E0,1.026328748E1
1.588804496E1,-6.255165948E0,-3.675551573E0,3.215519250E0,7.935763634E0
1.589801196E1,-4.761628319E0,1.194124228E-1,3.693071878E0,6.027117343E0
1.590797796E1,-4.981779789E0,3.227732037E0,3.618597646E0,6.952023654E0
1.591794496E1,-6.794171058E0,4.023657956E0,3.611681559E0,8.683019486E0
1.592791196E1,-8.711595862E0,3.431023938E0,4.030925460E0,1.019373277E1
1.593787796E1,-9.163890857E0,2.587166639E0,3.707415682E0,1.021837844E1
1.594784496E1,-7.948738872E0,2.038130631E0,3.187695859E0,8.803285240E0
1.595781096E1,-6.037002239E0,1.949862233E0,2.673908037E0,6.884558298E0
1.596777796E1,-4.363650742E0,2.480097688E0,2.226991603E0,5.491067650E0
1.597774496E1,-2.967098539E0,3.127185656E0,1.860661350E0,4.695212937E0
1.598771096E1,-1.843014015E0,3.496194665E0,1.688260728E0,4.297708934E0
1.599767796E1,-1.026629566E0,3.314599442E0,1.458111981E0,3.763858164E0
1.600764496E1,-2.187993014E-1,2.530275570E0,1.437222365E0,2.918180207E0
1.601761096E1,8.378913850E-1,1.344401178E0,1.591135114E0,2.245258883E0
1.602757796E1,1.894848120E0,1.642705071E-1,1.647347614E0,2.516185279E0
1.603754496E1,3.199384151E0,-7.080358350E-1,1.539481834E0,3.620411304E0
1.604751096E1,4.715111672E0,-1.453347085E0,6.012315441E-1,4.970510557E0
1.605747796E1,5.815101575E0,-1.863169659E0,-6.288119832E-1,6.138583877E0
1.606744396E1,6.563539331E0,-1.714986012E0,-1.519932253E0,6.952080237E0
1.607741096E1,6.657604659E0,-1.144278468E0,-1.902330801E0,7.017972320E0
1.608737796E1,6.364445146E0,-3.214015639E-1,-1.736965696E0,6.605036776E0
1.609734396E1,5.811186279E0,6.215490836E-1,-1.370517182E0,6.002876525E0
1.610731096E1,5.086877643E0,1.488805186E0,-1.101001471E0,5.413415675E0
1.611727796E1,4.106807993E0,2.014616053E0,-6.924155831E-1,4.626444539E0
1.612724396E1,3.121632555E0,2.181811922E0,-1.270202533E-1,3.810646562E0
1.613721096E1,2.428385206E0,2.207233277E0,3.625437427E-1,3.301571052E0
1.614717796E1,1.843512197E0,2.227635967E0,5.690562898E-1,2.946985626E0
1.615714396E1,1.168588560E0,2.079569848E0,6.040951449E-1,2.460719594E0
1.616711096E1,4.361265662E-1,1.849097165E0,7.017301977E-1,2.025288123E0
1.617707796E1,-1.871825293E-1,1.659069673E0,8.846872365E-1,1.889502841E0
1.618704396E1,-4.766898707E-1,1.616476216E0,6.085325237E-1,1.791798097E0
1.619701096E1,-1.049524339E0,1.266967671E0,-5.296986812E-1,1.728377595E0
1.620697696E1,-1.810068170E0,5.272223854E-1,-2.045480581E0,2.781780191E0
1.621694396E1,-2.028064357E0,3.308401394E-1,-3.366237373E0,3.943862864E0
1.622691096E1,-1.686171226E0,7.563923085E-1,-4.016003950E0,4.420813325E0
1.623687696E1,-8.213861570E-1,8.715502971E-1,-4.042986512E0,4.216635516E0
1.624684396E1,6.832582587E-1,9.446644664E-2,-3.819318818E0,3.881103193E0
1.625681096E1,2.528084325E0,-1.601951732E0,-3.336589651E0,4.482219340E0
1.626677696E1,4.154163716E0,-3.414331892E0,-2.846512288E0,6.084190221E0
1.627674396E1,5.560518483E0,-5.038084382E0,-2.386531274E0,7.873829536E0
1.628671096E1,6.491648984E0,-6.044645135E0,-1.939113881E0,9.079614748E0
1.629667696E1,6.843813919E0,-6.311274660E0,-1.636084415E0,9.452340927E0
1.630664396E1,6.398084178E0,-5.869172532E0,-1.705300684E0,8.848204212E0
1.631661096E1,5.734457946E0,-5.048819870E0,-1.814503284E0,7.852834659E0
1.632657696E1,4.829196404E0,-4.599022806E0,-1.511199583E0,6.837826618E0
1.633654396E1,3.844137033E0,-4.605721377E0,-1.210410624E0,6.120061503E0
1.634650996E1,3.349563161E0,-4.758389254E0,-1.421440583E0,5.990186557E0
1.635647696E1,3.026545134E0,-4.774848581E0,-1.462946459E0,5.839466308E0
1.636644396E1,1.886217045E0,-4.140629166E0,-1.304092813E0,4.733210611E0
1.637640996E1,6.226466060E-2,-3.649922057E0,-1.900352104E0,4.115476404E0
1.638637696E1,-1.598089354E0,-3.363522511E0,-3.272828688E0,4.957678982E0
1.639634396E1,-3.028343738E0,-3.166546188E0,-4.638240082E0,6.380529101E0
1.640630996E1,-4.105740584E0,-2.849496122E0,-4.835944383E0,6.954357768E0
1.641627696E1,-5.111820695E0,-2.916135085E0,-2.524065242E0,6.403550578E0
1.642624396E1,-5.879886970E0,-2.772430989E0,6.357654190E-1,6.531741118E0
1.643620996E1,-6.587945609E0,-2.679298877E0,2.907751347E0,7.683403394E0
1.644617696E1,-7.014773641E0,-2.891524154E0,3.719769387E0,8.450126949E0
1.645614396E1,-7.229453579E0,-2.892345688E0,3.838927456E0,8.681476063E0
1.646610996E1,-7.792294278E0,-2.751188055E0,3.282377776E0,8.891731535E0
