"Time (s)","Linear Acceleration x (m/s^2)","Linear Acceleration y (m/s^2)","Linear Acceleration z (m/s^2)","Absolute acceleration (m/s^2)"
4.588958342E-3,-9.005177689E-1,1.599302359E0,5.899554080E-1,1.927886841E0
1.455495838E-2,-1.391249363E0,1.139398821E0,6.090565073E-1,1.898619048E0
2.451995836E-2,-1.629713727E0,4.981047133E-1,1.139070354E0,2.049769843E0
3.448595834E-2,-1.560473192E0,-2.567518240E-1,1.835394216E0,2.422740186E0
4.445095838E-2,-1.365256442E0,-9.377647519E-1,2.486729016E0,2.987833510E0
5.441695836E-2,-1.081409498E0,-1.457015336E0,2.793880915E0,3.331382710E0
6.438195833E-2,-5.857868548E-1,-1.696860228E0,2.652084766E0,3.202504407E0
7.434695837E-2,-1.238381072E-1,-1.670944199E0,2.186830587E0,2.754926208E0
8.431295835E-2,3.302038892E-1,-1.395161150E0,1.653713039E0,2.188669929E0
9.427795839E-2,7.808135701E-1,-1.105720394E0,1.003040729E0,1.684748683E0
1.042439584E-1,1.019614077E0,-8.533717422E-1,4.379324788E-1,1.399871798E0
1.142089583E-1,1.074596249E0,-7.519236470E-1,-7.962738276E-3,1.311567640E0
1.241749584E-1,9.350933053E-1,-8.468494655E-1,-4.126152045E-1,1.327329957E0
1.341399584E-1,8.519353737E-1,-9.686653863E-1,-8.514417225E-1,1.545658280E0
1.441059583E-1,4.412581923E-1,-1.311601807E0,-9.546830857E-1,1.681198348E0
1.540709584E-1,-3.806967891E-1,-1.566772836E0,-8.241627073E-1,1.810787490E0
1.640359584E-1,-3.410320190E-1,-1.199421074E0,-6.973459554E-1,1.428707504E0
1.740019583E-1,1.545291737E-1,-1.101910129E0,-8.975996429E-1,1.429604951E0
1.839669584E-1,2.341495764E-1,-1.099047843E0,-1.424543116E0,1.814402181E0
1.939329584E-1,3.896782585E-1,-9.783066409E-1,-2.026385913E0,2.283675305E0
2.038979584E-1,5.271918337E-1,-7.578957738E-1,-2.451223553E0,2.619319404E0
2.138639584E-1,4.990661782E-1,-5.258630539E-1,-2.759941337E0,2.853572355E0
2.238289583E-1,2.936476452E-1,-3.398077217E-1,-2.929593621E0,2.963817979E0
2.337949584E-1,1.215777564E-1,-9.832063884E-2,-2.794466221E0,2.798837180E0
2.437599584E-1,8.492823092E-2,1.711068524E-1,-2.561025492E0,2.568139780E0
2.537249583E-1,-1.145614996E-1,4.071402372E-1,-1.776184725E0,1.825847663E0
2.636909584E-1,-6.693817927E-1,8.319319028E-1,7.900465429E-2,1.070712104E0
2.736559584E-1,1.503475557E-1,1.333261355E0,-3.045212370E-1,1.375835533E0
2.836219583E-1,2.528406215E-1,8.810736573E-1,5.936333066E-1,1.092071276E0
2.935869584E-1,7.814800065E-1,4.441224875E-1,7.145870554E-1,1.148298935E0
3.035529584E-1,1.287419623E0,-6.853521466E-3,9.155207741E-1,1.579770409E0
3.135179583E-1,1.799507807E0,-4.822479415E-1,6.908953071E-1,1.986989620E0
3.234839584E-1,2.003168520E0,-4.425984107E-1,3.914769351E-1,2.088499860E0
3.334489584E-1,1.958312629E0,-1.849823682E-1,9.972016990E-2,1.969556026E0
3.434139584E-1,1.760955944E0,1.011160465E-1,-2.530283171E-1,1.781912911E0
3.533799584E-1,1.392419683E0,1.115670674E-1,-7.263762116E-2,1.398769462E0
3.633449583E-1,4.922070654E-1,-2.379579958E-1,1.159095313E0,1.281559108E0
3.733109584E-1,-6.115412816E-1,-6.734765978E-1,3.160179740E0,3.288508697E0
3.832759584E-1,-8.784850949E-1,-1.175543969E0,4.547278456E0,4.778219443E0
3.932419583E-1,-6.039705992E-2,-1.844351419E0,5.560890951E0,5.859077413E0
4.032069584E-1,9.502552816E-1,-2.765248269E0,6.822910708E0,7.423051503E0
4.131729584E-1,2.014356729E0,-3.498176286E0,7.564762160E0,8.574409420E0
4.231379583E-1,3.015927760E0,-3.465275758E0,8.755028395E0,9.887086453E0
4.331029584E-1,3.363665476E0,-2.808838970E0,9.613470404E0,1.056516138E1
4.430689584E-1,3.113148830E0,-2.040880138E0,1.003320576E1,1.070150014E1
4.530339584E-1,1.776874697E0,-2.065345765E0,8.890827055E0,9.298910825E0
4.629999584E-1,-6.535713601E-1,-3.152431009E0,6.418826006E0,7.180968186E0
4.729649583E-1,-2.617953399E0,-2.580487657E0,2.690241941E0,4.555216597E0
4.829309584E-1,-3.732977078E0,1.902085949E0,-1.647714965E0,4.502001047E0
4.928959584E-1,-2.267640862E0,4.752476257E0,-3.649155487E0,6.406602955E0
5.028619583E-1,-7.163371271E-1,3.900013026E0,-3.698357468E0,5.422277053E0
5.128269584E-1,-7.888893789E-1,2.759736976E0,-7.824948639E-1,2.975028209E0
5.227919584E-1,-8.220427993E-1,1.065925413E0,5.172558648E0,5.344839971E0
5.327579583E-1,7.351920587E-1,-1.369468338E0,2.065106176E0,2.584688455E0
5.427229584E-1,1.307757263E0,-2.340941119E0,1.566504157E0,3.105506344E0
5.526889584E-1,9.125714386E-1,-2.310648741E0,1.129438820E0,2.729013793E0
5.626539584E-1,4.715314570E-1,-1.739910792E0,3.871195900E-1,1.843771422E0
5.726199584E-1,7.773808891E-1,-1.127599578E0,-7.632195175E-2,1.371724060E0
5.825849583E-1,6.488117266E-1,-9.745460773E-1,-4.795710862E-2,1.171749375E0
5.925509584E-1,9.703031914E-1,-1.177757140E0,5.633956003E-1,1.626657545E0
6.025159584E-1,1.069719745E0,-2.020296769E0,1.128674589E0,2.549471650E0
6.124809583E-1,1.161559841E0,-2.791832635E0,2.569857126E-1,3.034731024E0
6.224469584E-1,3.890299485E-1,-3.780126394E0,3.633220071E-1,3.817420953E0
6.324119584E-1,-8.429464491E-1,-5.487369815E0,-2.560285234E-1,5.557637700E0
6.423779583E-1,-2.389149511E0,-7.208878396E0,-1.076671792E0,7.670409720E0
6.523429584E-1,-3.094517847E0,-8.573206301E0,6.999041122E-1,9.141431657E0
6.623089584E-1,-1.984176910E0,-9.582219375E0,2.930180681E0,1.021478561E1
6.722739583E-1,-1.642882826E0,-1.051147526E1,1.353788883E0,1.072487391E1
6.822393333E-1,-2.780686088E0,-1.011046035E1,-1.026617872E0,1.053601290E1
6.922043334E-1,-3.192323931E0,-8.790353179E0,-2.526499438E0,9.687334024E0
7.021693334E-1,-2.854657459E0,-8.112332271E0,-3.699774249E0,9.362015466E0
7.121353333E-1,-2.931348078E0,-7.722490218E0,-4.874728380E0,9.591279033E0
7.221003334E-1,-3.755599955E0,-7.223459598E0,-5.659122419E0,9.915067632E0
7.320663334E-1,-4.611556898E0,-6.678238313E0,-5.583897405E0,9.851153954E0
7.420313334E-1,-5.318856568E0,-5.943107066E0,-3.896528962E0,8.876581253E0
7.519973334E-1,-4.260521645E0,-4.999294538E0,-2.182691343E0,6.921642296E0
7.619623333E-1,-2.663214941E0,-3.861977473E0,-1.808722141E0,5.027828518E0
7.719273334E-1,-1.514214261E0,-2.408686228E0,-2.009722518E0,3.483331563E0
7.818933334E-1,-7.468139845E-1,-1.418171259E0,-2.676853572E0,3.120013765E0
7.918583333E-1,-3.460727209E-1,3.977860808E-1,-3.437809047E0,3.478006777E0
8.018243334E-1,6.618697286E-2,3.081814478E0,-3.923908550E0,4.989891732E0
8.117893334E-1,-1.517469406E-1,4.339951977E0,-4.742172586E0,6.430117505E0
8.217553333E-1,-5.578389913E-1,4.824064595E0,-5.666729647E0,7.462882047E0
8.317203334E-1,-2.796495205E-1,5.982689207E0,-6.227684619E0,8.640302641E0
8.416853333E-1,5.045059526E-1,7.217870244E0,-5.673366237E0,9.194523456E0
8.516513334E-1,2.319977535E0,8.024602402E0,-4.148541618E0,9.326678778E0
8.616163334E-1,4.055287299E0,8.064554672E0,-2.303607670E0,9.316061691E0
8.715823333E-1,4.647728943E0,7.501024001E0,8.289246798E-2,8.824602912E0
8.815473334E-1,5.192102382E0,6.757902533E0,2.655759741E0,8.926378526E0
8.915133334E-1,6.162020388E0,5.927997860E0,4.790981049E0,9.801283248E0
9.014783333E-1,7.428346619E0,5.264652879E0,6.530180966E0,1.120447084E1
9.114443334E-1,9.209747061E0,4.390837663E0,6.606668394E0,1.215512088E1
9.214093334E-1,1.107021998E1,3.782814943E0,4.725320325E0,1.261697712E1
9.313743333E-1,1.086647960E1,2.981067245E0,1.936921760E0,1.143323256E1
9.413403334E-1,9.555297625E0,2.140055932E0,9.378150380E-1,9.836821089E0
9.513053334E-1,8.721474148E0,1.834511725E0,2.498464378E0,9.255909941E0
9.612713333E-1,8.300876325E0,1.415577288E0,1.713123089E0,8.593206476E0
9.712363334E-1,6.158990360E0,5.705764197E-1,-1.618713945E-1,6.187481076E0
9.812023334E-1,4.225036355E0,-2.799015355E-1,-7.458468550E-1,4.299484225E0
9.911673334E-1,3.405611062E0,-4.793464069E-1,1.309889742E0,3.680186248E0
1.001132333E0,2.052873947E0,-1.056836501E0,2.653468217E0,3.517397960E0
1.011098333E0,1.907804672E-1,-1.595264271E0,7.808991587E-1,1.786356285E0
1.021063333E0,-1.864121878E0,-1.768228565E0,-1.768697366E0,3.119274436E0
1.031029333E0,-3.593761598E0,-1.863590805E0,-4.088467324E0,5.753577858E0
1.040994333E0,-4.999074683E0,-1.417073006E0,-6.824568393E0,8.577504144E0
1.050960333E0,-6.145966857E0,-7.669430244E-1,-8.796369964E0,1.075812413E1
1.060925333E0,-6.374915171E0,-5.119584482E-1,-9.348735961E0,1.132698146E1
1.070890333E0,-5.697932144E0,-4.203400341E-1,-8.406037914E0,1.016388655E1
1.080856333E0,-4.396515310E0,-4.945011473E-1,-5.830731182E0,7.319242062E0
1.090821333E0,-2.995901339E0,-1.077798404E0,-2.700597945E0,4.174961496E0
1.100787333E0,-1.304990653E0,-1.468336130E0,1.427930993E0,2.428579526E0
1.110752333E0,5.047024190E-2,-1.653795485E0,5.943808147E0,6.169800810E0
1.120718333E0,1.042145445E0,-2.426126719E0,7.509072694E0,7.959794639E0
1.130683333E0,-9.502889031E-1,-2.975609746E0,4.531161191E0,5.503519247E0
1.140648333E0,-8.984477815E-1,-1.565725015E0,1.621422960E0,2.426461550E0
1.150614333E0,3.091604179E-1,1.997247338E-1,4.522670449E0,4.537622519E0
1.160579333E0,8.895114818E-1,-1.799722728E-1,2.377207743E0,2.544550520E0
1.170545333E0,2.817787841E-1,4.341229447E-1,-1.068120824E0,1.186905265E0
1.180510333E0,9.810742012E-1,1.509235942E0,-2.531754330E0,3.106457742E0
1.190476333E0,2.325521280E0,2.317763194E0,-2.697767892E0,4.249473738E0
1.200441333E0,2.823976242E0,2.347242078E0,-3.160544606E0,4.844938533E0
1.210407333E0,2.372905654E0,2.065291240E0,-4.182947220E0,5.233847207E0
1.220372333E0,1.004440844E0,1.850339991E0,-5.245073478E0,5.651854145E0
1.230337333E0,-4.384414789E-1,1.722329530E0,-6.403370061E0,6.645434378E0
1.240303333E0,-2.159349551E0,1.647422312E0,-7.690226451E0,8.155757085E0
1.250268333E0,-3.386549431E0,1.615359544E0,-8.688401127E0,9.463953595E0
1.260234333E0,-3.545441377E0,1.402419883E0,-8.686133577E0,9.486087318E0
1.270199333E0,-2.649837681E0,9.222917037E-1,-7.567122681E0,8.070539474E0
1.280165333E0,-3.056918496E-1,5.762178133E-1,-5.047960914E0,5.089929653E0
1.290130333E0,1.698887165E0,9.673180416E-2,-1.736247658E0,2.431076011E0
1.300095333E0,2.905408075E0,-4.147137702E-4,1.111797186E0,3.110866316E0
1.310061333E0,3.155471269E0,-2.398101014E-1,2.083110337E0,3.788648373E0
1.320026333E0,4.083908835E0,-3.860505728E-1,2.397480040E0,4.751342648E0
1.329992333E0,3.538153700E0,-7.252851212E-1,1.107253314E0,3.777642123E0
1.339957333E0,2.654921250E0,-1.377096469E0,2.496708459E-1,3.001222595E0
1.349922333E0,2.522123966E0,-9.366493955E-1,7.955183673E-1,2.805578526E0
1.359888333E0,2.182165094E0,-6.941364187E-1,1.427583668E0,2.698456039E0
1.369853333E0,2.237194410E0,-8.390044025E-1,2.166507420E0,3.225325040E0
1.379819333E0,3.116682302E0,-1.048156967E0,3.948851017E0,5.138654100E0
1.389784333E0,2.915554456E0,-9.255700913E-1,5.698270113E0,6.467412161E0
1.399750333E0,3.011334772E0,-7.206108570E-2,6.365770710E0,7.042468789E0
1.409715333E0,3.225318307E0,7.468259713E-1,5.376817678E0,6.314316713E0
1.419680333E0,3.117025534E0,1.471176415E0,4.582726032E0,5.734246777E0
1.429646333E0,1.435444665E0,1.718204027E0,4.412217130E0,4.947765806E0
1.439611333E0,-2.185262364E-1,1.766455251E0,4.836913851E0,5.154013337E0
1.449577333E0,-3.282936770E-1,1.220129719E0,4.815865045E0,4.978860251E0
1.459542333E0,-1.412897217E0,6.752671614E-1,4.829320073E0,5.076868784E0
1.469508333E0,-2.554722193E0,-1.876921141E-1,4.812891151E0,5.452133073E0
1.479473333E0,-2.424459093E0,-1.564985050E0,4.912215464E0,5.697108114E0
1.489438333E0,-3.909617954E-1,-3.242432522E0,4.848116532E0,5.845549905E0
1.499404333E0,-3.954711682E-1,-3.475462192E0,4.621714096E0,5.796160460E0
1.509369333E0,9.146097779E-2,-3.736980082E0,3.106865120E0,4.860657992E0
1.519335333E0,5.875785148E-1,-3.578912301E0,1.156603230E0,3.806782474E0
1.529300333E0,3.691908574E-1,-3.086965583E0,-8.137377065E-1,3.213693740E0
1.539266333E0,-7.350756991E-1,-2.498498291E0,-1.472435321E0,2.991804768E0
1.549231333E0,-1.566799441E0,-2.148775738E0,-1.008874496E0,2.844279418E0
1.559196333E0,-1.646201121E0,-1.928719286E0,1.401536661E-1,2.539602186E0
1.569162333E0,-1.623327398E0,-1.439551165E0,2.757698929E-1,2.187132468E0
1.579127333E0,-1.752849657E0,-1.041282688E0,2.468197435E-1,2.053697043E0
1.589093333E0,-3.207534000E0,-7.156114876E-1,2.903972876E-1,3.299197592E0
1.599058333E0,-3.924472806E0,-1.378802687E-1,8.629689234E-1,4.020598604E0
1.609024333E0,-3.747278198E0,4.714282537E-1,7.922766709E-1,3.859020707E0
1.618989333E0,-3.556216334E0,1.454036472E0,2.176190409E-1,3.848149519E0
1.628954333E0,-3.279500946E0,2.139238345E0,-7.987781900E-1,3.996187401E0
1.638920333E0,-2.698965402E0,2.757903582E0,-1.830530209E0,4.270982001E0
1.648885333E0,-1.992988957E0,3.304759163E0,-2.037890603E0,4.364222292E0
1.658851333E0,-9.360292983E-1,3.718240340E0,-2.268424681E0,4.455021056E0
1.668816333E0,-5.541435510E-1,3.942039596E0,-2.561457309E0,4.733689343E0
1.678781333E0,-1.146730791E0,3.869500208E0,-2.880166230E0,4.958163055E0
1.688747583E0,-2.182542239E0,3.609987329E0,-2.966032007E0,5.156825090E0
1.698712583E0,-2.911989409E0,3.310559601E0,-2.820925457E0,5.234224644E0
1.708678583E0,-3.189256189E0,2.939756082E0,-2.992546499E0,5.269616248E0
1.718643583E0,-2.796448427E0,2.420626827E0,-3.183171576E0,4.879768368E0
1.728609583E0,-2.207691114E0,2.173549222E0,-2.969855209E0,4.291649594E0
1.738574583E0,-1.456660702E0,2.189983406E0,-2.608707197E0,3.704489298E0
1.748539583E0,-4.347363907E-1,1.800486338E0,-2.432656304E0,3.057542065E0
1.758505583E0,3.256367022E-1,1.526910905E0,-2.078170025E0,2.599285830E0
1.768470583E0,6.685870099E-1,1.389883745E0,-1.925510334E0,2.467058058E0
1.778436583E0,6.622275782E-1,1.318367035E0,-1.709983134E0,2.258468358E0
1.788401583E0,3.678717256E-1,1.139328216E0,-1.747690659E0,2.118447787E0
1.798366583E0,4.564739996E-1,5.763389969E-1,-2.032281661E0,2.161181136E0
1.808332583E0,7.864165914E-1,1.604341489E-1,-1.555927128E0,1.750742528E0
1.818297583E0,1.504282181E0,-7.706139064E-1,-1.617488953E0,2.339440358E0
1.828263583E0,2.534513631E0,-1.506885946E0,-1.715454666E0,3.411341278E0
1.838228583E0,2.510082210E0,-1.756878389E0,-1.625053350E0,3.468131019E0
1.848194583E0,2.294938588E0,-1.960170289E0,-1.781414913E0,3.504632617E0
1.858159583E0,1.912389182E0,-1.987383231E0,-2.202893474E0,3.529824945E0
1.868124583E0,1.994355451E0,-1.790847203E0,-2.982839536E0,4.010226810E0
1.878090583E0,2.255022570E0,-1.412276242E0,-3.337682496E0,4.268462887E0
1.888055583E0,2.184513921E0,-1.439562859E0,-3.468685854E0,4.344677646E0
1.898021583E0,2.352274046E0,-2.087483470E0,-2.901039328E0,4.278645768E0
1.907986583E0,3.003762043E0,-2.325010234E0,-1.109342524E0,3.957132779E0
1.917951583E0,2.208492767E0,-3.861716979E0,3.868552959E-1,4.465417713E0
1.927917583E0,8.279938030E-1,-4.528319444E0,1.127726755E0,4.739516680E0
1.937882583E0,6.163035464E-1,-3.919466420E0,1.537523017E0,4.255117402E0
1.947848583E0,9.444639069E-1,-3.710429630E0,2.125174037E0,4.379002717E0
1.957813583E0,3.131774551E-1,-3.541364406E0,2.264742397E0,4.215258011E0
1.967779583E0,-2.536580622E-1,-3.837441679E0,3.310444411E0,5.074381070E0
1.977744583E0,-7.984507459E-1,-4.179476312E0,3.635741390E0,5.596799201E0
1.987709583E0,8.864425707E-1,-3.737640817E0,3.453473153E0,5.165483146E0
1.997675583E0,4.140115196E-1,-2.992559947E0,3.576668140E0,4.681813277E0
2.007640583E0,2.745028013E-1,-2.923852240E0,3.070687519E0,4.248927576E0
2.017606583E0,1.221975101E0,-2.496502052E0,2.120558245E0,3.496071068E0
2.027571583E0,9.583615690E-1,-2.152019189E0,1.780014067E0,2.952641794E0
2.037537583E0,3.945917469E-1,-1.872197760E0,1.434500924E0,2.391363628E0
2.047502583E0,1.180500215E-1,-1.637177698E0,1.414185358E0,2.166611836E0
2.057467583E0,-1.705398917E-1,-6.436088741E-1,1.230506773E0,1.399093691E0
2.067433583E0,-8.989860177E-1,1.648932356E-1,-2.413496733E-2,9.143019938E-1
2.077398583E0,-1.897645428E0,1.241991289E0,-5.559240282E-1,2.335091445E0
2.087364583E0,-1.547682554E0,2.215729281E0,-2.088306173E0,3.415523417E0
2.097329583E0,-5.099795312E-1,2.568296505E0,-2.499114003E0,3.619640432E0
2.107294583E0,-1.345683473E0,2.863269238E0,-2.144887194E0,3.822265796E0
2.117260583E0,-4.137826888E0,2.684593531E0,-1.291353922E0,5.098651658E0
2.127225583E0,-1.061171992E0,4.549314457E0,-5.482676109E-1,4.703503523E0
2.137191583E0,-2.721042734E-1,5.844405481E0,2.958354321E0,6.556140362E0
2.147156583E0,-7.442748311E-1,5.352419586E0,5.274376799E0,7.551250960E0
2.157121583E0,-5.472654712E-1,4.881922794E0,5.050859964E0,7.045839626E0
2.167087583E0,-3.649978191E-2,3.556581200E0,3.510212195E0,4.997218398E0
2.177052583E0,-2.379562417E-1,2.852950072E0,3.541745059E0,4.554108623E0
2.187018583E0,1.149574292E-1,2.935994568E0,2.522773007E0,3.872681624E0
2.196983583E0,6.026350951E-1,3.027076646E0,1.667060478E0,3.507912872E0
2.206949583E0,9.757625905E-1,3.365132250E0,7.175685507E-1,3.576469253E0
2.216914583E0,1.174752402E0,3.623226010E0,-3.017683313E-1,3.820847295E0
2.226879583E0,1.784231663E0,3.678144228E0,-1.744496909E0,4.444715633E0
2.236845583E0,2.013962919E0,3.457946273E0,-3.754323508E0,5.487110722E0
2.246810583E0,1.363456669E0,3.253096089E0,-4.241073221E0,5.516189837E0
2.256776583E0,5.427838728E-1,3.005893353E0,-2.934501774E0,4.235718339E0
2.266741583E0,3.178102040E-1,2.354325834E0,-2.445024920E-1,2.388228408E0
2.276706583E0,6.728586933E-1,1.796380423E0,2.755179949E0,3.357191981E0
2.286672583E0,7.221083289E-1,1.104691649E0,4.511730309E0,4.700797215E0
2.296637583E0,7.671731123E-1,7.065301770E-1,4.149150313E0,4.278222504E0
2.306603583E0,1.289922962E0,1.126080764E0,2.186206105E0,2.776950894E0
2.316568583E0,1.714243416E0,1.572257817E0,4.125397754E-1,2.362374694E0
2.326533583E0,2.158694370E0,4.813492244E-1,-1.130542189E0,2.483905011E0
2.336499583E0,2.485768026E0,-7.950915205E-1,-3.196380436E0,4.126507131E0
2.346464583E0,2.932290649E0,-1.255786625E0,-4.669097008E0,5.654714438E0
2.356430583E0,3.246171817E0,-2.089950410E0,-5.448276501E0,6.677517578E0
2.366395583E0,3.403687035E0,-5.052923446E0,-6.062024229E0,8.594490011E0
2.376361583E0,3.255117764E0,-7.675793184E0,-4.158525739E0,9.317023612E0
2.386326583E0,2.991229121E0,-9.228079836E0,-1.584013059E0,9.829242416E0
2.396291583E0,3.540572108E0,-9.786384850E0,-2.155529273E-1,1.040939203E1
2.406257583E0,3.924173721E0,-8.708327853E0,3.248087364E-1,9.557176053E0
2.416222583E0,3.723933190E0,-6.621575870E0,7.669494563E-1,7.635519424E0
2.426188583E0,3.081344947E0,-4.794104047E0,7.620945132E-1,5.749687673E0
2.436153583E0,1.979754369E0,-3.480977286E0,6.580333704E-1,4.058280195E0
2.446118583E0,1.047907876E0,-2.971915183E0,8.198989177E-1,3.256167227E0
2.456084583E0,5.907617390E-2,-3.067262220E0,2.168837535E-1,3.075487943E0
2.466049583E0,-5.511430523E-1,-3.280533564E0,-4.615487981E-1,3.358375563E0
2.476015583E0,-8.819603875E-1,-3.511063550E0,-6.522265005E-1,3.678426400E0
2.485980583E0,-1.257567687E0,-3.719947143E0,-3.048095230E-1,3.938577418E0
2.495945583E0,-1.401180858E0,-3.549098518E0,3.877943587E-1,3.835334738E0
2.505911583E0,-1.279571052E0,-3.209256005E0,1.134027715E0,3.636295511E0
2.515876583E0,-1.292208347E0,-2.373471957E0,1.646254331E0,3.164383805E0
2.525842583E0,-1.217904561E0,-1.407256408E0,1.947705195E0,2.693922353E0
2.535807583E0,-1.325110337E0,-3.905612612E-1,1.888361803E0,2.339736268E0
2.545773583E0,-1.852337108E0,3.596686667E-1,1.520961363E0,2.423600169E0
2.555738583E0,-2.153703187E0,6.288160032E-1,1.125760994E0,2.510216086E0
2.565703583E0,-1.993904046E0,7.199653244E-1,1.221698527E0,2.446742877E0
2.575669583E0,-2.045520050E0,9.479851002E-1,1.421986713E0,2.665496996E0
2.585634583E0,-2.473328075E0,1.477798387E0,1.602940496E0,3.297068102E0
2.595600583E0,-3.501486395E0,2.443385945E0,1.462176965E0,4.513147829E0
2.605565583E0,-3.518066175E0,2.819752505E0,1.195437585E0,4.664425455E0
2.615530583E0,-3.593449064E0,2.959316188E0,1.005963240E0,4.762603334E0
2.625496583E0,-3.932425604E0,3.679168076E0,3.358197013E-1,5.395648592E0
2.635461583E0,-3.385776429E0,4.551559787E0,-6.884067321E-1,5.714375063E0
2.645427583E0,-2.672784202E0,5.308200603E0,-1.466233764E0,6.121324242E0
2.655392583E0,-1.987053156E0,5.866499770E0,-1.493342625E0,6.371363432E0
2.665357583E0,-1.437422193E0,6.212451453E0,-1.015960736E0,6.457004866E0
2.675323583E0,-1.083677925E0,6.314802285E0,-3.528759563E-1,6.416822203E0
2.685288500E0,-9.137122303E-1,6.107978082E0,3.399665467E-1,6.185292518E0
2.695254500E0,-8.208493826E-1,5.869762516E0,6.210620105E-1,5.959330812E0
2.705219500E0,-1.009494593E0,5.570065232E0,1.904485098E-1,5.664007120E0
2.715184500E0,-1.503407145E0,5.240332555E0,7.737409973E-1,5.506359366E0
2.725150500E0,-1.232105694E0,4.859373592E0,8.902935469E-1,5.091583127E0
2.735115500E0,-1.384342047E0,3.806478333E0,2.924192548E-1,4.060934526E0
2.745081500E0,-2.850556222E0,2.376075722E0,2.906231655E0,4.713553760E0
2.755046500E0,-8.378381753E-1,1.000915850E0,4.181291288E-1,1.370633910E0
2.765011500E0,9.000195131E-1,7.285566384E-1,-2.152644841E0,2.444321933E0
2.774977500E0,1.612611206E0,2.040269542E0,-3.174244047E0,4.103539933E0
2.784942500E0,1.851556212E0,3.719377039E0,-2.351415675E0,4.774011064E0
2.794908500E0,2.076303009E0,3.950125126E0,-2.908989330E-2,4.462663881E0
2.804873500E0,2.907512780E0,1.888871680E0,3.229378613E0,4.738180349E0
2.814838500E0,4.881998808E0,-1.613575412E0,5.274706582E0,7.366143326E0
2.824804500E0,8.040282880E0,-4.075820382E0,4.830872508E0,1.022720831E1
2.834769500E0,1.122893096E1,-4.778802468E0,3.181639606E0,1.261145012E1
2.844735500E0,1.164173269E1,-2.736815599E0,4.318811953E-2,1.195917910E1
2.854700500E0,9.608321931E0,3.497348320E-1,-2.220649713E0,9.867798636E0
2.864665500E0,8.979219414E0,-6.965080494E-1,-3.119499491E0,9.531147980E0
2.874631500E0,8.675178233E0,-3.000213368E0,-4.765249792E0,1.034251436E1
2.884596500E0,7.569506006E0,-4.807064985E0,-5.058207575E0,1.029518134E1
2.894562500E0,5.513052540E0,-4.916054746E0,-2.408672195E0,7.769365761E0
2.904527500E0,3.486614294E0,-4.611762720E0,3.610456129E-1,5.792684055E0
2.914493500E0,1.977623059E0,-4.268674418E0,1.674088832E0,4.993510555E0
2.924458500E0,3.235571399E-1,-4.066974129E0,2.627949214E0,4.852945998E0
2.934423500E0,-2.480808710E0,-4.127807391E0,4.507101068E0,6.595996191E0
2.944389500E0,-4.812773622E0,-4.552965458E0,5.259346531E0,8.458901248E0
2.954354500E0,-4.056420197E0,-5.933779587E0,3.655206771E0,8.063796968E0
2.964320500E0,-9.950914389E-1,-6.235770734E0,2.019675649E0,6.629791350E0
2.974285500E0,-3.063665013E0,6.574713945E0,-2.495749515E0,7.670832576E0
2.984250500E0,-2.345901166E0,-5.812646914E-1,9.000343650E0,9.319190240E0
2.994216500E0,1.203396742E0,-2.953873014E0,7.928058439E0,8.545621108E0
3.004181500E0,-5.048936230E-1,-3.753907771E0,6.074341389E0,7.158516916E0
3.014147500E0,6.233956343E-1,-6.696990919E0,3.462827529E0,7.565017117E0
3.024112500E0,-1.238929102E0,-4.936273248E0,-4.738497318E-1,5.111386551E0
3.034077500E0,-2.825222283E0,-1.099525634E0,-4.266872891E0,5.234218359E0
3.044043500E0,-3.705242857E0,2.779402040E0,-5.830152308E0,7.446111486E0
3.054008500E0,-3.654386991E0,5.724100773E0,-5.893479992E0,8.991828532E0
3.063974500E0,-2.494106448E0,7.260578308E0,-4.797446900E0,9.052737768E0
3.073939500E0,-9.560525036E-1,8.072018643E0,-3.091848008E0,8.696611148E0
3.083904500E0,-1.717707306E-2,8.936292665E0,-2.389702950E0,9.250313608E0
3.093870500E0,-2.984237605E-1,1.003995930E1,-2.307237329E0,1.030597805E1
3.103835500E0,-6.548711962E-1,1.023812027E1,-1.979425901E0,1.044825774E1
3.113801500E0,-9.545319352E-1,9.655424761E0,-1.354733793E0,9.796614833E0
3.123766500E0,-1.772613246E0,9.182891384E0,-7.585300505E-4,9.352414258E0
3.133731500E0,-3.053453144E0,8.800984586E0,2.452205300E0,9.632975481E0
3.143697500E0,-3.599972218E0,6.991766601E0,5.155400578E0,9.403337455E0
3.153662500E0,-3.215188590E0,4.470835467E0,8.024894178E0,9.732663254E0
3.163628500E0,-4.190655604E0,2.049673035E0,1.086791334E1,1.182684634E1
3.173593500E0,-5.702790595E0,-6.449139726E-1,1.138719638E1,1.275170482E1
3.183558500E0,-6.728398068E0,-2.524807838E0,8.616288586E0,1.121991195E1
3.193524500E0,-5.729562657E0,-3.901032488E0,4.945990151E0,8.515207648E0
3.203489500E0,-4.941494227E0,-6.118957399E0,3.687135784E-1,7.873750983E0
3.213455500E0,-4.815117186E0,-6.597915112E0,-4.353033367E0,9.255632708E0
3.223420500E0,-5.214106624E0,-5.753534487E0,-6.726843293E0,1.027329001E1
3.233385500E0,-3.887446482E0,-4.730264731E0,-1.018510356E1,1.188376957E1
3.243351500E0,5.892239213E-1,-3.182072884E0,-1.568946188E1,1.601973741E1
3.253316500E0,3.145572810E0,-2.486819063E0,-1.696012148E1,1.742769686E1
3.263281500E0,4.301560328E0,-3.654582288E0,-1.268740196E1,1.388630842E1
3.273247500E0,5.896813490E0,-5.001674940E0,-8.549520984E0,1.152750930E1
3.283212500E0,7.195161413E0,-6.556672361E0,-6.581735281E0,1.175072506E1
3.293178500E0,7.864077621E0,-7.452619581E0,-4.266503347E0,1.164423919E1
3.303143500E0,8.243088877E0,-6.146889548E0,-1.532908394E0,1.039627691E1
3.313108500E0,9.243591914E0,-4.990947053E0,1.041247313E-1,1.050544554E1
3.323074500E0,8.952923900E0,-6.053732293E0,1.937052153E0,1.097974007E1
3.333039500E0,6.003949099E0,-7.491589519E0,5.020239265E0,1.083393375E1
3.343005500E0,2.019378610E0,-7.870647553E0,8.187116405E0,1.153489739E1
3.352970500E0,-1.205147253E0,-7.625498943E0,9.366070617E0,1.213770542E1
3.362936500E0,-1.597564274E0,-6.379690007E0,7.378908995E0,9.884379300E0
3.372901500E0,-1.441169528E0,-5.224843866E0,4.606960402E0,7.113371013E0
3.382866500E0,-2.324696384E0,-5.509750033E0,3.115643252E0,6.743055063E0
3.392832500E0,-3.467697675E0,-5.911871240E0,2.443839104E0,7.276503163E0
3.402797500E0,-4.716776374E0,-5.625538352E0,1.831256141E0,7.566251394E0
3.412762500E0,-5.485702774E0,-4.854644948E0,1.394273250E0,7.456843192E0
3.422728500E0,-5.437163867E0,-3.733596883E0,8.368248528E-1,6.648516559E0
3.432693500E0,-4.969667866E0,-2.294892395E0,2.651139271E-1,5.480366338E0
3.442659500E0,-3.531810640E0,-6.257374442E-1,-1.114596156E-1,3.588545247E0
3.452624500E0,-1.570517101E0,6.693202507E-1,-3.878364587E-1,1.750694342E0
3.462589500E0,2.220056221E-2,1.125571471E0,-1.108146769E0,1.579681380E0
3.472555500E0,2.638960983E-1,3.023166028E0,-1.483886508E0,3.378030958E0
3.482520500E0,3.470278636E-2,5.648802084E0,-9.205797120E-1,5.723428716E0
3.492486500E0,6.462078153E-1,6.573807626E0,-4.770671622E-1,6.622697662E0
3.502451500E0,9.844497988E-1,6.567647000E0,-1.017476335E0,6.718510744E0
3.512416500E0,8.461626370E-1,6.861467832E0,-1.451576987E0,7.064191940E0
3.522382500E0,8.282357316E-1,7.409434969E0,-9.490837920E-1,7.515747537E0
3.532347500E0,9.036345541E-2,8.350609233E0,-4.478821009E-2,8.351218240E0
3.542313500E0,-9.199458008E-1,8.756714732E0,4.084619272E-1,8.814374301E0
3.552278500E0,-2.300391701E0,8.094850851E0,5.003966756E-1,8.430231854E0
3.562243500E0,-3.466486424E0,7.274066080E0,7.821177185E-1,8.095694756E0
3.572209500E0,-2.835786448E0,6.974409142E0,1.021421890E0,7.597853008E0
3.582174500E0,-1.252856001E0,7.149365435E0,1.090024055E0,7.339702087E0
3.592140500E0,-1.412397864E-1,6.922899265E0,5.740846029E-1,6.948097296E0
3.602105500E0,4.890194558E-1,7.629608951E0,3.713028717E-1,7.654275838E0
3.612070500E0,9.061601128E-1,9.159986671E0,7.986700165E-1,9.239283292E0
3.622036500E0,-1.027562635E-1,7.698666322E0,1.173242505E0,7.788229578E0
3.632001500E0,-9.876454483E-1,4.770469016E0,9.279004991E-1,4.959215412E0
3.641967500E0,-1.157034754E0,2.302641125E0,7.185434277E-1,2.675292551E0
3.651932500E0,-1.168068742E0,-3.231890577E-1,-1.439150338E-1,1.220470111E0
3.661897500E0,-2.796202844E0,-2.370462980E0,-9.564031903E-1,3.788476230E0
3.671863500E0,-4.696885023E0,-4.615805485E0,-1.664387570E0,6.792390977E0
3.681829333E0,-4.663994435E0,-5.909109015E0,-1.581441454E0,7.692292930E0
3.691795333E0,-2.726848435E0,-6.942511411E0,-1.137848432E0,7.545122009E0
3.701760333E0,-4.499403208E-2,-7.136276443E0,-9.509467149E-1,7.199497593E0
3.711725333E0,2.989833975E0,-5.348299053E0,1.073490322E-1,6.128208040E0
3.721691333E0,7.935511301E0,-3.168331928E0,1.034892997E0,8.607070949E0
3.731656333E0,1.245887406E1,-2.527329742E0,-6.356717174E-1,1.272851197E1
3.741622333E0,1.411077914E1,-3.292904518E0,-4.752743182E0,1.524945494E1
3.751587333E0,1.212708784E1,-4.118119724E0,-7.899524027E0,1.504751306E1
3.761552333E0,6.529079350E0,-4.819640007E0,-4.599652551E0,9.328162228E0
3.771518333E0,1.675438661E0,-5.971515178E0,1.172870622E0,6.312029287E0
3.781483333E0,-2.398224975E0,-8.055260523E0,3.200510910E0,8.993440677E0
3.791449333E0,-5.471725005E0,-8.178421011E0,1.908883045E0,1.002348139E1
3.801414333E0,-4.866355167E0,-6.118399574E0,1.445299416E0,7.950164549E0
3.811379333E0,-4.203584090E0,-6.025575610E0,2.811499161E0,7.866524529E0
3.821345333E0,-5.158508958E0,-7.591039547E0,2.501499667E0,9.512707116E0
3.831310333E0,-5.788772732E0,-7.801634620E0,6.243199329E-1,9.734740257E0
3.841275333E0,-5.345478941E0,-7.074343320E0,-7.875287318E-1,8.901723430E0
3.851241333E0,-3.866409662E0,-6.870149193E0,-5.860946377E-1,7.905161639E0
3.861206333E0,-2.071562525E0,-7.668059072E0,3.005644262E-1,7.948637632E0
3.871172333E0,-1.866414791E-1,-7.951908063E0,1.300558902E0,8.059722721E0
3.881137333E0,1.558180791E0,-6.733971049E0,2.132085592E0,7.233262227E0
3.891102333E0,3.050793537E0,-4.932257380E0,2.560523801E0,6.339620352E0
3.901068333E0,4.780569497E0,-3.146749270E0,2.842318665E0,6.390199611E0
3.911033333E0,4.784622494E0,-7.769300687E-1,2.406978257E0,5.412003055E0
3.920999333E0,2.680176837E0,2.403820176E0,1.024536190E0,3.743176955E0
3.930964333E0,1.563494595E0,4.995531855E0,-1.400863501E-1,5.236361146E0
3.940929333E0,-3.944507194E-1,6.109901231E0,-7.141379893E-1,6.164128283E0
3.950895333E0,-3.209146370E0,7.036277361E0,-8.720303535E-2,7.734043179E0
3.960860333E0,-4.563282578E0,7.959610600E0,1.046987305E0,9.234453487E0
3.970826333E0,-3.173664004E0,9.791680089E0,1.242619865E0,1.036789498E1
3.980791333E0,-1.794038906E0,1.039965895E1,7.493850052E-1,1.057984215E1
3.990756333E0,-1.312718917E0,1.071802347E1,3.616947635E-1,1.080416962E1
4.000722333E0,-1.247777694E0,1.099452427E1,-6.540695429E-3,1.106510533E1
4.010687333E0,-1.339083574E0,1.102922866E1,-2.774059804E-1,1.111368453E1
4.020652333E0,-1.528452524E0,1.085347306E1,-3.521579182E-1,1.096622358E1
4.030618333E0,-1.819715492E0,1.070138113E1,-3.476263261E-1,1.086056014E1
4.040583333E0,-2.205373278E0,1.056281264E1,-2.384903848E-1,1.079321824E1
4.050549333E0,-3.136078978E0,1.031133793E1,-5.486793280E-2,1.077783335E1
4.060514333E0,-3.979325536E0,9.606036839E0,7.830825090E-2,1.039793766E1
4.070479333E0,-3.056437855E0,8.399574401E0,-1.508292932E-2,8.938394150E0
4.080445333E0,-1.489283488E0,7.405990959E0,-2.529874231E-1,7.558483316E0
4.090410333E0,-1.017594777E-1,6.213197558E0,-3.948690146E-1,6.226564095E0
4.100376333E0,3.197089411E0,3.838259704E0,-4.294592786E-1,5.013786347E0
4.110341333E0,6.830576992E0,-1.130603585E0,-1.017928909E0,6.997944396E0
4.120306333E0,7.851771571E0,-7.720673488E0,-1.264962076E0,1.108418896E1
4.130272333E0,6.827275654E0,-1.329948615E1,-1.953612637E0,1.507662519E1
4.140237333E0,5.072555473E0,-1.561828372E1,-2.323987556E0,1.658500900E1
4.150203333E0,3.916805352E0,-1.465652784E1,-2.715056355E0,1.541190136E1
4.160168333E0,3.843432151E0,-1.242119109E1,-3.047587509E0,1.335461525E1
4.170133333E0,5.245973364E0,-1.103661487E1,-2.629233263E0,1.249959887E1
4.180099333E0,7.064398960E0,-9.222529074E0,-2.174608153E0,1.181903955E1
4.190064333E0,9.072343925E0,-6.324094096E0,-2.414109521E0,1.131943087E1
4.200030333E0,8.732886744E0,-2.943267335E0,-2.577439211E0,9.569186296E0
4.209995333E0,5.532185215E0,-9.472664773E-1,-2.308873672E0,6.069043142E0
4.219960333E0,3.137161590E0,-1.273052868E0,-1.423328649E0,3.672643584E0
4.229926333E0,1.812060463E0,-3.468261346E0,-9.115114845E-2,3.914167653E0
4.239891333E0,7.408112329E-1,-5.722707381E0,1.416895543E0,5.941866208E0
4.249856333E0,-4.381023404E-1,-6.948450428E0,2.642240978E0,7.446766707E0
4.259822333E0,-2.006330402E0,-7.207034184E0,3.522983683E0,8.269106206E0
4.269787333E0,-3.423345667E0,-6.528740796E0,3.793886939E0,8.290797914E0
4.279753333E0,-4.575671951E0,-5.405376064E0,3.497593904E0,7.898609201E0
4.289718333E0,-4.775250285E0,-4.102101862E0,2.946868050E0,6.950847881E0
4.299683333E0,-5.294332761E0,-2.737356466E0,2.392639568E0,6.422445322E0
4.309649333E0,-5.878702909E0,-1.560407265E0,2.367475783E0,6.526787901E0
4.319614333E0,-5.804886489E0,-6.471283132E-1,1.965035757E0,6.162535820E0
4.329580333E0,-5.395570284E0,-5.189696252E-2,9.764815056E-1,5.483464973E0
4.339545333E0,-4.927628140E0,9.008354920E-1,-2.397063133E-1,5.015025701E0
4.349510333E0,-4.061851968E0,2.324202733E0,-1.001019492E0,4.785666075E0
4.359476333E0,-3.004171348E0,3.670371525E0,-1.196602570E0,4.891679704E0
4.369441333E0,-2.566798448E0,4.717733563E0,-1.369103618E0,5.542554372E0
4.379406333E0,-1.847056633E0,5.668708345E0,-2.126104329E0,6.329786104E0
4.389372333E0,-1.505802895E0,6.064723304E0,-2.853671326E0,6.869625256E0
4.399337333E0,-1.320283753E0,6.439139818E0,-3.363943511E0,7.383886966E0
4.409303333E0,-1.285835759E0,6.772823458E0,-3.328784203E0,7.655410862E0
4.419268333E0,-1.432662998E0,7.066636689E0,-2.763349094E0,7.721785777E0
4.429233333E0,-1.441195402E0,7.272321271E0,-2.339544219E0,7.774134550E0
4.439199333E0,-1.550984915E0,6.956483917E0,-2.194988038E0,7.457626646E0
4.449164333E0,-1.740390995E0,6.570568854E0,-1.958423141E0,7.073666452E0
4.459130333E0,-1.535869717E0,6.498408365E0,-1.867032915E0,6.933543032E0
4.469095333E0,-1.152743190E0,6.537154940E0,-1.657081620E0,6.841719891E0
4.479060333E0,-1.359345346E0,6.436228489E0,-2.130654632E0,6.914661676E0
4.489026333E0,-1.448429723E0,5.979565625E0,-2.514543636E0,6.646509115E0
4.498991333E0,-4.722657211E-1,5.507792970E0,-2.106985688E0,5.915928245E0
4.508957333E0,7.554269332E-1,4.573430128E0,-1.935624847E0,5.023303349E0
4.518922333E0,9.832204217E-1,2.766088514E0,-1.187876916E0,3.166862743E0
4.528887333E0,8.935258877E-1,3.115647930E-1,-1.213681848E0,1.538988227E0
4.538853333E0,1.740054195E0,-2.738233548E0,-1.888099848E0,3.753749140E0
4.548818333E0,3.543426134E0,-5.853231853E0,-2.431141437E0,7.261311216E0
4.558783333E0,4.546966507E0,-8.414374874E0,-3.331240618E0,1.012787110E1
4.568749333E0,4.380309459E0,-9.185591043E0,-3.814104856E0,1.086782359E1
4.578714333E0,4.980384643E0,-7.638625942E0,-2.463323196E0,9.445676188E0
4.588680333E0,4.590407519E0,-5.366296198E0,-2.137580513E0,7.378226516E0
4.598645333E0,2.636478547E0,-3.234207244E0,-2.139651743E0,4.689267023E0
4.608610333E0,9.978409459E-1,-2.116961038E0,-8.139547844E-1,2.477848458E0
4.618576333E0,-2.538587679E-1,-2.403396837E0,-1.066124292E-1,2.419116955E0
4.628541333E0,-9.169613819E-1,-3.796479594E0,4.011445753E-1,3.926193125E0
4.638507333E0,-4.865722498E-1,-4.958752869E0,2.782889904E0,5.707053424E0
4.648472333E0,-4.984198782E-1,-6.108004979E0,4.319907721E0,7.497849686E0
4.658437333E0,-8.614045009E-1,-6.732937261E0,4.753727853E0,8.286880618E0
4.668403333E0,-1.026487040E0,-6.771682667E0,3.991869568E0,7.927445012E0
4.678368333E0,-1.527465952E0,-7.008498409E0,2.894805611E0,7.735121312E0
4.688332750E0,-2.494953709E0,-7.647668077E0,2.074203858E0,8.307463071E0
4.698298750E0,-2.474977282E0,-7.837955185E0,1.408404801E0,8.339224071E0
4.708263750E0,-2.824376191E0,-7.048518507E0,1.217929412E0,7.690387901E0
4.718229750E0,-2.024472851E0,-4.987215945E0,1.586993970E0,5.611538387E0
4.728194750E0,-1.122214585E0,-2.554712838E0,1.881781347E0,3.365564484E0
4.738159750E0,-5.510635301E-2,-1.399092525E-1,1.897599235E0,1.903547784E0
4.748125750E0,8.896295956E-1,1.776326813E0,1.940729467E0,2.777266394E0
4.758090750E0,9.886780666E-1,3.393854942E0,1.971765318E0,4.047665272E0
4.768055750E0,5.774290641E-1,4.851900850E0,1.802046375E0,5.207853427E0
4.778021750E0,1.197743654E-1,6.352537876E0,1.437253793E0,6.514198480E0
4.787986750E0,-2.098846364E-1,7.541608356E0,1.021493372E0,7.613366986E0
4.797952750E0,-5.066121197E-1,8.438680580E0,5.996939456E-1,8.475117615E0
4.807917750E0,-1.051381415E0,9.028962262E0,2.720867318E-1,9.094041654E0
4.817882750E0,-1.639895191E0,9.336008327E0,1.051615888E-1,9.479523547E0
4.827848750E0,-2.502497495E0,9.331252787E0,2.703705923E-1,9.664774831E0
4.837813750E0,-2.978048328E0,9.087277129E0,7.047643179E-1,9.588747061E0
4.847778750E0,-3.061678129E0,8.690675694E0,1.131447338E0,9.283420170E0
4.857744750E0,-2.770444982E0,8.180487417E0,1.335578899E0,8.739537218E0
4.867709750E0,-2.997969499E0,7.306187174E0,1.509290175E0,8.040282891E0
4.877675750E0,-2.849589385E0,6.390752939E0,1.381711677E0,7.132391601E0
4.887640750E0,-2.292426478E0,5.532916701E0,7.262856529E-1,6.032899571E0
4.897605750E0,-1.851465726E0,4.315283158E0,3.108426619E-1,4.705976757E0
4.907571750E0,-9.867723859E-1,3.125670058E0,2.247581258E-1,3.285429845E0
4.917536750E0,4.672017400E-1,1.595611596E0,4.656881151E-1,1.726591802E0
4.927502750E0,2.164864645E0,1.037319446E-1,8.014697365E-1,2.310790554E0
4.937467750E0,4.582673114E0,-1.187968864E0,1.017523112E0,4.842263539E0
4.947432750E0,7.752891646E0,-3.416734512E0,1.903955158E0,8.683688666E0
4.957398750E0,9.073384144E0,-7.268841593E0,3.182650005E0,1.205369732E1
4.967363750E0,9.157388753E0,-1.127335459E1,4.241513516E0,1.513065529E1
4.977328750E0,9.227672285E0,-1.250079041E1,3.477874753E0,1.592216410E1
4.987294750E0,9.466750900E0,-1.036816351E1,1.189789687E0,1.409020180E1
4.997259750E0,1.037768278E1,-5.661477678E0,-1.522487487E0,1.191916933E1
5.007225750E0,9.097547763E0,-1.681597241E0,-3.341051077E0,9.836450929E0
5.017190750E0,8.024989488E0,-4.469553173E-2,-4.147392640E0,9.033455578E0
5.027155750E0,7.297357879E0,-8.541986847E-1,-3.660781506E0,8.208678861E0
5.037121750E0,5.642944928E0,-2.668092688E0,-2.072271354E0,6.576918322E0
5.047086750E0,4.366046638E0,-4.162546869E0,-4.787998384E-1,6.051314648E0
5.057051750E0,3.067456933E0,-5.522390544E0,7.070356688E-1,6.356570521E0
5.067017750E0,8.371365094E-1,-6.966876758E0,1.611713074E0,7.199707517E0
5.076982750E0,-1.067275901E0,-8.680364129E0,2.720809430E0,9.159181362E0
5.086948750E0,-5.031474105E0,-9.954377110E0,2.700633905E0,1.147600884E1
5.096913750E0,-1.036451953E1,-1.008178794E1,1.597753431E0,1.454711412E1
5.106878750E0,-1.399080597E1,-9.148590447E0,-7.831029743E-2,1.671662320E1
5.116844750E0,-1.322677135E1,-7.573677410E0,1.694721901E-1,1.524259790E1
5.126809750E0,-1.031131220E1,-5.382642674E0,1.441601637E0,1.172067476E1
5.136775750E0,-8.370573966E0,-2.848543611E0,1.539818341E0,8.975062660E0
5.146740750E0,-8.155515128E0,-7.471800202E-1,1.115097208E0,8.265237249E0
5.156705750E0,-6.770119121E0,1.018231210E0,4.808940187E-1,6.863130974E0
5.166671750E0,-5.247888912E0,2.455213693E0,6.509412825E-2,5.794191018E0
5.176636750E0,-4.200084239E0,3.657799426E0,-4.151809627E-1,5.585031736E0
5.186601750E0,-3.606495371E0,4.996348127E0,-1.774670004E0,6.412468876E0
5.196567750E0,-2.445421799E0,5.984793035E0,-2.587453153E0,6.963673547E0
5.206532750E0,-1.295164699E0,6.359821753E0,-3.558230115E0,7.401742084E0
5.216498750E0,-7.757310972E-1,6.220942195E0,-5.350210508E0,8.241761524E0
5.226463750E0,-1.372875072E-1,5.814149648E0,-6.299701266E0,8.573763470E0
5.236428750E0,-6.318419373E-1,5.746017306E0,-6.200496236E0,8.477151213E0
5.246394750E0,-9.426030305E-1,6.323909324E0,-5.350983510E0,8.337466889E0
5.256359750E0,-1.966104336E-1,7.027639854E0,-4.221093870E0,8.200244572E0
5.266324750E0,2.112129776E-1,7.185580750E0,-3.275589159E0,7.899788983E0
5.276290750E0,-1.024386866E-1,6.848152553E0,-2.318425099E0,7.230683371E0
5.286255750E0,-2.291123280E-1,6.571650004E0,-1.762949553E0,6.807868048E0
5.296221750E0,2.477567598E-1,6.263255571E0,-1.122206984E0,6.367817701E0
5.306186750E0,4.813454238E-1,5.920159668E0,-3.418633103E-1,5.949525564E0
5.316151750E0,7.230459300E-1,5.517873570E0,3.537075035E-1,5.576274128E0
5.326117750E0,7.995788200E-1,4.899221197E0,3.737728087E-1,4.978092078E0
5.336082750E0,3.892783821E-1,4.317222095E0,3.762227190E-1,4.351032959E0
5.346047750E0,1.366288184E-1,3.469644213E0,-4.218100242E-1,3.497859645E0
5.356013750E0,3.900597163E-1,1.949933569E0,-1.129615333E0,2.287010779E0
5.365978750E0,9.008734989E-1,-4.529376036E-1,-2.116047703E0,2.344010114E0
5.375944750E0,2.117076228E0,-3.475625330E0,-3.730280050E0,5.520595297E0
5.385909750E0,4.566168179E0,-6.258691235E0,-6.525716032E0,1.012946581E1
5.395874750E0,4.433481115E0,-9.620309892E0,-6.001225466E0,1.217459750E1
5.405840750E0,4.474069270E0,-1.033529280E1,-3.461924719E0,1.178221100E1
5.415805750E0,3.651804276E0,-8.681237703E0,-2.342091412E0,9.704893338E0
5.425770750E0,3.495797639E0,-5.345247976E0,-2.563919864E0,6.882293377E0
5.435736750E0,2.260782078E0,-1.900053311E0,-2.017233267E0,3.576390393E0
5.445701750E0,4.372442615E-1,-3.340830052E-1,-4.515572222E-1,7.118271725E-1
5.455667750E0,-3.101176071E-1,-3.156929272E-1,-3.295560908E-1,5.517627856E-1
5.465632750E0,-2.271298295E-1,-1.369701496E0,1.599435675E-1,1.397587955E0
5.475597750E0,2.904810490E-1,-3.004594102E0,3.023337936E0,4.272298823E0
5.485563750E0,2.595555639E-1,-5.357008481E0,5.224276686E0,7.487187446E0
5.495528750E0,-7.904653497E-1,-8.179944795E0,6.041469512E0,1.019978854E1
5.505493750E0,-8.331621569E-1,-1.016929503E1,5.746192138E0,1.171014281E1
5.515459750E0,-5.295137630E-1,-9.559344483E0,3.875457351E0,1.032863115E1
5.525424750E0,-2.372244626E0,-8.464407159E0,1.875474540E0,8.988389059E0
5.535390750E0,-4.305013694E0,-7.708083848E0,-6.482807994E-2,8.829037444E0
5.545355750E0,-5.461169611E0,-6.725214844E0,-1.032005496E0,8.724558646E0
5.555320750E0,-4.830308252E0,-4.980943052E0,-5.285952386E-1,6.958526024E0
5.565286750E0,-3.363827151E0,-2.769264722E0,8.216881657E-1,4.433884487E0
5.575251750E0,-2.810233531E0,-6.261110812E-1,1.840625135E0,3.417210627E0
5.585216750E0,-2.331078912E0,1.503200446E0,1.729485937E0,3.268740137E0
5.595182750E0,-1.620900950E0,3.289217849E0,1.215998662E0,3.863279267E0
5.605147750E0,-1.316024787E0,4.562764807E0,7.627868235E-1,4.809634878E0
5.615113750E0,-1.256442829E0,5.407390430E0,5.657379949E-1,5.580195276E0
5.625078750E0,-1.138274694E0,6.042739527E0,3.174932849E-1,6.157204906E0
5.635043750E0,-1.172699153E0,6.575448355E0,2.272953057E-1,6.683068721E0
5.645009750E0,-1.676616437E0,6.905159982E0,3.460639135E-1,7.114213750E0
5.654974750E0,-1.977933838E0,7.241732731E0,5.783481002E-1,7.529236465E0
5.664939750E0,-1.856040442E0,7.552067855E0,7.366415834E-1,7.811610322E0
5.674905750E0,-1.622937974E0,7.716900280E0,8.082945335E-1,7.927030821E0
5.684871125E0,-1.261713071E0,7.737888860E0,8.060269833E-1,7.881403643E0
5.694836125E0,-8.956819023E-1,7.674437799E0,8.519942844E-1,7.773360655E0
5.704802125E0,-6.941535218E-1,7.473805212E0,9.066680896E-1,7.560533082E0
5.714767125E0,-7.296380809E-1,6.645069398E0,9.648420382E-1,6.754275623E0
5.724733125E0,-2.779130436E-1,5.633094708E0,1.098592418E0,5.745946132E0
5.734698125E0,8.114340498E-1,4.849552023E0,1.157008442E0,5.051262078E0
5.744663125E0,1.352988399E0,3.817612601E0,1.312544378E0,4.257642108E0
5.754629125E0,2.223984673E0,2.522200565E0,1.582916121E0,3.716614987E0
5.764594125E0,3.235219982E0,1.082911355E0,1.908852786E0,3.909355994E0
5.774559125E0,4.313888013E0,-3.653217548E-1,2.418732330E0,4.959168867E0
5.784525125E0,5.807373894E0,-1.710483071E0,2.594383857E0,6.586514365E0
5.794490125E0,7.211997886E0,-3.144130302E0,2.491778086E0,8.252722393E0
5.804456125E0,8.205852054E0,-4.575698263E0,2.572626368E0,9.741223175E0
5.814421125E0,8.541233726E0,-5.482169302E0,2.664303693E0,1.049311050E1
5.824386125E0,8.413779042E0,-5.281796916E0,2.301861691E0,1.019743221E1
5.834352125E0,7.770584151E0,-3.960618539E0,1.246043410E0,8.810283846E0
5.844317125E0,7.315399463E0,-2.339996063E0,3.991116446E-1,7.690899881E0
5.854282125E0,6.890367696E0,-1.848691953E0,-3.266726095E-2,7.134135972E0
5.864248125E0,6.013233892E0,-2.942129467E0,-2.926421068E-1,6.700801970E0
5.874213125E0,4.501918096E0,-3.859052403E0,-5.243169039E-1,5.952685126E0
5.884179125E0,3.236664829E0,-3.860662141E0,-5.237958439E-1,5.065083757E0
5.894144125E0,1.694006495E0,-4.544774678E0,-5.360888109E-2,4.850516343E0
5.904109125E0,7.710470389E-1,-6.270671010E0,8.552926987E-1,6.375527747E0
5.914075125E0,-4.885445157E-1,-8.553715777E0,1.983380812E0,8.794232700E0
5.924040125E0,-2.934932714E0,-1.065404090E1,3.155170430E0,1.149249834E1
5.934005125E0,-5.586703484E0,-1.077277680E1,3.451169935E0,1.261643966E1
5.943971125E0,-7.708356328E0,-9.547128480E0,2.778264756E0,1.258114361E1
5.953936125E0,-8.937013042E0,-7.574155712E0,1.302300641E0,1.178702778E1
5.963901125E0,-9.607718498E0,-5.378286499E0,-4.120041704E-1,1.101834687E1
5.973867125E0,-9.716858532E0,-3.497184598E0,-1.406988167E0,1.042244000E1
5.983832125E0,-8.542599635E0,-1.675094553E0,-1.164778807E0,8.782861718E0
5.993798125E0,-7.998720871E0,-6.797762418E-1,-2.427850185E-1,8.031225055E0
6.003763125E0,-7.161757439E0,-1.298760152E-1,6.613142431E-1,7.193397940E0
6.013728125E0,-5.840299566E0,9.493042320E-1,8.980241507E-1,5.984707588E0
6.023694125E0,-4.888385429E0,2.339898414E0,7.767447120E-1,5.474921829E0
6.033659125E0,-3.502513166E0,3.781448742E0,1.706911884E-1,5.157139570E0
6.043624125E0,-2.769637190E0,4.539472423E0,-2.769962002E-1,5.324887505E0
6.053590125E0,-1.508490276E0,5.012649579E0,-1.195445845E0,5.369477580E0
6.063555125E0,-1.072528162E0,5.267137361E0,-3.318904163E0,6.317291942E0
6.073520125E0,-1.990365457E0,5.289005363E0,-5.412996156E0,7.825321703E0
6.083486125E0,-7.865835294E-1,5.170108080E0,-5.798343455E0,7.808298024E0
6.093451125E0,-4.729665099E-1,5.450294960E0,-7.609233744E0,9.371758140E0
6.103417125E0,-6.852859269E-1,5.780288422E0,-7.196988083E0,9.256240517E0
6.113382125E0,-2.862150666E-1,6.312404927E0,-4.854026313E0,7.968057886E0
6.123347125E0,6.933360811E-1,6.646514829E0,-2.922478144E0,7.293678962E0
6.133313125E0,1.412126261E0,6.420632211E0,-2.365154293E0,6.986599559E0
6.143278125E0,1.674167623E0,5.862344738E0,-2.285057963E0,6.510868833E0
6.153243125E0,5.721981449E-1,5.758706934E0,-2.360771220E0,6.250068561E0
6.163209125E0,1.922520652E-2,5.807285017E0,-2.615156676E0,6.368985266E0
6.173174125E0,-3.186619972E-1,5.654959787E0,-2.936493920E0,6.379899074E0
6.183140125E0,3.031544504E-1,5.864176086E0,-3.511337199E0,6.841779938E0
6.193105125E0,9.610949962E-1,5.884195783E0,-3.401173317E0,6.864069022E0
6.203070125E0,6.093795660E-1,4.539441433E0,-2.199896775E0,5.081084314E0
6.213036125E0,-2.595947403E-1,2.590165091E0,-2.007070952E0,3.287047069E0
6.223001125E0,-2.803881700E-1,7.953365189E-1,-2.804428707E0,2.928480507E0
6.232966125E0,2.489668411E-1,-1.620147682E0,-3.743118489E0,4.086294045E0
6.242932125E0,7.142889936E-1,-4.238672939E0,-3.355180289E0,5.452870053E0
6.252897125E0,9.377059874E-1,-6.438446338E0,-1.591705510E0,6.698239336E0
6.262862125E0,2.142732933E0,-7.059396667E0,-2.778968176E-1,7.382656186E0
6.272828125E0,3.040191366E0,-6.629442714E0,4.397049160E-1,7.306546014E0
6.282793125E0,2.084559131E0,-5.793583821E0,-7.786750241E-1,6.206233564E0
6.292759125E0,1.158238842E0,-3.652717611E0,-1.669504176E0,4.179845375E0
6.302724125E0,-3.744621223E-1,-2.139841778E0,-1.712226126E0,2.766019346E0
6.312689125E0,-7.484978364E-1,-1.818010443E0,-7.282541911E-1,2.096608011E0
6.322655125E0,-3.067516574E-1,-2.098324792E0,1.253754279E0,2.463526599E0
6.332620125E0,-4.592199983E-1,-3.355147544E0,2.814323366E0,4.403216331E0
6.342585125E0,-9.216474867E-1,-5.367808873E0,3.506067688E0,6.477292399E0
6.352551125E0,-1.372557861E0,-6.966868572E0,3.698612992E0,8.006304444E0
6.362516125E0,-8.453256811E-1,-7.956924974E0,2.811605580E0,8.481294505E0
6.372481125E0,-1.450663798E0,-8.774348765E0,1.107110715E0,8.962104431E0
6.382447125E0,-3.340351165E0,-9.290622824E0,-1.842333399E-2,9.872890042E0
6.392412125E0,-4.439852241E0,-9.295162017E0,-4.262643600E-1,1.030989942E1
6.402378125E0,-4.823058582E0,-8.547365116E0,-2.077274524E-2,9.814263906E0
6.412343125E0,-4.423991668E0,-6.705759403E0,7.219370055E-1,8.065984409E0
6.422308125E0,-3.826484874E0,-4.122809776E0,1.409155583E0,5.798729723E0
6.432274125E0,-3.231684170E0,-1.718808922E0,1.769530009E0,4.065627029E0
6.442239125E0,-2.117962959E0,1.661690980E-1,1.844039909E0,2.813158802E0
6.452204125E0,-1.191294029E0,1.588637037E0,1.600012211E0,2.550095719E0
6.462170125E0,-8.347685333E-1,2.503178403E0,1.407038891E0,2.990401154E0
6.472135125E0,-6.131942895E-1,3.217154424E0,1.288393039E0,3.519381543E0
6.482100125E0,-5.044727696E-1,3.941287644E0,1.033132839E0,4.105557761E0
6.492066125E0,-5.635514286E-1,4.596602644E0,7.441575944E-1,4.690428190E0
6.502031125E0,-4.804220022E-1,5.196753842E0,5.613175364E-1,5.249012590E0
6.511997125E0,-1.762841964E-1,5.882006001E0,6.184155607E-1,5.917052350E0
6.521962125E0,-3.782793309E-1,6.421047948E0,7.772621906E-1,6.478972798E0
6.531927125E0,-7.930350548E-1,6.516949301E0,1.037870180E0,6.646556048E0
6.541893125E0,-7.635873073E-1,6.426899841E0,1.196626836E0,6.581794811E0
6.551858125E0,-6.258790930E-1,6.451722441E0,1.178488919E0,6.588268607E0
6.561823125E0,8.782260633E-1,6.524184061E0,1.220864861E0,6.695279657E0
6.571789125E0,1.230711864E0,6.491530285E0,9.242038894E-1,6.671489337E0
6.581754125E0,3.318148702E-1,5.887262648E0,5.916447417E-1,5.926213470E0
6.591719125E0,-3.715936245E-1,5.800696959E0,6.782080185E-1,5.852019579E0
6.601685125E0,-4.423003489E-1,5.723793209E0,1.055138177E0,5.837015922E0
6.611650125E0,-2.434880000E-1,4.883602114E0,1.126790177E0,5.017819459E0
6.621615125E0,1.020268965E0,3.737008148E0,1.531811603E0,4.165648263E0
6.631581125E0,1.868892476E0,2.573470121E0,2.194190916E0,3.863933401E0
6.641546125E0,3.128912339E0,1.458918312E0,2.831625277E0,4.465046111E0
6.651512125E0,5.142821463E0,1.012246585E-1,3.317897272E0,6.121053941E0
6.661477125E0,6.914648843E0,-2.036813253E0,3.803406790E0,8.150268712E0
6.671442125E0,8.050241858E0,-4.136868821E0,4.209071410E0,9.981801428E0
6.681408125E0,8.739350256E0,-6.003108269E0,4.602721170E0,1.155848580E1
6.691373458E0,8.604463761E0,-6.937179335E0,4.399229879E0,1.189598576E1
6.701338458E0,7.959519383E0,-6.527985921E0,3.613924259E0,1.091004113E1
6.711304458E0,7.263186750E0,-4.636575379E0,2.281603428E0,8.913889568E0
6.721269458E0,6.928947040E0,-2.626174584E0,8.641015291E-1,7.460145540E0
6.731234458E0,6.752216701E0,-1.810711364E0,-1.891983569E-1,6.993346984E0
6.741200458E0,5.906036303E0,-2.002898818E0,-8.372101843E-1,6.292359603E0
6.751165458E0,4.010519554E0,-2.650721780E0,-1.024059130E0,4.915210082E0
6.761131458E0,2.460793691E0,-3.583588319E0,-4.108124348E-1,4.366506348E0
6.771096458E0,1.331289821E0,-4.722711883E0,6.506753073E-1,4.949719029E0
6.781061458E0,4.103429765E-3,-6.036174273E0,1.578250628E0,6.239093824E0
6.791027458E0,-2.043264194E0,-7.741980157E0,2.604955623E0,8.420153153E0
6.800992458E0,-4.772834215E0,-8.513278188E0,2.945558274E0,1.019471262E1
6.810957458E0,-7.130254396E0,-7.941442716E0,2.327627886E0,1.092359335E1
6.820923458E0,-8.323586910E0,-6.653113412E0,5.552442893E-1,1.067025367E1
6.830888458E0,-9.146111813E0,-5.574306217E0,-1.525310815E0,1.081900292E1
6.840853458E0,-9.892467960E0,-4.950301888E0,-2.785278491E0,1.140719893E1
6.850819458E0,-1.011683966E1,-4.558748939E0,-2.727447774E0,1.142679342E1
6.860784458E0,-8.862248204E0,-3.333049162E0,-2.846960185E0,9.887054275E0
6.870749458E0,-6.866181858E0,-1.419720917E0,-3.009976464E0,7.630204394E0
6.880715458E0,-5.982744171E0,2.589801979E-1,-2.699558895E0,6.568707391E0
6.890680458E0,-4.976488059E0,1.758602148E0,-2.268869362E0,5.745074681E0
6.900646458E0,-3.668702437E0,2.956527650E0,-2.484235763E0,5.326524255E0
6.910611458E0,-2.356429077E0,3.715779247E0,-2.881804912E0,5.259712251E0
6.920576458E0,-1.675692869E0,4.245060437E0,-3.723015177E0,5.889764572E0
6.930542458E0,-1.086018127E0,4.290640653E0,-3.689077352E0,5.761798703E0
6.940507458E0,-3.129005894E-2,4.741686097E0,-2.697149842E0,5.455197832E0
6.950472458E0,6.755985524E-1,5.008258905E0,-1.425301500E0,5.250768994E0
6.960438458E0,7.546781972E-2,4.751491878E0,-7.701800430E-1,4.814098852E0
6.970403458E0,-3.997565925E-1,4.911008599E0,-4.032052803E-1,4.943721805E0
6.980368458E0,2.081880668E-1,4.961422123E0,2.092391038E-1,4.970194438E0
6.990334458E0,1.345638303E0,4.933902787E0,2.616301560E-1,5.120799693E0
7.000299458E0,1.758077945E0,4.787191468E0,2.146523830E-1,5.104323252E0
7.010264458E0,1.634588405E0,4.663746221E0,-1.002726587E-1,4.942920460E0
7.020230458E0,2.637088120E0,4.758628989E0,-5.499562868E-1,5.468202221E0
7.030195458E0,2.841369662E0,4.893520162E0,-1.435613065E0,5.837885405E0
7.040161458E0,1.304532962E0,5.421965784E0,-2.691759878E0,6.192341274E0
7.050126458E0,-6.217856035E-2,5.985506980E0,-3.572127192E0,6.970670890E0
7.060091458E0,-2.711903536E-1,6.095110114E0,-4.345436665E0,7.490442665E0
7.070057458E0,-2.461172006E-1,5.273032524E0,-4.501150064E0,6.937275948E0
7.080022458E0,-2.396446252E-1,3.360985404E0,-4.423893435E0,5.560978831E0
7.089987458E0,-2.947786063E-2,1.310340562E0,-4.211469060E0,4.410706631E0
7.099953458E0,3.235765819E-1,-4.009833384E-1,-3.883194387E0,3.917229645E0
7.109918458E0,3.807556267E-1,-2.048840976E0,-2.679959028E0,3.394834986E0
7.119883458E0,-4.280512691E-2,-3.963174357E0,-5.071103024E-1,3.995715721E0
7.129849458E0,5.890157604E-1,-4.956264294E0,9.603361738E-1,5.082690319E0
7.139814458E0,2.193870343E0,-4.856256441E0,1.076287630E0,5.436422423E0
7.149779458E0,3.688072801E0,-4.640682464E0,-1.794854008E-1,5.930432507E0
7.159745458E0,2.309600335E0,-5.137345546E0,-2.148267031E-1,5.636729857E0
7.169710458E0,-1.309738738E0,-5.863549849E0,1.534048748E0,6.200801396E0
7.179675458E0,-2.590578489E0,-5.765841706E0,2.129574506E0,6.670166045E0
7.189641458E0,-1.812705411E0,-6.310065456E0,1.178980962E0,6.670294077E0
7.199606458E0,-8.622346593E-1,-7.019782950E0,1.526078993E0,7.235310523E0
7.209572458E0,5.146836162E-2,-7.848560865E0,2.825902022E0,8.341958935E0
7.219537458E0,-3.694535436E-1,-8.062930316E0,3.372527808E0,8.747644541E0
7.229502458E0,-3.040376723E-2,-7.847727052E0,2.652211651E0,8.283837934E0
7.239468458E0,8.788423598E-2,-7.598283078E0,1.850929098E0,7.820969754E0
7.249433458E0,-4.717255846E-2,-7.409430292E0,1.176990716E0,7.502478900E0
7.259398458E0,5.236836505E-1,-6.565311622E0,9.832877377E-1,6.659160310E0
7.269364458E0,5.624689628E-1,-4.492608744E0,1.432878907E0,4.749004803E0
7.279329458E0,5.031086142E-1,-1.859295294E0,1.887255510E0,2.696633203E0
7.289294458E0,5.038925797E-1,5.517573023E-1,2.214365126E0,2.337040172E0
7.299260458E0,-1.513526921E-1,2.338485727E0,2.297098550E0,3.281476021E0
7.309225458E0,-1.642987199E-1,3.857940263E0,1.906398125E0,4.306396515E0
7.319190458E0,7.116880059E-2,5.115576947E0,1.344993501E0,5.289914935E0
7.329156458E0,-2.995244989E-1,5.957319893E0,9.416332698E-1,6.038712482E0
7.339121458E0,-3.755051194E-1,6.717659072E0,5.447804046E-1,6.750165419E0
7.349087458E0,-5.509600344E-1,7.383809547E0,-1.792405486E-2,7.404358288E0
7.359052458E0,-1.186110765E0,7.732267347E0,-4.247985361E-1,7.834237095E0
7.369017458E0,-1.180848417E0,8.075385470E0,-6.298621432E-1,8.185534789E0
7.378983458E0,-1.405294082E0,8.161668153E0,-5.210044563E-1,8.298139800E0
7.388948458E0,-2.026135653E0,8.041955184E0,-8.884135209E-2,8.293742319E0
7.398913458E0,-2.538042718E0,7.599632031E0,5.007203921E-1,8.027875731E0
7.408879458E0,-2.608439394E0,6.710792102E0,1.094598697E0,7.282639152E0
7.418844458E0,-2.731131520E0,5.501428276E0,1.401344288E0,6.299885576E0
7.428809458E0,-2.786482141E0,4.356959773E0,1.242169629E0,5.318887719E0
7.438775458E0,-2.177166456E0,3.317859850E0,7.853856542E-1,4.045377409E0
7.448740458E0,-7.782429148E-1,2.561929471E0,2.606489933E-1,2.690182624E0
7.458705458E0,1.154817782E0,1.766877712E0,7.818896770E-3,2.110810767E0
7.468671458E0,2.506856594E0,4.126836169E-1,7.034894787E-2,2.541571703E0
7.478636458E0,2.729945705E0,-1.197005151E0,2.652934366E-1,2.992625184E0
7.488601458E0,2.857750636E0,-2.516601856E0,2.556636572E-1,3.816462695E0
7.498567458E0,3.741267260E0,-3.684152827E0,7.143645689E-2,5.251206141E0
7.508532458E0,5.360598671E0,-4.393339979E0,-1.106470080E-1,6.931788878E0
7.518497458E0,6.391074536E0,-4.741190253E0,-4.942038895E-1,7.973014250E0
7.528463458E0,6.431373546E0,-4.865105032E0,-1.213117885E0,8.154965829E0
7.538428458E0,6.217599342E0,-4.080587617E0,-2.411146298E0,7.818143216E0
7.548394458E0,6.061286895E0,-2.681115607E0,-3.638569688E0,7.560870922E0
7.558359458E0,5.716788245E0,-1.230293350E0,-4.456053706E0,7.351986411E0
7.568324458E0,5.278693213E0,-5.018846458E-1,-4.300520985E0,6.827222787E0
7.578290458E0,5.274989002E0,-1.507861846E0,-2.523097235E0,6.038640243E0
7.588255458E0,5.693040948E0,-4.466009175E0,-1.303440848E-1,7.236915280E0
7.598220458E0,5.161067115E0,-7.030907863E0,1.466463559E0,8.844252061E0
7.608186458E0,3.529970814E0,-7.340154235E0,2.285213499E0,8.459359247E0
7.618151458E0,1.501615558E0,-6.565100538E0,2.539296946E0,7.197459505E0
7.628116458E0,-3.121316805E-1,-6.141099050E0,2.724718294E0,6.725668258E0
7.638082458E0,-1.227050484E0,-6.403980510E0,2.817723522E0,7.103251728E0
7.648047458E0,-2.238755324E0,-6.895164167E0,2.883427807E0,7.801888887E0
7.658012458E0,-4.059691714E0,-6.613991446E0,2.522970351E0,8.160352876E0
7.667978458E0,-6.095656829E0,-5.471958309E0,1.886191902E0,8.405776573E0
7.677943458E0,-6.948047554E0,-4.612969000E0,1.469523700E0,8.468432424E0
7.687908250E0,-7.211893805E0,-4.312833175E0,1.408987768E0,8.520398394E0
7.697874250E0,-7.886666000E0,-3.882396242E0,1.556508195E0,8.927217872E0
7.707839250E0,-8.406453651E0,-3.467716386E0,1.911331421E0,9.292292920E0
7.717804250E0,-8.716402273E0,-2.925185990E0,2.011735861E0,9.411666316E0
7.727770250E0,-7.848373169E0,-1.208560418E0,1.449102007E0,8.072018107E0
7.737735250E0,-6.480481972E0,1.210770081E0,5.014659852E-1,6.611662341E0
7.747701250E0,-5.523421408E0,3.173194472E0,-2.817333220E-1,6.376262296E0
7.757666250E0,-4.728376080E0,4.585297052E0,-8.369237439E-1,6.639497780E0
7.767631250E0,-4.169127325E0,5.509216767E0,-1.447020983E0,7.058821556E0
7.777597250E0,-3.128228214E0,6.214165272E0,-1.954781495E0,7.226536687E0
7.787562250E0,-2.123533601E0,6.620204698E0,-2.161213351E0,7.280614558E0
7.797527250E0,-1.592823059E0,6.844123237E0,-2.287702659E0,7.390040029E0
7.807493250E0,-1.627280116E0,6.738389205E0,-1.947446748E0,7.200449881E0
7.817458250E0,-1.876847174E0,6.521574449E0,-1.099439095E0,6.874754900E0
7.827423250E0,-2.702915489E0,6.783826164E0,-6.808170462E-1,7.334136719E0
7.837389250E0,-2.742868344E0,6.868763988E0,5.649287403E-1,7.417707864E0
7.847354250E0,-2.342612692E0,6.836870350E0,1.569551725E0,7.395547514E0
7.857319250E0,-1.993802158E0,6.453764874E0,1.722432003E0,6.970875131E0
7.867285250E0,-1.526576591E0,6.101169584E0,1.988718881E0,6.596188988E0
7.877250250E0,-1.228577046E0,5.253261918E0,1.926846861E0,5.728778331E0
7.887215250E0,-7.624807218E-1,4.200895833E0,1.807036389E0,4.636192744E0
7.897181250E0,-8.381382836E-1,3.206108449E0,7.491629572E-1,3.397477344E0
7.907146250E0,-2.652862738E-1,2.311285649E0,-6.621338765E-1,2.418850849E0
7.917111250E0,9.315175867E-1,1.308214515E0,-2.125936368E0,2.664349015E0
7.927077250E0,1.851700638E0,-1.612048119E-1,-3.793105166E0,4.224029953E0
7.937042250E0,2.624220445E0,-1.999883993E0,-5.104652009E0,6.078119862E0
7.947007250E0,3.112585743E0,-3.486049746E0,-5.252228715E0,7.030408190E0
7.956973250E0,2.789698402E0,-4.547629289E0,-3.621186501E0,6.447971851E0
7.966938250E0,2.333781788E0,-5.119219177E0,-1.405829687E0,5.799077472E0
7.976903250E0,2.383776797E0,-4.779205926E0,-5.708452454E-1,5.371132599E0
7.986869250E0,4.946236904E0,-4.080064291E0,-2.157679001E0,6.765187566E0
7.996834250E0,7.645266625E0,-3.659721991E0,-4.056625434E0,9.396801410E0
8.006799250E0,3.972157434E0,-3.674879143E0,-1.485160324E0,5.611459043E0
8.016765250E0,1.207731137E0,-3.771978006E0,9.725931072E-1,4.078280267E0
8.026730250E0,1.591424990E0,-5.183555506E0,7.760564947E-1,5.477603935E0
8.036696250E0,2.142555909E0,-7.406676253E0,-5.322626853E-1,7.728693454E0
8.046661250E0,1.601569909E0,-8.441328199E0,-3.494342852E-1,8.599020424E0
8.056626250E0,3.878984392E-1,-7.266868157E0,2.388943251E0,7.659300743E0
8.066592250E0,5.306115778E-1,-5.307973146E0,3.753533842E0,6.522663863E0
8.076557250E0,-6.041021615E-2,-3.786325319E0,3.262172137E0,4.998167251E0
8.086522250E0,-7.759816504E-1,-2.459391528E0,2.446823523E0,3.554954228E0
8.096488250E0,-1.045005172E0,-1.361588484E0,1.901719329E0,2.561736797E0
8.106453250E0,-1.198492244E0,-9.741297555E-1,1.484947339E0,2.142517454E0
8.116418250E0,-1.012232844E0,-8.267027378E-1,1.572038985E0,2.044348140E0
8.126384250E0,-9.508511129E-1,-4.507121533E-1,2.139524274E0,2.384286770E0
8.136349250E0,-5.954430199E-1,1.224401110E-1,2.747417185E0,2.813866585E0
8.146314250E0,-2.751287457E-1,6.913016886E-1,3.064476607E0,3.153507686E0
8.156280250E0,-4.206473784E-1,1.332030224E0,3.317586200E0,3.599670392E0
8.166245250E0,-6.322956812E-1,2.163287943E0,3.310019903E0,4.004478032E0
8.176210250E0,-7.021033962E-1,3.152649695E0,2.876075810E0,4.324807666E0
8.186176250E0,-7.475263216E-1,4.274010002E0,2.178008308E0,4.854861202E0
8.196141250E0,-9.311250924E-1,5.169506401E0,1.390000105E0,5.433497093E0
8.206106250E0,-1.159157878E0,5.781401147E0,7.521846521E-1,5.944243262E0
8.216072250E0,-1.275496420E0,6.072939227E0,3.140679860E-1,6.213382385E0
8.226037250E0,-1.206932992E0,6.240152637E0,-1.651253700E-2,6.355821336E0
8.236002250E0,-1.131196493E0,6.325998534E0,-1.855374151E-1,6.429019139E0
8.245968250E0,-1.189697886E0,6.249294759E0,-2.078913206E-1,6.364926146E0
8.255933250E0,-1.281854390E0,6.012620519E0,-1.870003885E-1,6.150587397E0
8.265898250E0,-1.300525134E0,5.719139995E0,-3.301374502E-3,5.865146103E0
8.275864250E0,-1.264957544E0,5.350980002E0,3.066051847E-1,5.507005657E0
8.285829250E0,-1.309309991E0,4.719146250E0,6.313092560E-1,4.937933309E0
8.295794250E0,-1.162012343E0,3.756257182E0,9.336775482E-1,4.041224377E0
8.305760250E0,-8.423418470E-1,2.292460538E0,1.267197466E0,2.751491327E0
8.315725250E0,-7.303855012E-1,8.342298585E-1,1.435894901E0,1.814165539E0
8.325690250E0,-8.302379644E-1,-1.812057978E-1,1.283336951E0,1.539183013E0
8.335656250E0,-7.369887619E-1,-9.147419250E-1,8.867244065E-1,1.471796656E0
8.345621250E0,3.890342608E-1,-1.377911571E0,3.930731519E-1,1.484754006E0
8.355587250E0,1.737314774E0,-1.787872140E0,-1.752827145E-2,2.493001535E0
8.365552250E0,2.820180229E0,-1.764510174E0,-4.037362806E-1,3.351106633E0
8.375517250E0,3.826080539E0,-1.956984726E0,-6.220151067E-1,4.342301728E0
8.385483250E0,4.825036987E0,-2.540135145E0,-7.148775159E-1,5.499483461E0
8.395448250E0,5.275288380E0,-3.115587704E0,-9.240645795E-1,6.195922012E0
8.405413250E0,5.522540817E0,-3.512865661E0,-1.194363233E0,6.653208682E0
8.415379250E0,5.860415157E0,-3.353944772E0,-1.727645819E0,6.969804260E0
8.425344250E0,6.250067761E0,-2.702354448E0,-2.499723868E0,7.253598141E0
8.435309250E0,6.933368704E0,-2.944488818E0,-2.531045940E0,7.946559604E0
8.445275250E0,7.748222644E0,-5.284314142E0,-1.264238483E0,9.463468129E0
8.455240250E0,7.727680791E0,-7.444034114E0,8.941138253E-2,1.073026974E1
8.465205250E0,6.611419841E0,-7.518570911E0,7.418666553E-1,1.003942961E1
8.475171250E0,4.848280254E0,-5.839883244E0,9.623708586E-1,7.650896379E0
8.485136250E0,2.909471305E0,-4.641106972E0,1.193063981E0,5.606094796E0
8.495101250E0,1.615224327E0,-5.218925899E0,1.632181106E0,5.701767474E0
8.505067250E0,1.070783061E-1,-5.906437422E0,1.930588641E0,6.214872588E0
8.515032250E0,-1.833499425E0,-5.639249488E0,1.786908957E0,6.193213911E0
8.524997250E0,-3.712439025E0,-4.639163357E0,1.232964942E0,6.068298173E0
8.534963250E0,-4.799788710E0,-3.913035652E0,8.015854383E-1,6.244386190E0
8.544928250E0,-5.184355990E0,-3.576662292E0,6.734767440E-1,6.334321677E0
8.554893250E0,-5.597076445E0,-3.063125900E0,8.050540066E-1,6.431027675E0
8.564859250E0,-6.890997441E0,-2.331526955E0,6.282412219E-1,7.301818315E0
8.574824250E0,-9.026290669E0,-2.709688611E0,5.178586543E-1,9.438459260E0
8.584789250E0,-9.146372598E0,-3.100282032E0,8.079168034E-1,9.691264621E0
8.594755250E0,-7.754386779E0,-1.953439559E0,6.695687574E-1,8.024634743E0
8.604720250E0,-6.770722554E0,-2.972525632E-1,4.129537582E-2,6.777370308E0
8.614685250E0,-5.524055831E0,1.728342807E0,-3.593225116E-1,5.799264983E0
8.624651250E0,-4.702303638E0,3.630207000E0,-8.917759623E-1,6.007106353E0
8.634616250E0,-3.981123847E0,5.308792341E0,-1.721626695E0,6.855408207E0
8.644581250E0,-2.787448685E0,6.412136207E0,-2.410888290E0,7.395792267E0
8.654547250E0,-1.573153756E0,7.235755123E0,-2.933125339E0,7.964558318E0
8.664512250E0,-1.051355102E0,7.570097160E0,-3.331366918E0,8.337249193E0
8.674477250E0,-7.223090346E-1,7.528490712E0,-3.326842343E0,8.262432010E0
8.684443250E0,-1.049907916E0,7.178483400E0,-2.802608469E0,7.777373900E0
8.694407833E0,-1.401520289E0,6.811660080E0,-2.056121929E0,7.251938331E0
8.704372833E0,-1.473293107E0,6.356898145E0,-2.352975712E0,6.936659232E0
8.714338833E0,-1.614749387E0,5.910250976E0,-1.734295711E0,6.367594820E0
8.724303833E0,-2.051633606E0,5.121148759E0,-8.488940176E-1,5.581754752E0
8.734268833E0,-1.930975580E0,4.430877934E0,-7.587428161E-1,4.892549092E0
8.744234833E0,-9.823813462E-1,4.160351239E0,-1.169361269E-1,4.276361725E0
8.754199833E0,-5.599723479E-1,3.583179014E0,1.954899609E-1,3.631935738E0
8.764165833E0,-6.989027765E-1,2.852278812E0,-3.186101031E-1,2.953890978E0
8.774130833E0,-3.216388147E-1,2.046568748E0,-1.013377363E0,2.306258625E0
8.784095833E0,-3.072466242E-1,8.002534425E-1,-2.261986020E0,2.418963996E0
8.794061833E0,3.662039535E-1,-4.171391952E-1,-3.845339513E0,3.885195801E0
8.804026833E0,1.161794534E0,-1.837067689E0,-5.312286637E0,5.739771210E0
8.813991833E0,1.387029427E0,-3.358677508E0,-5.616939436E0,6.689885938E0
8.823957833E0,2.027476858E0,-4.153023509E0,-4.525551957E0,6.468298632E0
8.833922833E0,3.510938419E0,-4.236044616E0,-2.592487020E0,6.082084472E0
8.843887833E0,5.278366354E0,-3.747379940E0,-1.015818064E0,6.552548674E0
8.853852833E0,6.669718335E0,-3.541327568E0,-1.209041791E0,7.647739906E0
8.863818833E0,5.767328653E0,-4.554667583E0,-1.645787869E0,7.530982293E0
8.873783833E0,2.093141090E0,-5.661225663E0,-6.030935168E-1,6.065841856E0
8.883749833E0,2.891167474E-1,-5.503904572E0,-7.402121857E-2,5.511989946E0
8.893714833E0,1.248295757E0,-5.460458590E0,3.439178757E-1,5.611874002E0
8.903679833E0,1.217483123E0,-6.329816181E0,4.274511985E-1,6.459996329E0
8.913645833E0,1.570766631E0,-7.439853355E0,4.642325239E-1,7.618020582E0
8.923610833E0,1.686489753E0,-8.352223064E0,5.629617369E-1,8.539367876E0
8.933575833E0,1.302089849E0,-7.847703663E0,3.378963400E-1,7.962164573E0
8.943541833E0,3.844118907E-1,-6.500186504E0,1.584120356E-2,6.511562641E0
8.953506833E0,-8.509711678E-1,-4.960931541E0,3.773851454E-1,5.047515551E0
8.963471833E0,-1.647873279E0,-3.567975084E0,7.633282026E-1,4.003573715E0
8.973437833E0,-1.998110094E0,-2.310161229E0,1.266812135E0,3.306675345E0
8.983402833E0,-2.326128514E0,-1.432667822E0,1.818302804E0,3.281712364E0
8.993367833E0,-2.646991841E0,-8.388181686E-1,2.242574433E0,3.569218656E0
9.003333833E0,-2.995568925E0,-2.216860718E-1,2.645800763E0,4.002853929E0
9.013298833E0,-3.350442874E0,5.079300821E-1,2.877881430E0,4.445858967E0
9.023263833E0,-3.686133572E0,1.434752355E0,2.852175901E0,4.876576914E0
9.033229833E0,-3.744753663E0,2.674153912E0,2.589899043E0,5.280327281E0
9.043194833E0,-3.559719693E0,3.961337746E0,2.150920497E0,5.743714827E0
9.053159833E0,-3.473884029E0,5.075325884E0,1.515726936E0,6.334369046E0
9.063125833E0,-3.476596844E0,5.959657025E0,8.247532761E-1,6.948701709E0
9.073090833E0,-3.416809649E0,6.558883193E0,3.851034701E-1,7.405527773E0
9.083055833E0,-3.139828798E0,6.843109914E0,2.872912649E-1,7.534534786E0
9.093021833E0,-2.730702042E0,6.795607134E0,5.630904122E-1,7.345344156E0
9.102986833E0,-2.434262534E0,6.628067449E0,7.506117511E-1,7.100727441E0
9.112951833E0,-2.097789626E0,6.373239359E0,9.286150289E-1,6.773568270E0
9.122917833E0,-1.913044362E0,5.996838884E0,1.108644952E0,6.391471581E0
9.132882833E0,-1.789389346E0,5.560161803E0,1.313778141E0,5.986929639E0
9.142847833E0,-1.650293880E0,4.928202921E0,1.516190035E0,5.413823616E0
9.152813833E0,-1.339559099E0,4.240590826E0,1.609491717E0,4.729428371E0
9.162778833E0,-1.037240508E0,3.359857476E0,1.765110683E0,3.934479109E0
9.172743833E0,-6.969137000E-1,2.388660100E0,1.846818506E0,3.098729476E0
9.182709833E0,2.983236270E-1,1.523168103E0,1.875970384E0,2.434810657E0
9.192674833E0,1.662012577E0,4.636029249E-1,1.953247186E0,2.606221028E0
9.202639833E0,3.157832667E0,-5.807706016E-1,1.991303204E0,3.778159618E0
9.212605833E0,4.523404567E0,-1.542524140E0,1.977604347E0,5.172184118E0
9.222570833E0,5.545740230E0,-2.450075744E0,1.991161702E0,6.381444255E0
9.232535833E0,6.169845716E0,-3.348775833E0,2.117959158E0,7.332601635E0
9.242501833E0,6.662309913E0,-3.842421752E0,1.799601070E0,7.898679783E0
9.252466833E0,7.318072810E0,-3.191644776E0,1.004647543E0,8.046744852E0
9.262431833E0,7.386825541E0,-2.042833546E0,1.855263054E-1,7.666340749E0
9.272397833E0,6.888052783E0,-1.294543725E0,-5.299138588E-1,7.028650176E0
9.282362833E0,6.705727828E0,-1.201356064E0,-7.241390669E-1,6.850869980E0
9.292327833E0,7.416849239E0,-2.476053169E0,-2.596059231E-1,7.823546968E0
9.302293833E0,7.924067130E0,-4.752101158E0,3.049661370E-1,9.244799059E0
9.312258833E0,7.091715982E0,-5.504182314E0,5.689476047E-1,8.995118670E0
9.322223833E0,5.325189103E0,-4.578531824E0,7.967685020E-1,7.067915724E0
9.332189833E0,4.050760385E0,-3.747443089E0,1.248613700E0,5.657828698E0
9.342154833E0,2.917585194E0,-3.938594416E0,1.952217930E0,5.275981822E0
9.352119833E0,1.610310765E0,-4.001253764E0,2.415326765E0,4.943372920E0
9.362085833E0,1.131848457E-1,-3.675166826E0,2.456892428E0,4.422214650E0
9.372050833E0,-1.394618674E0,-3.064083674E0,2.327065384E0,4.092530184E0
9.382015833E0,-2.600846785E0,-2.912924963E0,2.023141147E0,4.398026369E0
9.391981833E0,-3.194601421E0,-3.302447759E0,1.734671102E0,4.911285297E0
9.401946833E0,-3.915837638E0,-3.576401507E0,1.194916525E0,5.436198823E0
9.411911833E0,-4.754721880E0,-3.489209581E0,5.545174804E-1,5.923635142E0
9.421877833E0,-6.194093535E0,-3.117910218E0,-4.132139593E-1,6.946862934E0
9.431842833E0,-7.758142446E0,-3.229397909E0,-2.022280291E0,8.643344413E0
9.441807833E0,-8.864188310E0,-3.769528608E0,-4.227858806E0,1.051940922E1
9.451773833E0,-9.368829918E0,-3.777456847E0,-5.570742339E0,1.153591455E1
9.461738833E0,-8.464648064E0,-2.319996246E0,-5.743994755E0,1.048933388E1
9.471703833E0,-6.331151685E0,1.258203864E-1,-5.228587253E0,8.212030023E0
9.481669833E0,-4.772324923E0,2.379923775E0,-4.420576310E0,6.926804259E0
9.491634833E0,-3.506407996E0,3.943697281E0,-3.675353937E0,6.430853120E0
9.501599833E0,-2.937397607E0,4.742049209E0,-3.523962507E0,6.598003271E0
9.511565833E0,-2.931262124E0,5.256574366E0,-3.226009448E0,6.828690113E0
9.521530833E0,-2.546421486E0,5.242187877E0,-2.043439318E0,6.175794715E0
9.531495833E0,-1.556998338E0,5.303611708E0,-4.789278924E-1,5.548144996E0
9.541461833E0,-9.903578255E-1,5.244102255E0,3.380064869E-1,5.347491512E0
9.551426833E0,-8.606677517E-1,4.943068298E0,3.856704673E-2,5.017585135E0
9.561391833E0,-1.697475501E0,4.561300079E0,-3.406237006E-2,4.867036237E0
9.571357833E0,-2.162612882E0,4.109819602E0,1.024455571E-1,4.645213314E0
9.581322833E0,-8.244524369E-1,3.850733569E0,-5.799958456E-1,3.980485652E0
9.591287833E0,2.447068521E-1,3.914565284E0,-9.331770265E-1,4.031689741E0
9.601253833E0,4.340471502E-1,4.114732432E0,-1.510699500E0,4.404728470E0
9.611218833E0,1.124751399E-1,3.971328299E0,-2.247719983E0,4.564684462E0
9.621183833E0,6.368664497E-1,3.635706307E0,-2.825702047E0,4.648499896E0
9.631149833E0,1.622906106E0,2.906096585E0,-3.005408034E0,4.484606900E0
9.641114833E0,1.564895003E0,1.956874214E0,-3.289379232E0,4.135005295E0
9.651079833E0,1.093072939E0,8.965284330E-1,-3.751695185E0,4.009212945E0
9.661045833E0,6.900328428E-1,-3.985877341E-1,-3.993500941E0,4.072231240E0
9.671010833E0,5.230350481E-1,-1.418991185E0,-3.414055903E0,3.734016517E0
9.680975833E0,1.327629025E0,-1.623082400E0,-2.546324422E0,3.298600214E0
9.690941833E0,2.252267947E0,-1.478748559E0,-7.241437447E-1,2.789944869E0
9.700906833E0,2.226510378E0,-1.519458629E0,1.009844695E0,2.878522068E0
9.710871833E0,2.471876503E0,-1.924566593E0,7.289572457E-1,3.216443484E0
9.720837833E0,3.269239082E0,-2.507966103E0,-1.078178473E0,4.259141577E0
9.730802833E0,2.316665087E0,-4.323516038E0,-2.227414796E0,5.387123976E0
9.740767833E0,1.136761142E0,-6.072803571E0,-1.612185967E0,6.385163483E0
9.750733833E0,-5.761553943E-3,-6.815599934E0,-2.741946530E-1,6.821115624E0
9.760698833E0,9.038128942E-2,-7.809178698E0,1.228321084E0,7.905707647E0
9.770663833E0,8.038012406E-1,-9.231878187E0,2.618404219E0,9.629626781E0
9.780629833E0,4.199183768E-1,-1.016077213E1,3.372834202E0,1.071417903E1
9.790594833E0,1.422640724E-1,-8.673988910E0,2.776345700E0,9.108590347E0
9.800559833E0,-8.883192345E-1,-5.847672320E0,1.347313092E0,6.066270287E0
9.810524833E0,-2.031802482E0,-4.642826053E0,4.632678795E-1,5.089073807E0
9.820490833E0,-3.000215707E0,-4.676142903E0,-1.687997421E-1,5.558426044E0
9.830455833E0,-3.241751906E0,-4.845697539E0,8.938287735E-2,5.830757186E0
9.840421833E0,-3.003641006E0,-4.519651532E0,1.159191792E0,5.549129199E0
9.850386833E0,-2.426410893E0,-3.148281240E0,1.999078832E0,4.449209005E0
9.860351833E0,-1.653590979E0,-1.378580493E0,2.555697509E0,3.341621920E0
9.870316833E0,-1.669977508E0,1.195849156E-1,2.762992998E0,3.230674193E0
9.880282833E0,-1.693671595E0,1.608321104E0,2.522283010E0,3.437605537E0
9.890247833E0,-1.669011840E0,3.028012201E0,2.188925060E0,4.092169514E0
9.900212833E0,-1.368341580E0,4.301860875E0,1.803257918E0,4.861080619E0
9.910178833E0,-1.333318366E0,5.216888144E0,1.493459569E0,5.587851220E0
9.920143833E0,-1.669479764E0,5.757149820E0,1.109569981E0,6.096153072E0
9.930108833E0,-1.699761470E0,6.218033205E0,7.460474145E-1,6.489199700E0
9.940074833E0,-1.671968046E0,6.516037136E0,5.306628871E-1,6.748023429E0
9.950039833E0,-1.548272246E0,6.601819298E0,5.096199274E-1,6.800064519E0
9.960004833E0,-1.276267083E0,6.707244596E0,8.087938857E-1,6.875328013E0
9.969970833E0,-1.322801271E0,6.700632564E0,8.857058215E-1,6.887144166E0
9.979935833E0,-1.299205417E0,6.528717408E0,8.618409956E-1,6.712291383E0
9.989900833E0,-1.402218301E0,6.181406831E0,9.870181882E-1,6.414843060E0
9.999866833E0,-8.062963937E-1,5.893250197E0,8.855912161E-1,6.013716285E0
1.000983183E1,-4.471722490E-1,5.338617818E0,7.011454761E-1,5.402999927E0
1.001979683E1,8.065605417E-2,4.593663248E0,8.085904026E-1,4.664982945E0
1.002976283E1,-3.064514029E-1,3.692267593E0,9.272292387E-1,3.819228522E0
1.003972783E1,1.458529472E-1,2.545265492E0,9.989546943E-1,2.738167268E0
1.004969283E1,1.048468186E0,1.744431421E0,1.021622010E0,2.277287432E0
1.005965883E1,1.841208102E0,5.927790284E-1,9.810774171E-1,2.168858490E0
1.006962383E1,2.864130533E0,-5.840198994E-1,1.078376255E0,3.115640914E0
1.007958883E1,3.549844038E0,-1.582154814E0,1.232205389E0,4.077123578E0
1.008955483E1,4.086233688E0,-2.201002484E0,1.216850016E0,4.798170657E0
1.009951983E1,4.456035579E0,-2.476120412E0,1.170938264E0,5.230537429E0
1.010948483E1,4.879207347E0,-2.725045153E0,9.599783242E-1,5.670457989E0
1.011945083E1,5.486376958E0,-2.868690192E0,6.414044738E-1,6.224236117E0
1.012941583E1,5.624868261E0,-2.744126957E0,3.641586705E-1,6.269129704E0
1.013938083E1,5.684090615E0,-2.147689911E0,-1.555751858E-1,6.078294309E0
1.014934683E1,5.745849491E0,-1.799380630E0,-5.046192424E-1,6.042118636E0
1.015931183E1,6.127036496E0,-2.739448600E0,-2.017896049E-1,6.714601545E0
1.016927683E1,6.611460772E0,-4.619234877E0,5.505456861E-1,8.084048796E0
1.017924283E1,6.413405052E0,-5.699486334E0,9.872450602E-1,8.636582753E0
1.018920783E1,5.615655388E0,-5.277123821E0,1.090490370E0,7.782852337E0
1.019917283E1,4.391720008E0,-4.245189076E0,1.193757023E0,6.223655738E0
1.020913883E1,3.569287784E0,-3.862698142E0,1.530424497E0,5.477449348E0
1.021910383E1,2.190088217E0,-3.751178291E0,1.938044425E0,4.756452582E0
1.022906883E1,3.585477555E-1,-3.577836413E0,2.179930288E0,4.204945416E0
1.023903383E1,-1.343913374E0,-3.332749785E0,2.308111196E0,4.270913436E0
1.024899983E1,-2.802685652E0,-3.833470250E0,2.305606102E0,5.278859775E0
1.025896483E1,-3.753695810E0,-4.754415486E0,2.313480694E0,6.484357467E0
1.026892983E1,-4.729096457E0,-5.257045067E0,1.875102511E0,7.315523602E0
1.027889583E1,-5.688359667E0,-5.292969775E0,7.762424362E-1,7.808682159E0
1.028886083E1,-7.819434714E0,-5.284811155E0,-1.124621884E0,9.504607439E0
1.029882583E1,-1.185789724E1,-5.998612930E0,-4.412862370E0,1.400237259E1
1.030879183E1,-1.324921296E1,-6.288452393E0,-6.700901536E0,1.612415452E1
1.031875683E1,-1.097245103E1,-4.709670838E0,-5.916021008E0,1.332572646E1
1.032872183E1,-8.197415106E0,-1.540109240E0,-4.805863967E0,9.626311826E0
1.033868783E1,-6.805269658E0,1.215833185E0,-3.113585617E0,7.581844159E0
1.034865283E1,-6.145669234E0,3.017864358E0,-2.003306515E0,7.133722213E0
1.035861783E1,-4.455996403E0,4.377565945E0,-1.320173240E0,6.384500367E0
1.036858383E1,-2.968545140E0,5.462202814E0,-8.501091421E-1,6.274600018E0
1.037854883E1,-2.324576078E0,5.919365031E0,-1.032411878E0,6.442702119E0
1.038851383E1,-1.800681197E0,6.094462827E0,-1.707103381E0,6.580207586E0
1.039847983E1,-5.142776732E-1,6.066371634E0,-1.973137659E0,6.399892073E0
1.040844483E1,-3.523283646E-2,5.638957711E0,-2.447107698E0,6.147147429E0
1.041840983E1,-6.810982972E-3,5.085777197E0,-3.453685407E0,6.147610835E0
1.042837583E1,4.406707299E-1,4.628292214E0,-3.982309370E0,6.121606605E0
1.043834083E1,9.290364669E-1,4.089950178E0,-3.890368921E0,5.720644330E0
1.044830583E1,1.364125006E0,3.656455151E0,-3.301810412E0,5.111991129E0
1.045827183E1,1.409376900E0,3.427392817E0,-2.496977431E0,4.468586025E0
1.046823683E1,2.419595086E0,3.495784190E0,-2.126410139E0,4.753584707E0
1.047820183E1,3.693366870E0,3.936902232E0,-1.615468740E0,5.634704719E0
1.048816783E1,3.642319508E0,4.224389945E0,-1.097217153E0,5.684702920E0
1.049813283E1,2.246880907E0,4.114680977E0,-1.159397614E0,4.829417789E0
1.050809783E1,7.936976905E-1,4.007944733E0,-1.599399422E0,4.387670853E0
1.051806383E1,9.634618029E-2,3.681485912E0,-2.553189054E0,4.481227003E0
1.052802883E1,-1.660732037E-1,3.205495661E0,-3.307327845E0,4.608817659E0
1.053799383E1,-2.477533977E-1,2.628622229E0,-3.545424128E0,4.420528114E0
1.054795983E1,-2.062760273E-1,1.921085161E0,-3.641357056E0,4.122208050E0
1.055792483E1,-6.676818609E-2,7.249290258E-1,-3.698045812E0,3.769021479E0
1.056788983E1,1.644102556E-1,-7.371736801E-1,-2.696447006E0,2.800228959E0
1.057785483E1,7.007132207E-1,-1.850766546E0,-8.684926419E-1,2.161160636E0
1.058782083E1,2.202106146E0,-3.472943212E0,-1.147769402E0,4.269423923E0
1.059778583E1,2.887265627E0,-6.492942973E0,-3.753120736E0,8.036201000E0
1.060775083E1,8.553153567E-1,-8.484240915E0,-2.930070169E0,9.016607979E0
1.061771683E1,-1.287141881E0,-8.968837098E0,2.024070708E-1,9.062987462E0
1.062768183E1,-1.397858032E0,-8.563617452E0,1.399920345E0,8.789159682E0
1.063764683E1,-7.685627031E-1,-8.293504155E0,4.354013653E-1,8.340412109E0
1.064761283E1,-1.271229999E0,-8.128060697E0,-1.459793933E-1,8.228165432E0
1.065757783E1,-1.216690387E0,-7.392083357E0,2.561467834E-1,7.495921760E0
1.066754283E1,-9.332167876E-1,-6.047842977E0,7.623016508E-1,6.166717283E0
1.067750883E1,-1.211184064E0,-4.881080210E0,6.472376561E-1,5.070584526E0
1.068747383E1,-2.412065919E0,-4.331990408E0,4.032532275E-1,4.974617177E0
1.069743871E1,-2.977195219E0,-4.054568092E0,5.081511068E-1,5.055831418E0
1.070740471E1,-2.933597794E0,-3.928865234E0,7.994523740E-1,4.968007865E0
1.071736971E1,-2.859639287E0,-3.632461102E0,1.260905278E0,4.791888211E0
1.072733471E1,-2.421432574E0,-2.860648516E0,1.794687070E0,4.155423844E0
1.073730071E1,-2.396649443E0,-1.764186823E0,2.208082877E0,3.705659684E0
1.074726571E1,-2.223222488E0,-5.959137207E-1,2.342002827E0,3.283718721E0
1.075723071E1,-1.952631474E0,4.104312694E-1,2.335367407E0,3.071671275E0
1.076719671E1,-1.820176691E0,1.325174364E0,2.273422004E0,3.199621523E0
1.077716171E1,-1.663441198E0,2.241602041E0,2.061261631E0,3.469959055E0
1.078712671E1,-1.373358637E0,3.177358859E0,1.687697057E0,3.850979696E0
1.079709271E1,-1.177418294E0,3.928576382E0,1.276945360E0,4.295417986E0
1.080705771E1,-1.264588147E0,4.460702242E0,8.755913079E-1,4.718443368E0
1.081702271E1,-1.196921243E0,4.995727737E0,5.009426594E-1,5.161478435E0
1.082698771E1,-9.956808382E-1,5.461514597E0,2.101980472E-1,5.555511249E0
1.083695371E1,-5.852223793E-1,5.752731664E0,7.549398601E-2,5.782915024E0
1.084691871E1,-7.336013237E-1,5.870210997E0,1.374089831E-1,5.917468148E0
1.085688371E1,-7.226652762E-1,5.858134743E0,1.909449202E-1,5.905628479E0
1.086684971E1,-5.280871886E-1,5.688591802E0,2.994136941E-1,5.720891655E0
1.087681471E1,-3.676797907E-1,5.388447790E0,4.957585180E-1,5.423682745E0
1.088677971E1,-3.207817590E-1,4.900106465E0,7.574845684E-1,4.968674590E0
1.089674571E1,-2.692373836E-1,4.480288076E0,1.017654090E0,4.602291805E0
1.090671071E1,5.869639724E-2,3.877419677E0,1.333195574E0,4.100638860E0
1.091667571E1,2.510636526E-1,3.182234852E0,1.562463731E0,3.554004013E0
1.092664171E1,8.332653603E-1,2.746209735E0,1.727613659E0,3.349723574E0
1.093660671E1,1.200539208E0,2.123717496E0,1.985598661E0,3.145484451E0
1.094657171E1,1.403908000E0,1.256974195E0,2.181198549E0,2.882458830E0
1.095653771E1,1.796729356E0,5.027213824E-1,2.424528090E0,3.059297570E0
1.096650271E1,2.457976210E0,2.378676564E-1,2.524487411E0,3.531467791E0
1.097646771E1,2.970682005E0,1.050990236E-1,2.574281130E0,3.932292044E0
1.098643371E1,3.290510083E0,-2.140069234E-1,2.589869222E0,4.192931929E0
1.099639871E1,3.603554807E0,-6.301830822E-1,2.452326922E0,4.404162270E0
1.100636371E1,3.918338492E0,-1.148130614E0,2.272771794E0,4.673015308E0
1.101632971E1,4.541440011E0,-1.611565139E0,2.145384938E0,5.274892995E0
1.102629471E1,4.919763635E0,-2.034793040E0,1.969886023E0,5.676698678E0
1.103625971E1,5.207961200E0,-2.578285303E0,1.892552503E0,6.111642164E0
1.104622471E1,5.390583193E0,-2.804136931E0,1.710026988E0,6.312350069E0
1.105619071E1,5.251718838E0,-2.684125754E0,1.301125935E0,6.039702850E0
1.106615571E1,5.426602042E0,-2.785508287E0,8.463832963E-1,6.158200291E0
1.107612071E1,5.932286208E0,-3.704555517E0,8.313923509E-1,7.043221172E0
1.108608671E1,6.016966170E0,-4.686590123E0,1.125916896E0,7.709455086E0
1.109605171E1,5.218249376E0,-4.626823393E0,1.328498944E0,7.099473974E0
1.110601671E1,3.802642559E0,-3.511123776E0,1.336506999E0,5.345496381E0
1.111598271E1,2.662092276E0,-3.059134591E0,1.495961593E0,4.322376755E0
1.112594771E1,1.587586439E0,-3.606898245E0,1.985666927E0,4.412824356E0
1.113591271E1,1.170347987E-1,-4.130493017E0,2.286226822E0,4.722446695E0
1.114587871E1,-1.738803475E0,-4.376322243E0,2.184712141E0,5.191204199E0
1.115584371E1,-3.251281406E0,-4.684184579E0,1.748884660E0,5.964143987E0
1.116580871E1,-4.550337719E0,-5.421596240E0,9.390885615E-1,7.140109697E0
1.117577471E1,-7.101070358E0,-6.479977357E0,-1.558482654E0,9.738797408E0
1.118573971E1,-8.693097610E0,-6.217177758E0,-4.404998158E0,1.155972552E1
1.119570471E1,-8.521598191E0,-4.804092261E0,-5.087925464E0,1.102651004E1
1.120566971E1,-9.360485941E0,-3.489060477E0,-3.919548281E0,1.073103438E1
1.121563571E1,-8.399138199E0,-1.638005079E0,-2.478388255E0,8.909039874E0
1.122560071E1,-7.101786057E0,4.436194807E-1,-1.779187124E0,7.334689514E0
1.123556571E1,-5.870386414E0,2.173808838E0,-1.072858822E0,6.351213078E0
1.124553171E1,-4.581213942E0,3.568667395E0,-9.319111043E-1,5.881442549E0
1.125549671E1,-2.747530621E0,4.388588532E0,-7.808693379E-1,5.236257322E0
1.126546171E1,-2.052882133E0,4.811201305E0,-1.474911032E0,5.434827100E0
1.127542771E1,-8.433680333E-1,4.907530675E0,-2.091746675E0,5.400975015E0
1.128539271E1,1.146991284E-1,4.577415006E0,-2.022609782E0,5.005680209E0
1.129535771E1,-8.251122952E-2,3.860042921E0,-2.230656638E0,4.458987384E0
1.130532371E1,-3.398909714E-1,3.228772842E0,-2.697323504E0,4.220906777E0
1.131528871E1,-1.127226964E-1,3.071083961E0,-3.005626720E0,4.298610831E0
1.132525371E1,1.336087169E0,3.077774345E0,-2.899961686E0,4.434816977E0
1.133521971E1,1.456000552E0,2.625507417E0,-2.264030206E0,3.760194088E0
1.134518471E1,1.035302960E0,2.507112994E0,-1.073619033E0,2.917211959E0
1.135514971E1,2.249727186E0,2.970532317E0,-6.599576890E-1,3.784293700E0
1.136511471E1,3.871873885E0,3.314075532E0,-3.374555330E-1,5.107678558E0
1.137508071E1,4.019694713E0,3.665090904E0,2.764351599E-2,5.439816273E0
1.138504571E1,2.187695829E0,4.266133803E0,-2.317941535E-1,4.799962416E0
1.139501071E1,6.787296633E-1,5.450884359E0,-1.424603927E0,5.674707975E0
1.140497671E1,3.704956636E-1,6.354062830E0,-2.050085409E0,6.686870095E0
1.141494171E1,2.443376005E-1,6.370630331E0,-2.275896692E0,6.769367580E0
1.142490671E1,-5.731746300E-1,5.485019234E0,-2.216411651E0,5.943605452E0
1.143487271E1,-5.785903211E-1,4.122181200E0,-2.333694080E0,4.772135022E0
1.144483771E1,-3.167547816E-1,2.496755821E0,-2.524483902E0,3.564707870E0
1.145480271E1,6.322155744E-3,8.549137992E-1,-3.171823300E0,3.285023686E0
1.146476871E1,6.709674114E-1,-6.469026107E-1,-3.135821993E0,3.271400286E0
1.147473371E1,9.954773551E-1,-2.033085068E0,-1.181803121E0,2.553638322E0
1.148469871E1,1.583127791E0,-2.972163690E0,-3.324340904E-1,3.383868057E0
1.149466471E1,3.136292402E0,-3.793988680E0,-1.721965395E0,5.214963562E0
1.150462971E1,1.932010099E0,-5.066901800E0,-1.875468547E0,5.737903724E0
1.151459471E1,3.847486903E-1,-5.732804938E0,-7.257528985E-1,5.791355738E0
1.152455971E1,1.483994097E-2,-5.380068730E0,3.309467049E-1,5.390258388E0
1.153452571E1,-3.074625327E-1,-5.478341714E0,5.870522654E-1,5.518277948E0
1.154449071E1,-6.853484921E-1,-6.849381053E0,5.500103004E-1,6.905522044E0
1.155445571E1,-1.184830371E0,-8.616454062E0,5.858432074E-1,8.717242447E0
1.156442171E1,-1.506655712E0,-9.449936062E0,6.978991020E-1,9.594705110E0
1.157438671E1,-1.899708033E0,-8.722589797E0,9.584896962E-1,8.978372117E0
1.158435171E1,-2.019903252E0,-7.260073108E0,1.271501602E0,7.642341723E0
1.159431771E1,-3.477757517E0,-5.957571908E0,1.101057531E0,6.985684510E0
1.160428271E1,-4.315153935E0,-5.411925530E0,8.040728438E-1,6.968215307E0
1.161424771E1,-3.713750263E0,-5.049262505E0,9.418530520E-1,6.338302614E0
1.162421371E1,-2.901797712E0,-4.028325203E0,1.713780316E0,5.252130698E0
1.163417871E1,-2.059849967E0,-2.541853057E0,2.459235992E0,4.092901234E0
1.164414371E1,-1.086104959E0,-1.087210813E0,2.688186060E0,3.096448874E0
1.165410971E1,-8.449343562E-1,1.752451462E-1,2.611021525E0,2.749919695E0
1.166407471E1,-5.372189315E-1,1.210705762E0,2.363366214E0,2.709227285E0
1.167403971E1,-2.814595261E-1,2.215705308E0,2.059287611E0,3.037965593E0
1.168400471E1,-3.292632915E-1,3.279003348E0,1.655680043E0,3.688028426E0
1.169397038E1,-3.560637121E-1,4.199216512E0,1.208835822E0,4.384231373E0
1.170393538E1,-7.292033404E-2,5.073064765E0,7.704209483E-1,5.131749402E0
1.171390038E1,-1.518352336E-1,5.743457395E0,3.796526957E-1,5.757993831E0
1.172386638E1,-2.694914451E-1,6.157849569E0,2.144127202E-1,6.167471910E0
1.173383138E1,-3.497060345E-1,6.408682841E0,2.026680028E-1,6.421416073E0
1.174379638E1,-4.201518269E-1,6.479439998E0,2.627586687E-1,6.498362283E0
1.175376238E1,-5.109623019E-1,6.480386662E0,3.678401506E-1,6.510898566E0
1.176372738E1,-4.662308098E-1,6.385484013E0,4.985651815E-1,6.421864565E0
1.177369238E1,-6.419644909E-1,6.051950061E0,7.566694665E-1,6.132761746E0
1.178365838E1,-7.395494038E-1,5.798833451E0,9.767107165E-1,5.926834445E0
1.179362338E1,-6.149668729E-1,5.395441645E0,1.158300676E0,5.552534129E0
1.180358838E1,-2.818657614E-1,4.870385653E0,1.243958877E0,5.034633890E0
1.181355338E1,4.376114666E-2,3.953351619E0,1.319162257E0,4.167864336E0
1.182351938E1,3.053687909E-1,2.521349795E0,1.686417686E0,3.048681600E0
1.183348438E1,1.165133148E0,1.673567260E0,1.851645967E0,2.754442850E0
1.184344938E1,1.771031428E0,1.293541512E0,1.937409418E0,2.926321447E0
1.185341538E1,2.508668354E0,5.522426212E-1,2.196090238E0,3.379526765E0
1.186338038E1,3.017041070E0,-3.907822859E-1,2.485630909E0,3.928563176E0
1.187334538E1,3.669627174E0,-1.127232665E0,2.489707003E0,4.575528170E0
1.188331138E1,4.315107157E0,-1.618028067E0,2.317802371E0,5.158524250E0
1.189327638E1,4.639246387E0,-2.256487883E0,1.924004091E0,5.506009113E0
1.190324138E1,5.200893670E0,-2.583730230E0,1.441293050E0,5.983500859E0
1.191320738E1,5.734104774E0,-2.645633533E0,9.365975746E-1,6.384085633E0
1.192317238E1,5.802638234E0,-2.591886511E0,4.217350336E-1,6.369171579E0
1.193313738E1,5.752558587E0,-2.552798460E0,1.723881966E-1,6.295905650E0
1.194310238E1,5.981977601E0,-2.836294279E0,1.575385346E-1,6.622192963E0
1.195306838E1,6.325509122E0,-3.627059444E0,4.858556736E-1,7.307782263E0
1.196303338E1,6.028510328E0,-4.229628466E0,9.824121903E-1,7.429524039E0
1.197299838E1,5.305227878E0,-4.000801774E0,1.451224984E0,6.801316904E0
1.198296438E1,4.453162550E0,-3.152398850E0,1.908756891E0,5.780279239E0
1.199292938E1,3.508204261E0,-2.861747208E0,2.310887307E0,5.083039875E0
1.200289438E1,2.729865013E0,-3.915437104E0,2.906531618E0,5.588446720E0
1.201286038E1,1.388234830E0,-5.044733251E0,3.264246730E0,6.166995722E0
1.202282538E1,-3.888842797E-1,-5.276908059E0,3.113318984E0,6.139197402E0
1.203279038E1,-2.286916208E0,-5.119157782E0,2.814513400E0,6.273535512E0
1.204275638E1,-3.493600840E0,-4.915031483E0,2.459550865E0,6.512462804E0
1.205272138E1,-4.522029594E0,-4.748743102E0,1.891632443E0,6.824777359E0
1.206268638E1,-6.209140175E0,-5.092160602E0,1.068229289E0,8.100903352E0
1.207265138E1,-1.025547714E1,-6.473768783E0,-8.149784857E-1,1.215519163E1
1.208261738E1,-1.421726045E1,-8.616524813E0,-3.168444779E0,1.692377135E1
1.209258238E1,-1.166697512E1,-7.757552462E0,-3.705838396E0,1.449245206E1
1.210254738E1,-8.321957876E0,-4.134814695E0,-4.998340273E0,1.055154401E1
1.211251338E1,-5.876803733E0,-6.771297920E-1,-5.092439514E0,7.805656095E0
1.212247838E1,-4.779596228E0,1.634978560E0,-3.755309933E0,6.294445781E0
1.213244338E1,-3.552733732E0,3.358040162E0,-2.516106012E0,5.498103324E0
1.214240938E1,-2.612785045E0,4.401834814E0,-2.480923315E0,5.688389571E0
1.215237438E1,-2.055604012E0,4.721746507E0,-2.852666482E0,5.887113384E0
1.216233938E1,-1.436621125E0,5.052929878E0,-2.695904970E0,5.904564693E0
1.217230438E1,-5.793430039E-1,5.348268648E0,-1.936787859E0,5.717583673E0
1.218227038E1,5.601188207E-1,5.621742339E0,-7.994248921E-1,5.705856656E0
1.219223538E1,-1.844387233E-1,5.369392299E0,-3.507744670E-1,5.383997960E0
1.220220038E1,-1.084696218E0,5.182740989E0,-7.945278490E-1,5.354310838E0
1.221216638E1,-9.504268974E-1,5.690948814E0,-1.027414262E0,5.860528113E0
1.222213138E1,-1.901577388E-1,6.184192445E0,-9.109879395E-1,6.253822446E0
1.223209638E1,7.717292628E-1,5.949774646E0,-9.775480378E-1,6.078732150E0
1.224206238E1,1.217173660E0,5.669176122E0,-1.016517391E0,5.886796856E0
1.225202738E1,5.933086400E-1,5.298480776E0,-6.137143993E-1,5.366801565E0
1.226199238E1,-2.848677219E-1,5.188268947E0,-6.311729427E-1,5.234277750E0
1.227195838E1,-8.202911197E-1,5.364815099E0,-1.047090289E0,5.527252178E0
1.228192338E1,-1.191655972E0,5.496514276E0,-1.509637792E0,5.823291114E0
1.229188838E1,-1.247535619E0,5.244386430E0,-1.917461057E0,5.721589906E0
1.230185338E1,-1.188810132E0,4.565165673E0,-2.713442523E0,5.442129867E0
1.231181938E1,-7.012340614E-1,3.565496449E0,-3.542792881E0,5.075024683E0
1.232178438E1,-3.953216256E-1,2.075643443E0,-4.536271073E0,5.004231223E0
1.233174938E1,3.449041548E-1,3.153227985E-1,-5.316253388E0,5.336753454E0
1.234171538E1,6.630969130E-1,-1.588551668E0,-5.141530398E0,5.422041014E0
1.235168038E1,1.403258666E-2,-2.925173711E0,-2.161847920E0,3.637365060E0
1.236164538E1,1.060356013E-1,-3.049576147E0,6.349970949E-1,3.116789941E0
1.237161138E1,2.202064046E0,-2.458609171E0,4.207093589E-1,3.327287406E0
1.238157638E1,2.480903435E0,-2.986633794E0,-4.724047387E-1,3.911269552E0
1.239154138E1,9.222871721E-1,-4.672066809E0,-1.730561825E0,5.066918800E0
1.240150638E1,-4.963625354E-1,-6.484883171E0,-1.489421482E0,6.672215663E0
1.241147238E1,-1.018272287E0,-8.713853472E0,1.852516325E-1,8.775103358E0
1.242143738E1,-1.031694863E0,-9.685419223E0,2.743533465E0,1.011922505E1
1.243140238E1,-1.150416729E0,-9.296148443E0,4.160454150E0,1.024944941E1
1.244136838E1,-1.046697356E0,-7.869710829E0,3.218641956E0,8.566655119E0
1.245133338E1,6.131154983E-1,-6.784253011E0,1.901243219E0,7.072250371E0
1.246129838E1,1.616239111E-1,-6.590172229E0,1.286516082E0,6.716518140E0
1.247126438E1,-2.065089657E0,-5.999454929E0,6.149013841E-1,6.374649672E0
1.248122938E1,-3.216596015E0,-5.566025975E0,-5.461228887E-1,6.451773810E0
1.249119438E1,-2.775937564E0,-5.615916758E0,-6.766596758E-1,6.300969665E0
1.250116038E1,-2.014161286E0,-5.341796950E0,1.034482377E0,5.801878499E0
1.251112538E1,-1.126057375E0,-4.568613777E0,2.635014989E0,5.392915820E0
1.252109038E1,-9.530727625E-1,-3.466070395E0,3.059576640E0,4.720487357E0
1.253105538E1,-6.660490260E-1,-2.026937306E0,2.932507288E0,3.626526595E0
1.254102138E1,-4.194459218E-1,-6.693003702E-1,2.594611899E0,2.712177865E0
1.255098638E1,-4.342899558E-1,6.080788529E-1,2.157794484E0,2.283515862E0
1.256095138E1,-3.957003790E-1,1.769935221E0,1.724149768E0,2.502387240E0
1.257091738E1,-5.334958631E-1,2.773838414E0,1.319963325E0,3.117867951E0
1.258088238E1,-9.547146606E-1,3.629576086E0,1.049430199E0,3.896999665E0
1.259084738E1,-1.072579325E0,4.407568594E0,7.656572217E-1,4.600360670E0
1.260081238E1,-1.038847323E0,5.076754358E0,4.909702331E-1,5.205159973E0
1.261077838E1,-1.166718328E0,5.656361949E0,4.374927682E-1,5.791982569E0
1.262074338E1,-1.420594199E0,6.054429281E0,4.307263702E-1,6.233757053E0
1.263070838E1,-1.311462643E0,6.326687336E0,3.554972631E-1,6.470957056E0
1.264067438E1,-1.124022544E0,6.496349561E0,3.126786876E-1,6.600284256E0
1.265063938E1,-1.383596673E0,6.515835992E0,3.391794384E-1,6.669745206E0
1.266060438E1,-1.603840237E0,6.411792390E0,5.307985425E-1,6.630620805E0
1.267057038E1,-1.727571267E0,6.050156136E0,7.475665212E-1,6.336225016E0
1.268053538E1,-1.914406617E0,5.687928143E0,9.639626169E-1,6.078379980E0
1.269050133E1,-2.391412676E0,5.508298754E0,1.234702735E0,6.130636231E0
1.270046733E1,-2.256655259E0,4.769367401E0,1.478491867E0,5.479534338E0
1.271043233E1,-1.811623091E0,3.949989470E0,1.693312722E0,4.663872105E0
1.272039733E1,-9.023032893E-1,3.072725859E0,1.837323797E0,3.692093466E0
1.273036233E1,-1.838271046E-1,2.001777906E0,1.956753176E0,2.805314632E0
1.274032833E1,4.643051755E-1,8.550301588E-1,2.205351058E0,2.410441694E0
1.275029333E1,1.607061321E0,2.760470510E-3,2.206062664E0,2.729352705E0
1.276025833E1,2.938498930E0,-5.845525807E-1,2.050736643E0,3.630702200E0
1.277022433E1,4.134135248E0,-1.138646430E0,1.984356127E0,4.724961289E0
1.278018933E1,5.136561434E0,-1.880742297E0,1.699928847E0,5.728107282E0
1.279015433E1,6.105872499E0,-2.974932931E0,1.641563110E0,6.987605768E0
1.280012033E1,6.681671798E0,-3.886134952E0,1.733222893E0,7.921543062E0
1.281008533E1,7.029391680E0,-4.108482928E0,1.414557241E0,8.263954958E0
1.282005033E1,7.143973718E0,-3.720900823E0,6.716199607E-1,8.082854495E0
1.283001533E1,7.015863562E0,-3.086124169E0,-9.274100639E-2,7.665187851E0
1.283998133E1,6.988600919E0,-2.723903777E0,-5.237134713E-1,7.518940776E0
1.284994633E1,7.070547892E0,-3.045193074E0,-3.309663662E-1,7.705542621E0
1.285991133E1,6.839443710E0,-3.753304338E0,5.336125150E-2,7.801803070E0
1.286987733E1,5.729281406E0,-3.590838282E0,6.277636506E-1,6.790645934E0
1.287984233E1,4.356565963E0,-2.632964956E0,1.191300754E0,5.227941175E0
1.288980733E1,3.388871945E0,-2.243353867E0,1.746711981E0,4.423583658E0
1.289977233E1,2.515824761E0,-2.638906896E0,2.230001311E0,4.273886952E0
1.290973833E1,1.323163360E0,-3.203850839E0,2.394174755E0,4.212777496E0
1.291970333E1,-2.347122064E-1,-3.772394328E0,2.440072328E0,4.498888946E0
1.292966833E1,-2.059965596E0,-4.587828312E0,2.528910829E0,5.629122210E0
1.293963433E1,-3.383670847E0,-6.024789745E0,2.831624400E0,7.467624563E0
1.294959933E1,-5.010309523E0,-7.105658083E0,2.433540988E0,9.028604546E0
1.295956433E1,-8.365197451E0,-8.091514429E0,6.345538759E-1,1.165554773E1
1.296953033E1,-1.126688640E1,-8.591101704E0,-2.031384698E0,1.431349998E1
1.297949533E1,-1.083368608E1,-7.298186429E0,-3.576633641E0,1.354343337E1
1.298946033E1,-7.888652884E0,-4.639329418E0,-3.812040789E0,9.913923378E0
1.299942533E1,-6.133239807E0,-1.787530078E0,-4.454601550E0,7.788155705E0
1.300939133E1,-5.961067373E0,2.195629478E-3,-3.830793979E0,7.085852917E0
1.301935633E1,-5.691362797E0,1.464281963E0,-2.686013820E0,6.461455130E0
1.302932133E1,-4.550520445E0,2.927728944E0,-2.040126286E0,5.782814916E0
1.303928733E1,-2.948060882E0,4.350229043E0,-2.008242003E0,5.625708101E0
1.304925233E1,-1.783280614E0,5.183416343E0,-1.935856982E0,5.813384297E0
1.305921733E1,-1.632532085E0,5.129329598E0,-1.885670915E0,5.703589916E0
1.306918333E1,-1.696590087E0,4.775392372E0,-1.138167543E0,5.194055794E0
1.307914833E1,-1.465546716E0,4.855548928E0,-6.054078448E-1,5.107905757E0
1.308911333E1,-1.192442276E0,4.910043224E0,-3.207372836E-1,5.062935457E0
1.309907833E1,-9.522985911E-1,5.066329942E0,-1.123565876E-1,5.156277310E0
1.310904433E1,4.981650858E-1,5.245378118E0,-2.420090930E-1,5.274535852E0
1.311900933E1,4.072568160E-1,5.271176033E0,-7.623855583E-1,5.341571550E0
1.312897433E1,7.257238086E-1,5.720664364E0,-1.573787302E0,5.977414348E0
1.313894033E1,9.911455916E-1,5.924954969E0,-1.302954944E0,6.146962873E0
1.314890533E1,6.897957382E-1,5.792572837E0,-4.962170859E-1,5.854566562E0
1.315887033E1,1.619453618E-1,5.550323862E0,-2.488247538E-1,5.558258274E0
1.316883633E1,-1.508815527E-2,5.144677370E0,-4.815415978E-1,5.167186391E0
1.317880133E1,-1.739451639E-1,4.684768716E0,-9.306543915E-1,4.779480352E0
1.318876633E1,-7.811804098E-1,4.288097699E0,-1.489299714E0,4.606087097E0
1.319873133E1,-1.415443971E0,3.478403926E0,-1.531065206E0,4.055482237E0
1.320869733E1,-1.469282940E0,2.514153042E0,-1.611008338E0,3.327928146E0
1.321866233E1,-1.071873567E0,1.366031783E0,-1.793497600E0,2.496315168E0
1.322862733E1,-5.993679634E-1,-2.091660136E-1,-2.330636863E0,2.415545604E0
1.323859333E1,4.604986382E-1,-2.105166619E0,-3.684810054E0,4.268677855E0
1.324855833E1,1.570573819E0,-3.662316985E0,-3.204603961E0,5.113585275E0
1.325852333E1,2.986538777E0,-4.443712572E0,-5.044451416E-1,5.377774651E0
1.326848833E1,4.540358569E0,-4.570777246E0,-1.162284677E-1,6.443630159E0
1.327845433E1,3.260413587E0,-5.509634843E0,-1.307621022E0,6.534236421E0
1.328841933E1,1.892769434E0,-5.608796019E0,-2.842088284E0,6.566478107E0
1.329838433E1,1.343237875E0,-5.795730919E0,-2.003250381E0,6.277562979E0
1.330835033E1,1.494469091E0,-6.208953649E0,-2.379335837E-1,6.390708542E0
1.331831533E1,1.575617919E0,-6.205385093E0,5.031647475E-1,6.422036339E0
1.332828033E1,9.521860322E-1,-5.925977647E0,8.836641200E-1,6.066690333E0
1.333824633E1,1.187473020E-1,-5.801990363E0,1.378202616E0,5.964615289E0
1.334821133E1,-3.541105959E-1,-5.991965230E0,1.965170828E0,6.315927328E0
1.335817633E1,-1.051735171E0,-5.817704170E0,2.254606833E0,6.327328082E0
1.336814133E1,-1.173331821E0,-5.141897019E0,1.755194975E0,5.558463989E0
1.337810733E1,-1.812112065E0,-5.085559096E0,1.234384646E0,5.538083324E0
1.338807233E1,-2.036558315E0,-5.415495256E0,1.123184711E0,5.893785076E0
1.339803733E1,-1.600714169E0,-5.114214545E0,1.464291319E0,5.555324053E0
1.340800333E1,-1.081002532E0,-4.099352501E0,2.148981560E0,4.753038938E0
1.341796833E1,-7.099467051E-1,-2.837380691E0,2.500148960E0,3.847791358E0
1.342793333E1,-5.694796282E-1,-1.564980957E0,2.453716221E0,2.965500925E0
1.343789833E1,-5.761086166E-1,-2.280074966E-1,2.173726831E0,2.260304602E0
1.344786433E1,-6.431799808E-1,1.099278882E0,1.837688663E0,2.235887781E0
1.345782933E1,-9.767756206E-1,2.350060875E0,1.524953842E0,2.966877306E0
1.346779433E1,-1.418081650E0,3.480836953E0,1.183792198E0,3.940627542E0
1.347776033E1,-2.064920526E0,4.409022796E0,8.285598135E-1,4.938612170E0
1.348772533E1,-2.624908369E0,5.074624802E0,6.997269416E-1,5.756003703E0
1.349769033E1,-2.917781953E0,5.571086740E0,6.561020350E-1,6.323047436E0
1.350765533E1,-3.241054333E0,5.982140154E0,5.369533948E-1,6.824862853E0
1.351762133E1,-3.621084175E0,6.127463928E0,5.916213163E-1,7.141994159E0
1.352758633E1,-3.698289933E0,6.320048407E0,5.669296575E-1,7.344506078E0
1.353755133E1,-3.532046283E0,6.452576135E0,5.454130733E-1,7.376216180E0
1.354751733E1,-3.677941038E0,6.275217220E0,5.264985732E-1,7.292653988E0
1.355748233E1,-3.606783347E0,5.832136853E0,4.331885962E-1,6.870979460E0
1.356744733E1,-3.212469050E0,5.305306816E0,5.174739075E-1,6.223665885E0
1.357741333E1,-3.040727556E0,4.594152660E0,6.677824330E-1,5.549612249E0
1.358737833E1,-2.738107249E0,3.757119062E0,9.173205471E-1,4.738633974E0
1.359734333E1,-2.226827881E0,2.627968510E0,1.176741625E0,3.640013977E0
1.360730833E1,-1.042409154E0,1.350089934E0,1.329596028E0,2.162680114E0
1.361727433E1,-6.266966799E-1,3.199222183E-1,1.333852801E0,1.508065731E0
1.362723933E1,3.796331075E-1,-4.970735568E-1,1.236570336E0,1.385752363E0
1.363720433E1,1.275978230E0,-1.087934114E0,8.901157916E-1,1.898427560E0
1.364717033E1,1.984009680E0,-1.225795671E0,2.476822078E-1,2.345253912E0
1.365713533E1,3.351614656E0,-1.594407654E0,-2.895681524E-1,3.722808925E0
1.366710033E1,4.561854395E0,-1.963957531E0,-5.415339939E-1,4.996088848E0
1.367706533E1,5.348697249E0,-2.320183942E0,-5.970170903E-1,5.860737598E0
1.368703133E1,5.906189500E0,-2.712711037E0,-2.261036432E-1,6.503306731E0
1.369699638E1,6.302152419E0,-2.914310169E0,3.446418707E-1,6.951913901E0
1.370696138E1,6.678271058E0,-2.696330062E0,7.700654376E-1,7.243100227E0
1.371692738E1,7.143825783E0,-2.080753909E0,8.880062623E-1,7.493486423E0
1.372689238E1,7.134567887E0,-1.675561745E0,9.776918793E-1,7.393608557E0
1.373685738E1,6.969408018E0,-1.568383452E0,1.008230863E0,7.214499584E0
1.374682238E1,7.102193608E0,-1.818261874E0,1.105523708E0,7.414136022E0
1.375678838E1,7.105597272E0,-2.337989883E0,1.319925903E0,7.595914275E0
1.376675338E1,6.510208631E0,-2.297249992E0,1.484168344E0,7.061368821E0
1.377671838E1,5.908460559E0,-1.477472697E0,1.555291536E0,6.285838330E0
1.378668438E1,4.465126246E0,-4.406929493E-1,1.366088501E0,4.690177018E0
1.379664938E1,2.992508492E0,-2.465291369E-1,1.329813545E0,3.283943933E0
1.380661438E1,2.177353420E0,-9.809172034E-1,1.600626168E0,2.874903582E0
1.381657938E1,1.640036402E0,-2.199923673E0,1.907337188E0,3.341753838E0
1.382654538E1,6.931909239E-1,-3.297578198E0,2.071615881E0,3.955518675E0
1.383651038E1,-5.224846789E-1,-4.367713972E0,2.160718092E0,4.900879334E0
1.384647538E1,-2.276641773E0,-5.203213845E0,2.113272030E0,6.059905177E0
1.385644138E1,-3.829360827E0,-6.083456029E0,2.192547995E0,7.515298284E0
1.386640638E1,-4.862457121E0,-6.530841116E0,2.812222461E0,8.614172630E0
1.387637138E1,-6.139381138E0,-5.947984813E0,2.554169632E0,8.921564134E0
1.388633638E1,-7.834049245E0,-4.901529678E0,1.517556530E0,9.364843756E0
1.389630238E1,-8.859638007E0,-3.841142966E0,9.494087510E-1,9.703037765E0
1.390626738E1,-1.044265353E1,-3.217072563E0,4.865928613E-1,1.093779417E1
1.391623238E1,-1.027140379E1,-2.115566477E0,1.713273655E-1,1.048840838E1
1.392619838E1,-8.561793705E0,3.314201832E-3,-1.162739444E0,8.640386881E0
1.393616338E1,-6.989258730E0,2.087239056E0,-2.268267245E0,7.638804931E0
1.394612838E1,-5.424616327E0,3.629937444E0,-2.764333180E0,7.088331685E0
1.395609438E1,-4.175228310E0,4.637004565E0,-3.343246706E0,7.078957643E0
1.396605938E1,-3.277253861E0,4.998808050E0,-3.961978016E0,7.171174562E0
1.397602438E1,-2.668980588E0,5.010710058E0,-4.602244622E0,7.308305428E0
1.398598938E1,-1.503092565E0,5.015653294E0,-6.018233262E0,7.977167217E0
1.399595538E1,-3.953246954E-1,4.664184762E0,-7.274557831E0,8.650438876E0
1.400592038E1,3.167366552E-1,4.612803524E0,-7.199322292E0,8.556197749E0
1.401588538E1,-3.051913279E-1,4.555938767E0,-5.706369676E0,7.308377021E0
1.402585138E1,-1.252512769E0,4.704280874E0,-3.461324794E0,5.973258417E0
1.403581638E1,-2.349437562E0,5.198846560E0,-1.680189232E0,5.947343799E0
1.404578138E1,-3.155968283E0,5.250650552E0,-9.902603231E-2,6.126930159E0
1.405574638E1,-1.818730528E0,5.355812725E0,7.784142382E-1,5.709504305E0
1.406571238E1,-9.404109094E-1,5.330527026E0,8.353215337E-1,5.476920039E0
1.407567738E1,-5.743962595E-1,4.350045440E0,2.468390393E-1,4.394741847E0
1.408564238E1,2.650098467E-1,3.299397851E0,-1.068814888E0,3.478307299E0
1.409560838E1,9.020829955E-1,2.307304865E0,-2.582477757E0,3.578631140E0
1.410557338E1,1.121582793E0,1.259786121E0,-3.890853070E0,4.240724778E0
1.411553838E1,9.727767098E-1,3.112180531E-1,-4.493679954E0,4.608287180E0
1.412550338E1,1.021328188E0,-6.017755544E-1,-4.935249985E0,5.075621883E0
1.413546938E1,1.199670604E0,-1.608363789E0,-4.856396774E0,5.254582121E0
1.414543438E1,1.220846880E0,-2.415082498E0,-3.900217971E0,4.747082345E0
1.415539938E1,1.321129260E0,-2.646566749E0,-1.559682649E0,3.343995820E0
1.416536538E1,1.434898827E0,-2.535233424E0,2.278180468E-1,2.922027416E0
1.417533038E1,2.553209519E0,-2.477658815E0,3.942719773E-1,3.579542211E0
1.418529538E1,3.466148455E0,-2.787263621E0,1.466715574E-1,4.450228775E0
1.419526038E1,3.786838120E0,-3.082755588E0,-3.973158916E-1,4.899120827E0
1.420522638E1,4.274360250E0,-3.462855595E0,-1.054288065E0,5.601164856E0
1.421519138E1,4.106745136E0,-4.364068817E0,-1.568644238E0,6.194440814E0
1.422515638E1,3.937391936E0,-5.241007324E0,-1.893190434E0,6.823150522E0
1.423512238E1,3.561073616E0,-5.724819396E0,-1.778853979E0,6.972741490E0
1.424508738E1,2.964987402E0,-5.757515856E0,-8.824009021E-1,6.535959798E0
1.425505238E1,2.503255586E0,-5.201954940E0,9.218299198E-1,5.846057999E0
1.426501738E1,2.317305650E0,-4.301322346E0,1.917944037E0,5.248789263E0
1.427498338E1,2.206007993E0,-3.380194092E0,2.009813150E0,4.509050040E0
1.428494838E1,1.226443835E0,-2.282723170E0,1.951353858E0,3.243882154E0
1.429491338E1,2.602084056E-1,-1.815284472E0,2.032140158E0,2.737254053E0
1.430487938E1,-6.795411837E-1,-2.386368576E0,2.336792958E0,3.408391487E0
1.431484438E1,-1.393500833E0,-3.330338393E0,2.872418962E0,4.613435712E0
1.432480938E1,-1.888342800E0,-4.059620671E0,3.713290672E0,5.816776267E0
1.433477438E1,-2.568519576E0,-3.818116631E0,4.471295643E0,6.416213225E0
1.434474038E1,-2.854129748E0,-2.514530187E0,5.113765479E0,6.373344182E0
1.435470538E1,-2.657571501E0,-8.942883646E-1,5.197378324E0,5.905521095E0
1.436467038E1,-2.226002839E0,5.124476409E-1,5.087599189E0,5.576859039E0
1.437463638E1,-1.851729582E0,1.595358996E0,4.646433200E0,5.250087071E0
1.438460138E1,-1.957215984E0,2.291790447E0,4.136249017E0,5.117768438E0
1.439456638E1,-1.993664602E0,2.884696360E0,3.546240399E0,4.987182832E0
1.440453138E1,-1.776521232E0,3.596910031E0,2.774034296E0,4.877402560E0
1.441449738E1,-2.087925227E0,4.140686468E0,1.923820488E0,5.020537965E0
1.442446238E1,-2.691315782E0,4.539786419E0,1.147817861E0,5.400956139E0
1.443442738E1,-3.071687978E0,4.682146824E0,1.908466139E-1,5.603051699E0
1.444439338E1,-3.154752939E0,4.574828197E0,-9.563069306E-1,5.638797929E0
1.445435838E1,-3.351911110E0,4.506842621E0,-1.976713817E0,5.954354374E0
1.446432338E1,-4.023328173E0,4.329104807E0,-2.955532454E0,6.607835508E0
1.447428838E1,-4.937649683E0,4.037516441E0,-3.444050950E0,7.248683353E0
1.448425438E1,-5.178194779E0,3.695902222E0,-3.015999096E0,7.040571352E0
1.449421938E1,-4.809370542E0,3.190857157E0,-2.019697284E0,6.114801021E0
1.450418438E1,-4.005690047E0,2.685053707E0,-1.043632100E0,4.933987649E0
1.451415038E1,-2.590201929E0,2.754436768E0,-3.618287013E-1,3.798287502E0
1.452411538E1,-1.685805628E0,2.863950439E0,-2.112950579E-1,3.329984735E0
1.453408038E1,-1.065839678E0,2.437442835E0,-3.057579962E-1,2.677803157E0
1.454404538E1,-1.121048504E0,1.141647221E0,-9.567227407E-1,1.864249589E0
1.455401138E1,-7.021213764E-1,1.737155145E-1,-2.494007630E0,2.596772143E0
1.456397638E1,4.606100276E-1,-7.525793391E-1,-4.007762300E0,4.103741696E0
1.457394138E1,2.404897671E0,-1.500247602E0,-4.756979490E0,5.537429868E0
1.458390738E1,4.261726171E0,-1.828473451E0,-4.599024560E0,6.531206016E0
1.459387238E1,5.541503922E0,-1.965576625E0,-3.556754277E0,6.871845326E0
1.460383738E1,5.583330225E0,-2.585557485E0,-2.317067961E0,6.574761429E0
1.461380238E1,5.920785320E0,-2.981313998E0,-1.947674789E0,6.909223476E0
1.462376838E1,6.860810021E0,-2.971965469E0,-2.217585772E0,7.798780645E0
1.463373338E1,7.722977875E0,-2.462451376E0,-2.553603036E0,8.498761234E0
1.464369838E1,7.704121774E0,-2.445124907E0,-2.432795029E0,8.441008221E0
1.465366338E1,7.371468998E0,-2.710656325E0,-1.824157183E0,8.063111207E0
1.466362938E1,7.588302466E0,-3.153427960E0,-9.185825224E-1,8.268629636E0
1.467359438E1,7.740440000E0,-3.850140662E0,-1.141867661E-1,8.645867980E0
1.468355938E1,7.079680073E0,-3.984206207E0,4.986597602E-1,8.139068165E0
1.469352488E1,5.705270984E0,-2.925302934E0,9.246289819E-1,6.477843238E0
1.470348988E1,3.875130492E0,-1.555465198E0,1.404990758E0,4.405690337E0
1.471345488E1,2.533937973E0,-1.161430106E0,2.003673574E0,3.432851487E0
1.472341988E1,1.360328409E0,-1.766299422E0,2.857409744E0,3.624237502E0
1.473338588E1,5.020325804E-1,-2.836077932E0,3.813365183E0,4.778820855E0
1.474335088E1,-5.232793155E-1,-3.850842912E0,4.482085218E0,5.932276146E0
1.475331588E1,-2.370652722E0,-4.573534209E0,4.721745630E0,6.987996228E0
1.476328188E1,-4.094833480E0,-4.871169764E0,4.386354018E0,7.728910510E0
1.477324688E1,-5.300553614E0,-4.852099071E0,3.965648898E0,8.207624820E0
1.478321188E1,-6.703694167E0,-5.068178832E0,3.645006888E0,9.160350832E0
1.479317688E1,-7.945646279E0,-5.051331834E0,3.116471218E0,9.917743743E0
1.480314288E1,-9.041056058E0,-4.749532476E0,2.055207132E0,1.041741953E1
1.481310788E1,-7.868359537E0,-3.331586189E0,9.358623603E-1,8.595719091E0
1.482307288E1,-6.349726535E0,-1.635418856E0,2.665745616E-1,6.562368772E0
1.483303888E1,-5.999462530E0,-1.305882061E-1,-2.272181225E-1,6.005183761E0
1.484300388E1,-6.247741739E0,1.314722466E0,-7.959658255E-1,6.433998258E0
1.485296888E1,-5.487875015E0,2.593471107E0,-1.147180003E0,6.177287958E0
1.486293388E1,-3.881273284E0,3.650065314E0,-1.304723289E0,5.485395333E0
1.487289988E1,-2.617556665E0,4.205426840E0,-1.868789418E0,5.294298036E0
1.488286488E1,-2.091933201E0,4.016933073E0,-2.665612884E0,5.255228623E0
1.489282988E1,-1.949203544E0,3.430701172E0,-2.839292146E0,4.861140286E0
1.490279588E1,-2.033736156E0,3.182902604E0,-2.955569876E0,4.796076004E0
1.491276088E1,-1.820953932E0,3.604192738E0,-3.018380082E0,5.041497479E0
1.492272588E1,-1.370608107E0,4.503665244E0,-2.482782730E0,5.322196661E0
1.493269088E1,-9.147240910E-1,5.145672566E0,-1.845098255E0,5.542477234E0
1.494265688E1,-5.747304279E-1,5.437415298E0,-8.800187465E-1,5.538071251E0
1.495262188E1,-1.091123478E0,5.645713000E0,7.701250792E-2,5.750700535E0
1.496258688E1,-1.212437707E0,5.559684085E0,8.915284789E-1,5.759766953E0
1.497255188E1,-1.344302360E0,5.349342197E0,1.009373263E0,5.607267174E0
1.498251788E1,-1.481346770E0,5.386502421E0,8.662090118E-1,5.653239305E0
1.499248288E1,-1.202226422E0,5.391133416E0,8.514317822E-1,5.588792711E0
1.500244788E1,-1.116353921E0,4.823623715E0,9.155935720E-2,4.951966775E0
1.501241388E1,-6.188102478E-1,4.308984538E0,-9.022591428E-1,4.445710903E0
1.502237888E1,-2.470053926E-1,3.643277866E0,-1.945615108E0,4.137620502E0
1.503234388E1,-1.725565964E-1,2.611774061E0,-2.836919346E0,3.859954780E0
1.504230888E1,-3.699512878E-1,1.157865644E0,-3.496341430E0,3.701610487E0
1.505227488E1,-2.678720587E-1,-5.184854758E-1,-3.417896062E0,3.467361550E0
1.506223988E1,3.530279839E-1,-2.272491127E0,-3.640428518E0,4.305991695E0
1.507220488E1,1.287828197E0,-3.681978832E0,-4.263789654E0,5.778872883E0
1.508217088E1,3.067197024E0,-4.607653881E0,-3.939546343E0,6.793982430E0
1.509213588E1,3.325519118E0,-4.760936885E0,-2.276339911E0,6.237573312E0
1.510210088E1,4.085739891E0,-3.969508061E0,-2.766619442E0,6.332807263E0
1.511206588E1,4.535030586E0,-3.019433751E0,-5.087786300E0,7.454465241E0
1.512203188E1,3.217038649E0,-2.954527903E0,-3.253587255E0,5.446503725E0
1.513199688E1,7.780501029E-1,-3.809458659E0,1.491297269E0,4.164289229E0
1.514196188E1,-1.996637034E-1,-4.590143809E0,3.818374493E0,5.974049678E0
1.515192688E1,-3.594555357E-1,-5.472468771E0,3.532154456E0,6.523284283E0
1.516189288E1,-4.772848248E-2,-6.853689866E0,2.185481050E0,7.193863372E0
1.517185788E1,-5.120289803E-2,-7.496253843E0,2.969227803E-1,7.502306748E0
1.518182288E1,-1.308272987E0,-6.806072481E0,-7.271305025E-1,6.968710038E0
1.519178888E1,-2.144064637E0,-5.688859019E0,8.317067119E-1,6.136111648E0
1.520175388E1,-1.837056287E0,-5.096019765E0,2.185019120E0,5.841104501E0
1.521171888E1,-2.228935218E0,-4.945045241E0,2.589786776E0,6.010708793E0
1.522168388E1,-2.217935436E0,-4.504805451E0,2.701149337E0,5.701641649E0
1.523164988E1,-1.631862579E0,-3.552274141E0,2.666378285E0,4.731934087E0
1.524161488E1,-1.100504458E0,-2.085443376E0,2.839744720E0,3.691115579E0
1.525157988E1,-6.634435067E-1,-8.337831312E-1,3.136834731E0,3.312866391E0
1.526154488E1,-5.951214230E-1,2.401159108E-1,3.353522603E0,3.414372418E0
1.527151088E1,-4.405912077E-1,1.085152009E0,3.349447678E0,3.548305968E0
1.528147588E1,-2.834502107E-1,1.695322410E0,3.013733300E0,3.469445273E0
1.529144088E1,-8.931329548E-2,2.426437206E0,2.628418745E0,3.578290022E0
1.530140688E1,-1.300844684E-1,3.287725639E0,2.203226765E0,3.959832070E0
1.531137188E1,-4.131166032E-1,3.939748072E0,1.774819400E0,4.340767686E0
1.532133688E1,-5.285163742E-1,4.352494839E0,1.366345779E0,4.592433088E0
1.533130188E1,-2.618076190E-1,4.572603332E0,9.020060315E-1,4.668068052E0
1.534126788E1,-3.715297437E-1,4.706085910E0,4.968886386E-1,4.746807059E0
1.535123288E1,-7.882736671E-1,4.897613797E0,2.773069797E-1,4.968389623E0
1.536119788E1,-1.276320000E0,5.178249158E0,1.166958064E-1,5.334498570E0
1.537116388E1,-1.712523165E0,5.368987672E0,-5.793889046E-2,5.635789308E0
1.538112888E1,-2.106058905E0,5.395885448E0,-2.327776551E-1,5.797003478E0
1.539109388E1,-2.737846463E0,5.106530719E0,-3.178002638E-1,5.802883443E0
1.540105888E1,-4.034289071E0,4.262420236E0,-2.941938847E-1,5.876245793E0
1.541102488E1,-4.394710274E0,3.381559417E0,-2.226812679E-1,5.549595430E0
1.542098988E1,-3.073006817E0,3.012023574E0,-4.306369078E-1,4.324477432E0
1.543095488E1,-2.060264973E0,2.773265972E0,-6.666490965E-1,3.518539033E0
1.544091988E1,-2.073634047E0,2.320776849E0,-7.953176616E-1,3.212241200E0
1.545088588E1,-2.099553877E0,1.464224076E0,-8.977487469E-1,2.712569158E0
1.546085088E1,-1.353463486E0,8.152796173E-1,-9.634270120E-1,1.850604190E0
1.547081588E1,-1.061582467E-1,3.820494694E-1,-1.008515477E0,1.083667309E0
1.548078188E1,1.212053545E0,-2.099226433E-1,-1.073910298E0,1.632919055E0
1.549074688E1,2.401158231E0,-1.006517483E0,-1.141033410E0,2.842638833E0
1.550071188E1,3.491462221E0,-1.833271676E0,-1.197271345E0,4.121244006E0
1.551067688E1,4.320746797E0,-2.813349220E0,-1.424926986E0,5.349224582E0
1.552064288E1,5.041110317E0,-3.718799919E0,-1.869447230E0,6.537361777E0
1.553060788E1,5.498479525E0,-4.152324182E0,-2.661080415E0,7.386231933E0
1.554057288E1,5.901820461E0,-3.994779727E0,-3.575456304E0,7.973307820E0
1.555053788E1,6.121551223E0,-3.742008103E0,-4.197673432E0,8.312429023E0
1.556050388E1,5.949864693E0,-3.635427979E0,-4.382058361E0,8.235269391E0
1.557046888E1,5.764833062E0,-3.399629068E0,-3.946107504E0,7.769333463E0
1.558043388E1,5.762343317E0,-3.575905663E0,-2.692225317E0,7.296559393E0
1.559039988E1,6.007543967E0,-4.460630906E0,-1.301736969E0,7.594888527E0
1.560036488E1,5.397530855E0,-4.712604386E0,-5.252422258E-1,7.184556968E0
1.561032988E1,3.865956210E0,-3.229095608E0,-3.980076903E-1,5.052829503E0
1.562029487E1,2.973872831E0,-1.750259340E0,-4.139510009E-1,3.475439944E0
1.563026088E1,1.439311721E0,-8.151205730E-1,-3.048396179E-1,1.681953320E0
1.564022588E1,3.278951892E-1,-8.653487402E-1,-1.174340174E-1,9.328099730E-1
1.565019088E1,-4.708528876E-2,-1.890425286E0,5.637730381E-1,1.973262482E0
1.566015588E1,-7.370695996E-1,-2.909737061E0,1.507030957E0,3.358717563E0
1.567012188E1,-1.630234714E0,-3.559352780E0,2.379039676E0,4.581101092E0
1.568008688E1,-2.446696638E0,-3.637627117E0,2.852618535E0,5.230304770E0
1.569005188E1,-3.484507543E0,-3.761024417E0,3.164116085E0,6.024842577E0
1.570001900E1,-4.342446983E0,-3.980072225E0,3.417492896E0,6.810071837E0
1.570998400E1,-4.968879662E0,-3.878224254E0,3.389019003E0,7.156524174E0
1.571994900E1,-5.459787329E0,-3.397475538E0,2.895050025E0,7.052193443E0
1.572991400E1,-6.066111433E0,-2.553236416E0,2.062295711E0,6.897085451E0
1.573988000E1,-6.267788333E0,-1.651211016E0,1.153374105E0,6.583459594E0
1.574984500E1,-5.685248948E0,-6.989270425E-1,6.656581396E-1,5.766598250E0
1.575981000E1,-5.264783857E0,2.868006653E-1,2.979570065E-1,5.281001994E0
1.576977500E1,-4.734351935E0,1.001433329E0,7.381232679E-2,4.839669949E0
1.577974100E1,-4.254279742E0,1.662627119E0,-1.721507996E-1,4.570870919E0
1.578970600E1,-4.411893779E0,2.476623273E0,-8.491190623E-1,5.130250748E0
1.579967100E1,-4.333868241E0,3.532460850E0,-1.642379381E0,5.827358203E0
1.580963700E1,-2.984457753E0,4.186233940E0,-1.865775763E0,5.469246920E0
1.581960200E1,-1.972662866E0,4.581995130E0,-2.009513188E0,5.378124339E0
1.582956700E1,-1.354516569E0,4.600879297E0,-2.173355679E0,5.265575026E0
1.583953200E1,-1.295354149E0,4.331807390E0,-2.299219335E0,5.072367020E0
1.584949800E1,-1.185248447E0,4.302325144E0,-2.022751869E0,4.899626582E0
1.585946300E1,-1.482009844E0,4.278555043E0,-1.858017678E0,4.894345321E0
1.586942800E1,-2.004036686E0,4.194679658E0,-1.369525495E0,4.846349198E0
1.587939300E1,-1.954064042E0,4.429373446E0,-5.627793403E-1,4.873852274E0
1.588935900E1,-1.685106448E0,4.770864873E0,1.077993043E-1,5.060865150E0
1.589932400E1,-1.657424559E0,4.933246729E0,4.220414277E-1,5.221311945E0
1.590928900E1,-1.616898677E0,5.166671087E0,3.309079671E-1,5.423868687E0
1.591925500E1,-1.397390693E0,5.461036295E0,8.287375689E-1,5.697580550E0
1.592922000E1,-4.492260835E-1,4.861458709E0,5.345431725E-1,4.911346175E0
1.593918500E1,4.745690855E-1,3.952201472E0,-3.594974895E-1,3.996792556E0
1.594915000E1,9.482692748E-1,3.020379830E0,-2.067904068E0,3.781287634E0
1.595911600E1,1.691182874E0,2.172475088E0,-4.851627785E0,5.578354568E0
1.596908100E1,2.395814460E0,9.576651657E-1,-7.457297938E0,7.891029212E0
1.597904600E1,3.132139417E0,-5.265797764E-1,-8.078952856E0,8.680844592E0
1.598901100E1,3.387535272E0,-2.169413486E0,-5.888267784E0,7.131160325E0
1.599897700E1,3.081734664E0,-3.235252141E0,-2.394766932E0,5.069403674E0
1.600894200E1,2.818925709E0,-3.146637003E0,5.303857291E-1,4.257813477E0
1.601890700E1,3.859513164E0,-2.516715292E0,4.891055560E-1,4.633456805E0
1.602887200E1,4.682003567E0,-2.651919875E0,-1.540267554E0,5.596986739E0
1.603883800E1,4.276056235E0,-3.743268762E0,1.346685393E-1,5.684615516E0
1.604880300E1,1.544955413E0,-5.331411710E0,3.273116956E0,6.443922148E0
1.605876800E1,-1.296731168E-1,-6.197901242E0,3.243084487E0,6.996312737E0
1.606873400E1,2.413198525E-1,-6.067974356E0,1.619977967E0,6.285131396E0
1.607869900E1,6.054119378E-2,-6.782798808E0,-5.167370852E-1,6.802723140E0
1.608866400E1,-1.145604032E-1,-7.635485403E0,-1.853109817E0,7.857975402E0
1.609862900E1,-6.945392919E-1,-7.305020070E0,2.315943249E-1,7.341616919E0
1.610859500E1,-1.091941357E0,-5.648777525E0,3.078271358E0,6.525088353E0
1.611856000E1,-7.427102624E-1,-5.191686060E0,3.920266904E0,6.547802324E0
1.612852500E1,-1.128136937E0,-5.740292882E0,3.822665180E0,6.988306261E0
1.613849000E1,-1.602436174E0,-6.055192342E0,2.953407576E0,6.925010636E0
1.614845600E1,-1.146694830E0,-5.453444855E0,2.320440634E0,6.036506817E0
1.615842100E1,-6.531107457E-1,-4.241889492E0,2.534941063E0,4.984586874E0
1.616838600E1,-4.493640777E-1,-2.915203623E0,3.016423019E0,4.218903657E0
1.617835100E1,-6.810310543E-2,-1.793726372E0,3.151837517E0,3.627143789E0
1.618831700E1,-1.909091060E-1,-4.807615793E-1,3.010201582E0,3.054323419E0
1.619828200E1,-7.394738285E-1,9.918181676E-1,2.559736766E0,2.843022534E0
1.620824700E1,-9.672610313E-1,2.418856291E0,2.085721704E0,3.337168663E0
1.621821300E1,-8.894380993E-1,3.607111083E0,1.598629929E0,4.044498504E0
1.622817800E1,-6.681891069E-1,4.634800749E0,1.121175535E0,4.815068977E0
1.623814300E1,-8.197835813E-1,5.325608348E0,8.198574024E-1,5.450350040E0
1.624810800E1,-7.261187880E-1,5.662706178E0,7.132778639E-1,5.753455923E0
1.625807400E1,-6.244365849E-1,5.778219092E0,5.759384626E-1,5.840328933E0
1.626803900E1,-6.746119809E-1,5.839678591E0,4.419109243E-1,5.895102428E0
1.627800400E1,-6.697356954E-1,5.895942255E0,3.726045350E-1,5.945545821E0
1.628796900E1,-7.677366377E-1,5.868339888E0,2.067084289E-1,5.921955840E0
1.629793500E1,-1.012956291E0,5.841032222E0,-6.164843716E-2,5.928535940E0
1.630790000E1,-1.274939472E0,5.694404519E0,-2.067891204E-1,5.839047458E0
1.631786500E1,-1.646126423E0,5.423004250E0,-3.588512260E-1,5.678686600E0
1.632783000E1,-1.859391335E0,4.921128960E0,-5.823259610E-1,5.292820599E0
1.633779600E1,-1.845195318E0,4.389984847E0,-8.321166748E-1,4.834162893E0
1.634776100E1,-1.746854653E0,3.577888454E0,-1.073595133E0,4.123759629E0
1.635772600E1,-1.938357397E0,2.267514562E0,-1.192929057E0,3.212776280E0
1.636769200E1,-1.129927939E0,1.282737027E0,-1.459726397E0,2.247877351E0
1.637765700E1,3.168363503E-1,4.432891130E-1,-1.746495634E0,1.829518382E0
1.638762200E1,1.637200356E0,-3.857396472E-1,-1.946639978E0,2.572669292E0
1.639758700E1,2.795495331E0,-1.158007146E0,-2.450631961E0,3.893760612E0
1.640755300E1,3.625612843E0,-2.045879946E0,-2.771973737E0,5.001452953E0
1.641751800E1,4.614517343E0,-2.888828003E0,-2.711283731E0,6.081953388E0
1.642748300E1,6.145141230E0,-3.189017622E0,-2.874440344E0,7.496332532E0
1.643744800E1,7.301961976E0,-3.089976314E0,-3.004904589E0,8.479154080E0
1.644741400E1,7.846515509E0,-2.657485839E0,-3.094973930E0,8.843579606E0
1.645737900E1,7.940375599E0,-2.102618988E0,-3.311179991E0,8.856324531E0
1.646734400E1,8.097470988E0,-1.900560265E0,-3.357582325E0,8.969644630E0
1.647730900E1,8.149507699E0,-2.507807643E0,-2.646305963E0,8.927850254E0
1.648727500E1,8.220487050E0,-4.039312121E0,-1.366852148E0,9.260709181E0
1.649724000E1,7.895067279E0,-5.530357960E0,-3.087569600E-1,9.644287292E0
