"Time (s)","Linear Acceleration x (m/s^2)","Linear Acceleration y (m/s^2)","Linear Acceleration z (m/s^2)","Absolute acceleration (m/s^2)"
-2.445583348E-3,-8.650413959E-1,6.102015384E-1,-1.208688473E0,1.606726597E0
7.521416643E-3,-1.436979413E0,1.063089587E0,-9.348335427E-1,2.017172044E0
1.748841663E-2,-1.354099809E0,1.080659447E0,-5.294168454E-1,1.811544459E0
2.745541662E-2,-5.280420189E-1,6.221196257E-1,-2.920345080E-1,8.666864232E-1
3.742241667E-2,5.651607285E-1,1.017387749E-1,-2.002308834E-1,6.081528049E-1
4.738941666E-2,1.382509091E0,-4.129674992E-1,-3.261658752E-1,1.479276080E0
5.735741666E-2,1.392293821E0,-8.261574849E-1,-2.572435749E-1,1.639265852E0
6.732441665E-2,8.762640300E-1,-8.478246349E-1,-5.070839900E-1,1.320522410E0
7.729141664E-2,9.716669083E-1,-8.038839787E-1,-1.752518705E0,2.159094218E0
8.725841664E-2,1.408317093E0,-1.234175316E0,-2.054350222E0,2.779730307E0
9.722541663E-2,2.435584590E-1,-1.100028787E0,-8.266208768E-1,1.397385462E0
1.071924167E-1,-3.912211195E-1,-5.060799500E-1,-1.678092420E-2,6.398847392E-1
1.171604167E-1,4.084163189E-2,-3.741346782E-1,2.800506395E-1,4.691195552E-1
1.271274167E-1,2.045578229E-1,-2.889134105E-1,7.875620610E-1,8.634632948E-1
1.370944167E-1,2.013444856E-1,-2.584714901E-1,1.401063037E0,1.438862310E0
1.470614166E-1,5.066398939E-1,-3.549853393E-1,2.003424482E0,2.096761367E0
1.570284166E-1,7.972225383E-1,-6.448745770E-1,2.709993836E0,2.897497815E0
1.669954166E-1,9.871424416E-1,-7.618955617E-1,3.331951055E0,3.557644288E0
1.769624166E-1,9.020049351E-1,-6.570320347E-1,3.815145661E0,3.975001938E0
1.869304167E-1,1.088286408E0,-8.338665272E-1,3.448405371E0,3.710956790E0
1.968974167E-1,1.716141129E0,-1.007000609E0,2.829056010E0,3.458720647E0
2.068644167E-1,2.129988050E0,-8.182204013E-1,2.411449038E0,3.319852433E0
2.168314166E-1,1.980653670E0,-2.846475743E-1,2.043703027E0,2.860198467E0
2.267984166E-1,1.222158411E0,4.866963935E-1,1.303506922E0,1.851938135E0
2.367654166E-1,-3.183346993E-1,1.180222326E0,4.003038919E-1,1.286275603E0
2.467324166E-1,-1.878620342E0,1.442670362E0,-1.998625088E-1,2.377069032E0
2.567004166E-1,-2.355528314E0,1.219000476E0,-6.093219709E-1,2.721350595E0
2.666674167E-1,-1.980966204E0,9.392574730E-1,-6.315080613E-1,2.281498221E0
2.766344167E-1,-1.254612504E0,7.400991882E-1,-2.954539597E-1,1.486301580E0
2.866014167E-1,-4.343247467E-1,7.291393865E-1,-6.301778197E-2,8.510308287E-1
2.965684166E-1,-7.017301977E-2,6.290639982E-1,1.916834235E-2,6.332560240E-1
3.065354166E-1,-1.287673831E-2,5.324378825E-1,-7.320304692E-2,5.376007768E-1
3.165024166E-1,5.576898873E-2,5.573979650E-1,-1.746738732E-2,5.604531927E-1
3.264704166E-1,2.967228055E-2,6.130873585E-1,3.660058790E-1,7.146445669E-1
3.364374167E-1,-4.401374638E-2,4.396251015E-1,5.616858745E-1,7.146316963E-1
3.464044167E-1,-1.999996260E-1,-1.010566972E-2,7.551714098E-1,7.812719329E-1
3.563714167E-1,-3.360134634E-1,-4.049724551E-1,7.641363609E-1,9.277996093E-1
3.663384166E-1,-5.209680574E-1,-6.291641318E-1,5.815827799E-1,1.002743113E0
3.763054166E-1,-6.513644747E-1,-5.716493107E-1,2.128544372E-1,8.923932008E-1
3.862724166E-1,-7.784195007E-1,-1.728170168E-1,-6.211023563E-1,1.010727845E0
3.962404166E-1,-9.689678335E-1,5.181051875E-1,-1.383676926E0,1.766888079E0
4.062074167E-1,-1.232346307E0,9.005209118E-1,-1.833840610E0,2.385914231E0
4.161744167E-1,-1.339782609E0,9.741174033E-1,-2.537351870E0,3.030194163E0
4.261414167E-1,-1.284351443E0,8.923215806E-1,-2.275924612E0,2.761454195E0
4.361084166E-1,-1.161008522E0,8.343872948E-1,-3.982404095E-1,1.484162514E0
4.460754166E-1,-7.305539741E-1,5.499164526E-1,2.036271216E0,2.232155389E0
4.560424166E-1,5.546924584E-1,-2.508981033E-1,7.032294238E-1,9.301425719E-1
4.660104166E-1,8.094860499E-1,-1.285866895E0,-5.680803895E-2,1.520509286E0
4.759774167E-1,8.346407716E-1,-1.323601463E0,-1.076579406E0,1.899360226E0
4.859444167E-1,-9.451037385E-3,-7.248558625E-1,-1.055185028E0,1.280203416E0
4.959114167E-1,-4.315619373E-1,-5.601370932E-1,-1.250294335E0,1.436396601E0
5.058784166E-1,-1.445431709E-3,-8.151828459E-1,-1.853174429E0,2.024544548E0
5.158454166E-1,3.673607520E-1,-9.858797354E-1,-2.174447939E0,2.415602743E0
5.258134166E-1,4.315351132E-1,-1.310547554E0,-2.704214448E0,3.035874376E0
5.357804166E-1,2.880814978E-1,-1.413272608E0,-2.156837879E0,2.594663765E0
5.457474167E-1,-9.257443383E-2,-7.663008539E-1,2.833841372E-1,8.222491069E-1
5.557144167E-1,-2.833597250E-1,-2.643801747E-1,2.026376558E0,2.063102413E0
5.656814167E-1,-1.554106598E-1,-6.909773143E-1,2.242168052E0,2.351365496E0
5.756484166E-1,-1.416983543E-1,-1.581266622E0,1.607617099E0,2.259405960E0
5.856154166E-1,-2.930188867E-1,-2.137114929E0,1.056484280E0,2.401932414E0
5.955834166E-1,-5.737207599E-1,-2.410027580E0,4.443100369E-1,2.516902830E0
6.055504166E-1,-1.098344496E0,-2.835001459E0,-2.048402435E-1,3.047220608E0
6.155174166E-1,-1.745752014E0,-3.608404487E0,-4.747582430E-1,4.036536687E0
6.254844167E-1,-2.777352591E0,-4.282568279E0,-1.993338620E0,5.479733327E0
6.354514167E-1,-3.710592767E0,-4.674126491E0,-3.349035450E0,6.843390649E0
6.454184167E-1,-4.068053233E0,-4.426817920E0,-3.692015578E0,7.055264207E0
6.553854166E-1,-3.515724950E0,-3.699341262E0,-3.622769927E0,6.258586872E0
6.653534166E-1,-2.135984662E0,-2.718286065E0,-3.159293886E0,4.683230452E0
6.753204166E-1,-7.531424260E-1,-2.068227127E0,-2.787406878E0,3.551679049E0
6.852874166E-1,-2.145600700E-1,-1.904578910E0,-2.117704804E0,2.856244122E0
6.952544167E-1,6.675827506E-1,-2.014266390E0,-1.817430400E0,2.793920019E0
7.052214167E-1,2.313351470E0,-1.704192637E0,-1.900482497E0,3.444953017E0
7.151884167E-1,3.473265978E0,-9.510179778E-1,-1.133516668E0,3.775297576E0
7.251554166E-1,2.124170655E0,-1.341193103E0,8.446770787E-2,2.513570112E0
7.351234166E-1,-8.731062412E-1,-2.499946062E0,1.069926444E0,2.856009001E0
7.450904166E-1,-2.999958429E0,-3.179198101E0,1.970388883E0,4.794734976E0
7.550574166E-1,-2.835285049E0,-3.034990560E0,3.559952704E0,5.470216839E0
7.650244167E-1,-1.501370852E0,-2.553294011E0,2.694728510E0,4.004370922E0
7.749914167E-1,-2.637702370E-1,-1.635264928E0,2.560195772E0,3.049306235E0
7.849584167E-1,4.625007248E-1,-5.750556792E-1,2.981754878E0,3.071719080E0
7.949254166E-1,1.072462966E0,-7.807757825E-2,2.135016655E0,2.390516480E0
8.048934166E-1,8.321652067E-1,4.932645343E-2,2.039545072E0,2.203332960E0
8.148604166E-1,1.026689208E-1,-2.561328962E-2,2.261374986E0,2.263849327E0
8.248279166E-1,1.628619128E-1,2.678569291E-1,2.529147057E0,2.548500770E0
8.347949166E-1,4.155838358E-1,6.421158607E-1,2.119216309E0,2.253020299E0
8.447619167E-1,3.811373037E-1,6.952063130E-1,1.426625310E0,1.632126599E0
8.547289167E-1,1.188844192E-1,7.529960994E-1,1.705652686E0,1.868257937E0
8.646969167E-1,-2.412526095E-1,5.715122665E-1,1.934970544E0,2.031979355E0
8.746639166E-1,-2.090426373E-1,3.732526989E-1,1.414836738E0,1.478099928E0
8.846309166E-1,4.275951862E-2,4.712749104E-1,9.161809248E-1,1.031172102E0
8.945979166E-1,7.896582878E-1,8.493126051E-1,1.755772680E-1,1.172910691E0
9.045649166E-1,1.834470356E0,1.375553682E0,-6.161222827E-1,2.374244318E0
9.145319167E-1,2.334234216E0,1.616140878E0,-1.451274247E0,3.188535346E0
9.244989167E-1,2.590567964E0,1.835793873E0,-2.183780680E0,3.853580099E0
9.344669167E-1,3.173169914E0,2.026498180E0,-2.569544300E0,4.558317682E0
9.444339167E-1,4.349991646E0,2.320721886E0,-3.265282856E0,5.913564874E0
9.544009166E-1,5.039312882E0,3.001825738E0,-4.367833840E0,7.313248563E0
9.643679166E-1,5.033869125E0,3.152004747E0,-4.788466161E0,7.629179541E0
9.743349166E-1,5.783872181E0,3.040900926E0,-4.566753193E0,7.972169753E0
9.843019167E-1,6.369075556E0,3.496890483E0,-3.447251716E0,8.042195651E0
9.942689167E-1,5.719296116E0,2.997858694E0,-1.709537576E0,6.679822118E0
1.004236917E0,4.304272851E0,1.396672655E0,-2.593941808E-1,4.532631093E0
1.014203917E0,2.293194948E0,6.491154894E-2,7.041538686E-1,2.399747747E0
1.024170917E0,2.857353026E-1,-5.082603036E-1,1.007712654E0,1.164241381E0
1.034137917E0,-1.162119493E0,-8.294367497E-1,8.955630577E-1,1.685384297E0
1.044104917E0,-2.431274022E0,-9.522626308E-1,3.151690167E-1,2.630062547E0
1.054071917E0,-3.515186421E0,-1.180035362E0,3.850391507E-3,3.707968967E0
1.064038917E0,-3.612877023E0,-1.754505588E0,6.591759163E-1,4.070096206E0
1.074006917E0,-3.050643849E0,-1.927274731E0,2.330122454E0,4.295379661E0
1.083973917E0,-2.633825666E0,-1.933985434E0,3.480611250E0,4.774095933E0
1.093940917E0,-2.382553852E0,-2.090554135E0,3.341210706E0,4.605504145E0
1.103907917E0,-2.224125298E0,-1.942012346E0,2.810464788E0,4.076378002E0
1.113874917E0,-2.278351792E0,-1.983276585E0,1.735844784E0,3.483881458E0
1.123841917E0,-2.342979897E0,-1.676670377E0,1.651008117E-1,2.885833784E0
1.133808917E0,-2.190995559E0,-1.326025134E0,-1.393578601E0,2.915624378E0
1.143776917E0,-9.023171765E-1,-6.777994443E-1,-2.623621105E0,2.856042030E0
1.153743917E0,2.824205160E-1,9.395189166E-2,-3.574342117E0,3.586712963E0
1.163710917E0,1.690547574E0,8.986650056E-1,-3.831798531E0,4.283483381E0
1.173677917E0,2.508055565E0,1.043037730E0,-4.025351894E0,4.856102171E0
1.183644917E0,3.869698429E0,8.945260540E-1,-2.440587468E0,4.661674589E0
1.193611917E0,5.339163948E0,9.971335790E-1,-6.306941289E-1,5.467972396E0
1.203578917E0,4.290993825E0,7.637510294E-1,-7.306394166E-1,4.419250796E0
1.213546917E0,1.383945313E0,8.049715608E-2,-7.284759468E-1,1.566033725E0
1.223513917E0,1.089013510E0,-5.866964623E-1,4.478850245E-1,1.315585101E0
1.233480917E0,4.730767592E0,-8.722116172E-1,4.030729578E0,6.275961762E0
1.243447917E0,4.193880928E0,-1.912021977E-1,3.664202712E0,5.572394192E0
1.253414917E0,6.546297061E-1,-3.481133991E-1,-4.759317791E-1,8.810414572E-1
1.263381917E0,4.791389769E-1,-2.114744943E-1,-3.037739629E-1,6.054537484E-1
1.273349917E0,1.191556715E0,2.060833615E-1,6.796344468E-1,1.387148420E0
1.283316917E0,1.210537362E0,4.616218883E-1,1.085675919E0,1.690321766E0
1.293283917E0,1.239259470E0,5.245350051E-1,7.286636424E-1,1.530310985E0
1.303250917E0,1.330427502E0,4.133946383E-1,3.172699213E-1,1.428843123E0
1.313217917E0,1.348155676E0,2.430558908E-1,2.179274815E-1,1.387116534E0
1.323184917E0,9.315181714E-1,-2.437593108E-1,4.329781330E-1,1.055753176E0
1.333151917E0,1.738891768E-1,-5.406937855E-1,9.361760634E-1,1.094994446E0
1.343119917E0,-5.147964674E-1,-3.801801145E-1,8.177722853E-1,1.038414095E0
1.353086917E0,-1.173164299E0,-7.853804648E-2,2.888857824E-1,1.210759138E0
1.363053917E0,-1.836885256E0,2.180391634E-1,-2.555373573E-1,1.867347814E0
1.373020917E0,-2.411173049E0,5.499505126E-1,-4.782209641E-1,2.518907765E0
1.382987917E0,-2.795722203E0,6.715275747E-1,-9.216588888E-1,3.019348776E0
1.392954917E0,-2.797524315E0,3.313780832E-1,-8.472247106E-1,2.941724569E0
1.402921917E0,-2.588693932E0,4.383727741E-1,-1.813970017E-1,2.631807712E0
1.412889917E0,-1.804018641E0,1.030117430E0,-4.667917040E-1,2.129206348E0
1.422856917E0,-1.088898320E0,1.274365568E0,-9.044847393E-1,1.904678397E0
1.432823917E0,-1.259168655E-1,1.171338213E0,-5.128721488E-1,1.284883694E0
1.442790917E0,9.342681170E-2,1.882295902E0,5.196976036E-2,1.885329490E0
1.452757917E0,6.001406729E-2,1.844529905E0,8.055241227E-2,1.847263097E0
1.462724917E0,5.965826422E-1,1.776848384E0,3.923679046E-1,1.914955248E0
1.472691917E0,1.769242911E0,2.071253938E0,9.409105539E-1,2.881948303E0
1.482659917E0,2.788437157E0,2.336370789E0,1.234435956E0,3.841593728E0
1.492626917E0,3.304286708E0,1.861139506E0,9.445567314E-1,3.908239799E0
1.502593917E0,3.655503225E0,1.716656561E0,9.554274362E-1,4.149994598E0
1.512560917E0,3.227419796E0,2.034191946E0,9.572396345E-1,3.933253505E0
1.522527917E0,2.322391266E0,2.312787214E0,6.090296102E-1,3.333677092E0
1.532494917E0,8.239796895E-1,2.455997804E0,4.038608994E-1,2.621825961E0
1.542461917E0,-1.943181789E0,2.459497948E0,4.410679020E-1,3.165379363E0
1.552429917E0,-3.201416059E0,1.671278075E0,3.327369761E-1,3.626699475E0
1.562396917E0,-2.571591995E0,7.031218350E-1,2.388879955E-2,2.666090092E0
1.572363917E0,-3.146626478E-1,-9.118358588E-1,1.091675162E-2,9.646638745E-1
1.582330917E0,1.000313002E0,-1.794570710E0,-4.457151228E-1,2.102325405E0
1.592297917E0,5.146388850E-1,-2.134485728E0,-7.129309778E-1,2.308495849E0
1.602264917E0,-4.736086804E-1,-2.334508451E0,-9.693280220E-1,2.571737098E0
1.612231917E0,-1.620588562E0,-1.788285538E0,-1.889587380E0,3.065095907E0
1.622199917E0,-2.709999098E0,-6.622234851E-1,-2.822718798E0,3.968674397E0
1.632166917E0,-3.598995148E0,-2.547754651E-1,-2.602125571E0,4.448453001E0
1.642133917E0,-3.118079495E0,-1.080728590E0,-1.497743824E0,3.624035124E0
1.652100917E0,-2.633047109E0,-1.462474004E0,-5.051082158E-1,3.053997642E0
1.662067917E0,-2.094840144E0,-2.108826392E0,9.041993952E-1,3.106940702E0
1.672034917E0,-1.589987744E0,-2.662306284E0,1.737886632E0,3.554741302E0
1.682001917E0,-9.740543264E-1,-2.839821904E0,1.876734030E0,3.540550931E0
1.691969917E0,-1.682875443E-1,-2.388332071E0,1.872399489E0,3.039462226E0
1.701936917E0,2.695659971E-1,-1.566466734E0,2.166337851E0,2.686913385E0
1.711903917E0,-5.232088566E-1,-9.160897082E-1,2.978454709E0,3.159772194E0
1.721870917E0,-3.254197997E0,-9.634995174E-1,4.654074926E0,5.760082408E0
1.731837917E0,-3.208485050E0,-3.194480091E-1,2.063095903E0,3.827896034E0
1.741804917E0,-1.586049060E0,1.477889603E0,-1.496876097E0,2.634453900E0
1.751772917E0,5.456846765E-1,1.754500326E0,-2.108044619E0,2.796407566E0
1.761739917E0,7.937330662E-1,8.855555481E-1,-1.044547262E0,1.582813884E0
1.771706917E0,1.440962390E0,5.814699286E-1,-2.076140895E-1,1.567668172E0
1.781673917E0,2.635127841E0,3.898701203E-1,-7.073207936E-1,2.756120489E0
1.791640917E0,3.477150576E0,1.179538348E0,-1.386317528E0,3.924762812E0
1.801607917E0,3.691575283E0,2.520075102E0,-2.040129794E0,4.913312138E0
1.811574917E0,3.660112000E0,3.041385952E0,-2.196672036E0,5.241356351E0
1.821542917E0,3.200377301E0,2.449285201E0,-2.206635692E0,4.594633167E0
1.831509042E0,2.858483585E0,1.828119695E0,-2.454376372E0,4.187709803E0
1.841476042E0,2.289676386E0,1.704443482E0,-2.402766507E0,3.731089978E0
1.851443042E0,1.868211713E0,2.029474998E0,-1.901726199E0,3.350454642E0
1.861410042E0,1.881922411E0,3.157361382E0,-1.459966133E0,3.955004926E0
1.871377042E0,1.677375551E0,3.722799414E0,-1.098327540E0,4.228374109E0
1.881344042E0,1.587853218E0,3.708646229E0,-1.024606429E0,4.162349460E0
1.891312042E0,1.393913062E0,4.144641525E0,-1.126455570E0,4.515523131E0
1.901279042E0,5.927794670E-1,4.953540661E0,-1.218921100E0,5.135632505E0
1.911246042E0,1.878830988E-2,6.107121465E0,-1.100988607E0,6.205599205E0
1.921213042E0,-3.786715329E-2,6.142314686E0,-8.732570994E-1,6.204195483E0
1.931180042E0,1.881264161E-1,2.757091988E0,-7.047456068E-1,2.851949184E0
1.941147042E0,1.086127032E0,-2.517084836E0,-1.371062143E0,3.065158952E0
1.951114042E0,1.441835672E0,-1.181088211E1,-1.263230131E0,1.196543258E1
1.961082042E0,1.943102705E0,-1.863003598E1,-3.991473126E-1,1.873534647E1
1.971049042E0,1.281279170E0,-2.094736473E1,1.353435127E0,2.103011061E1
1.981016042E0,-7.334491499E-1,-1.951322633E1,1.504057063E0,1.958484458E1
1.990983042E0,-1.604901506E0,-1.150530896E1,2.090224060E0,1.180325717E1
2.000950042E0,-1.462950260E0,-2.541773534E0,2.689208153E0,3.979029612E0
2.010917042E0,-1.252973091E0,1.712765824E0,2.267792305E0,3.105863853E0
2.020884042E0,-1.222648554E0,3.776055855E0,1.810245341E0,4.362391030E0
2.030852042E0,-1.234507146E0,4.951157920E0,1.777419072E0,5.403442533E0
2.040819042E0,-8.426790851E-1,5.495894471E0,1.874438413E0,5.867579010E0
2.050786042E0,-2.239033359E-1,5.021078340E0,2.140638753E0,5.462938282E0
2.060753042E0,3.664777493E-1,3.322176265E0,2.711015929E0,4.303576238E0
2.070720042E0,1.008140232E0,1.257456590E0,3.422772932E0,3.783241777E0
2.080687042E0,1.661693904E0,-5.247209466E-1,3.501373544E0,3.911032523E0
2.090655042E0,2.012387387E0,-1.480203347E0,2.529669798E0,3.555268517E0
2.100622042E0,1.864806441E0,-1.404459684E0,1.602310751E0,2.831503101E0
2.110589042E0,1.144047211E0,-7.445259690E-1,7.801390938E-1,1.572189539E0
2.120556042E0,3.484930296E-1,-4.991183281E-2,3.805772135E-1,5.184376512E-1
2.130523042E0,-2.090992092E-1,5.449388641E-1,4.847721114E-1,7.587389834E-1
2.140490042E0,-5.404955649E-1,7.566834998E-1,7.370175594E-1,1.186549728E0
2.150457042E0,-5.667438622E-1,4.552484232E-1,8.153684950E-1,1.092371510E0
2.160425042E0,-4.924199040E-1,-2.128561914E-2,5.794789517E-1,7.607406226E-1
2.170392042E0,-5.006175542E-1,-4.840360200E-1,2.338934501E-1,7.345848829E-1
2.180359042E0,-5.009784736E-1,-8.378066003E-1,-1.050259334E-1,9.817992551E-1
2.190326042E0,-4.585363126E-1,-8.847229046E-1,-3.877002186E-1,1.069252836E0
2.200293042E0,-3.384881513E-1,-5.749081832E-1,-5.385806018E-1,8.574163005E-1
2.210260042E0,3.410432383E-2,-2.463934815E-1,-5.039171380E-1,5.619655991E-1
2.220227042E0,4.915156321E-1,-3.225791931E-2,-3.027027529E-1,5.781497614E-1
2.230195042E0,7.611123271E-1,1.597968024E-1,-2.426093097E-1,8.146694236E-1
2.240162042E0,8.502379270E-1,4.805943489E-2,-4.894594587E-1,9.822345970E-1
2.250129042E0,1.136068832E0,3.384473670E-1,-6.069545795E-1,1.331763069E0
2.260096042E0,1.436444100E0,4.093746775E-1,-8.554337628E-1,1.721257158E0
2.270063042E0,1.401889102E0,7.295652831E-1,-1.293141270E0,2.042002180E0
2.280030042E0,8.621240008E-1,1.174481676E0,-1.861739723E0,2.364051564E0
2.289997042E0,2.147881114E-1,1.696340995E0,-2.063629754E0,2.679976579E0
2.299965042E0,-4.842792642E-1,2.456790102E0,-2.131132935E0,3.288171467E0
2.309932042E0,-8.762644686E-1,3.509195364E0,-1.952181239E0,4.110146361E0
2.319899042E0,-5.291401991E-1,4.456854774E0,-1.370831178E0,4.692837303E0
2.329866042E0,-3.966675816E-1,4.770433933E0,-7.989623773E-1,4.853115078E0
2.339833042E0,-8.832043827E-2,4.323282734E0,-3.320920283E-1,4.336918170E0
2.349800042E0,7.109606123E-1,3.535509004E0,-7.980937734E-3,3.606293472E0
2.359767042E0,1.044436311E0,2.643999236E0,2.791916835E-1,2.856488608E0
2.369735042E0,1.435334153E0,1.735429632E0,7.212821174E-1,2.364772300E0
2.379702042E0,1.520940021E0,5.850063246E-1,1.015167927E0,1.919910640E0
2.389669042E0,1.489116842E0,-8.877090776E-1,1.242395332E0,2.132848456E0
2.399636042E0,1.372188317E0,-2.613239374E0,1.512356016E0,3.316495367E0
2.409603042E0,8.119320133E-1,-4.624828323E0,1.827727931E0,5.038735953E0
2.419570042E0,-2.949174777E-2,-6.177524280E0,2.564649011E0,6.688804119E0
2.429537042E0,-5.518235220E-1,-7.233641354E0,2.843338419E0,7.791960588E0
2.439505042E0,-2.471717459E-1,-7.421734588E0,2.403414379E0,7.805103384E0
2.449472042E0,9.616323553E-1,-6.208877635E0,1.110060562E0,6.380214160E0
2.459439042E0,1.563419750E0,-3.772025369E0,-2.443229824E-1,4.090495131E0
2.469406042E0,1.029341212E0,-1.252020434E0,-1.460794099E0,2.181975687E0
2.479373042E0,5.336525685E-1,1.835836265E0,-3.872925799E0,4.319101076E0
2.489340042E0,9.631676880E-1,2.494959556E0,-4.566514626E0,5.292029007E0
2.499307042E0,1.093467919E0,5.637557888E-1,-3.305232788E0,3.526762887E0
2.509275042E0,4.081078783E-1,-7.390021044E-1,-2.286114555E0,2.437005521E0
2.519242042E0,-1.580267040E-1,-7.631049120E-1,-1.692360211E0,1.863165218E0
2.529209042E0,-3.329214558E-1,-1.906297553E-1,-1.358818073E0,1.411935889E0
2.539176042E0,-4.788285629E-1,1.120168644E-1,-1.160599217E0,1.260482095E0
2.549143042E0,-2.515675364E-1,3.551744968E-1,-9.452509421E-1,1.040641385E0
2.559110042E0,6.752371944E-2,5.482776242E-1,-6.220718247E-1,8.319502155E-1
2.569077042E0,1.689174356E-1,4.359999740E-1,-2.597836053E-1,5.348986810E-1
2.579045042E0,8.226864316E-2,8.203351200E-2,-1.571743262E-1,1.954517729E-1
2.589012042E0,-2.323992672E-1,-2.039491278E-1,-3.121989235E-1,4.394005393E-1
2.598979042E0,-5.251531289E-1,-2.573722136E-1,-6.794055283E-1,8.964475093E-1
2.608946042E0,-6.131177641E-1,-2.136952668E-1,-9.189411029E-1,1.125180790E0
2.618913042E0,-7.548841654E-1,-2.124357766E-1,-1.000019180E0,1.270833357E0
2.628880042E0,-8.422439792E-1,-5.080604750E-1,-7.446841362E-1,1.233715863E0
2.638847042E0,-5.041153586E-1,-9.458777636E-1,-4.963701367E-1,1.181185993E0
2.648815042E0,-2.206703373E-1,-1.084315272E0,-4.149010272E-1,1.181768958E0
2.658782042E0,-1.883961189E-1,-8.051341134E-1,-4.164195491E-1,9.258181674E-1
2.668749042E0,-2.439922493E-1,-3.158396924E-1,-4.384721768E-1,5.929121173E-1
2.678716042E0,-4.281883863E-1,-3.179365039E-2,-2.390961564E-1,4.914499998E-1
2.688683042E0,-3.066399025E-1,1.825752157E-1,2.727433741E-2,3.579184665E-1
2.698650042E0,-4.451850727E-3,3.683617222E-1,1.880732064E-1,4.136202465E-1
2.708618042E0,2.584079382E-1,5.464573860E-1,2.911448541E-1,6.709364078E-1
2.718585042E0,5.427759425E-1,6.862543720E-1,3.589066283E-1,9.457085993E-1
2.728552042E0,8.194049741E-1,8.160537887E-1,4.447599801E-1,1.239023703E0
2.738519042E0,1.014917447E0,8.948409265E-1,7.265370101E-1,1.535790915E0
2.748486042E0,1.143546982E0,8.068754143E-1,1.186519924E0,1.834823469E0
2.758453042E0,1.268167520E0,5.916470075E-1,1.952813761E0,2.402452211E0
2.768420042E0,1.303918858E0,4.605652964E-1,2.695588635E0,3.029607709E0
2.778388042E0,1.311080820E0,4.395755464E-1,3.166741485E0,3.455490010E0
2.788355042E0,1.285838975E0,5.346185285E-1,3.580454797E0,3.841725575E0
2.798322042E0,1.361506331E0,7.400493407E-1,3.869303157E0,4.168078626E0
2.808289042E0,1.616998957E0,1.002521496E0,3.912571383E0,4.350626369E0
2.818256042E0,1.918920376E0,1.156182815E0,3.790949882E0,4.403443552E0
2.828223833E0,1.984380832E0,1.190460362E0,3.556864790E0,4.243377227E0
2.838190833E0,1.772099714E0,1.147488005E0,3.193479048E0,3.828233868E0
2.848158833E0,1.460404236E0,1.024350321E0,2.798141781E0,3.318383875E0
2.858125833E0,1.184837972E0,8.726501584E-1,2.356950064E0,2.778591896E0
2.868092833E0,9.995660938E-1,7.008308959E-1,1.915333255E0,2.271298703E0
2.878059833E0,8.202015842E-1,6.108726525E-1,1.555143747E0,1.861281309E0
2.888026833E0,6.345350917E-1,4.284412783E-1,1.455133994E0,1.644266296E0
2.897993833E0,5.748928343E-1,8.367365599E-2,1.270414020E0,1.396944821E0
2.907960833E0,4.510987274E-1,-3.972072065E-2,1.000214623E0,1.097951315E0
2.917928833E0,4.214961018E-1,-3.078155583E-1,6.695814751E-1,8.489692183E-1
2.927895833E0,5.019801016E-1,-4.710645568E-1,2.214444356E-1,7.231344807E-1
2.937862833E0,6.742020911E-1,-6.055663043E-1,-3.043768108E-2,9.067444298E-1
2.947829833E0,8.007557184E-1,-8.081805128E-1,-2.988652253E-1,1.176301783E0
2.957796833E0,8.510664774E-1,-1.016069494E0,-5.816718037E-1,1.447429948E0
2.967763833E0,9.467904409E-1,-1.235306752E0,-7.231111264E-1,1.716183152E0
2.977730833E0,1.283723452E0,-1.440835798E0,-7.587529756E-1,2.073562098E0
2.987698833E0,1.965561861E0,-1.519998327E0,-8.119515283E-1,2.614018674E0
2.997665833E0,2.783004802E0,-1.470642564E0,-7.483898091E-1,3.235427728E0
3.007632833E0,3.403063138E0,-1.369558824E0,-6.469944119E-1,3.724933806E0
3.017599833E0,3.771331304E0,-1.314271646E0,-4.025895685E-1,4.014016458E0
3.027566833E0,4.093748237E0,-1.329248119E0,-1.241814119E-1,4.305937321E0
3.037533833E0,4.588424728E0,-1.475205731E0,8.160023332E-2,4.820428615E0
3.047500833E0,5.283470389E0,-1.812311747E0,2.386703329E-1,5.590751000E0
3.057468833E0,5.812337596E0,-2.178151565E0,1.888209191E-1,6.209932842E0
3.067435833E0,6.139967029E0,-2.467553072E0,1.111783737E-1,6.618185092E0
3.077402833E0,6.407571870E0,-2.605226934E0,5.401760146E-2,6.917160006E0
3.087369833E0,6.540596026E0,-2.502669695E0,-5.095263720E-2,7.003238405E0
3.097336833E0,6.577390215E0,-2.107017848E0,-1.978773791E-1,6.909467542E0
3.107303833E0,6.535448138E0,-1.435421861E0,-3.068146612E-1,6.698257498E0
3.117270833E0,6.489162748E0,-6.031338626E-1,-3.089832473E-1,6.524452028E0
3.127238833E0,6.525409053E0,1.392479324E-1,-1.873747565E-1,6.529583646E0
3.137205833E0,6.791732769E0,7.014623952E-1,-3.853256643E-2,6.827969556E0
3.147172833E0,7.014067882E0,1.113091174E0,5.719936386E-2,7.102069556E0
3.157139833E0,7.056409909E0,1.406141928E0,2.349463874E-1,7.198982965E0
3.167106833E0,6.984438871E0,1.627647906E0,1.773125754E-1,7.173776118E0
3.177073833E0,6.496188177E0,1.785355498E0,-2.283192994E-1,6.740926108E0
3.187040833E0,5.926474076E0,1.831462548E0,-5.046509635E-1,6.223505654E0
3.197008833E0,5.212045480E0,1.697703397E0,-4.710503773E-1,5.501772748E0
3.206975833E0,4.482711454E0,1.491474440E0,-2.981034793E-1,4.733715631E0
3.216942833E0,3.997661235E0,1.280909772E0,1.763227880E-2,4.197896627E0
3.226909833E0,3.639009984E0,1.075730975E0,3.734451453E-1,3.813010893E0
3.236876833E0,3.124878929E0,7.647140658E-1,5.595592421E-1,3.265388563E0
3.246843833E0,2.512987107E0,2.711377287E-1,9.089004104E-1,2.686023050E0
3.256810833E0,1.791428855E0,-5.333327258E-1,1.310153305E0,2.282578109E0
3.266778833E0,1.343086578E0,-1.637946607E0,1.617761288E0,2.665314658E0
3.276745833E0,6.549373428E-1,-2.877839915E0,2.313159828E0,3.749881850E0
3.286712833E0,-2.793381563E-1,-4.115118349E0,2.909484462E0,5.047507173E0
3.296679833E0,-8.850747608E-1,-5.021620377E0,3.285148771E0,6.065659980E0
3.306646833E0,-9.900654647E-1,-5.445620695E0,3.432692733E0,6.512940487E0
3.316613833E0,-1.344969674E0,-5.763644323E0,3.706680103E0,6.983410104E0
3.326580833E0,-1.830218114E0,-5.732433640E0,3.968385980E0,7.208230093E0
3.336548833E0,-2.107939515E0,-5.099585981E0,3.937297504E0,6.778753412E0
3.346515833E0,-2.951988457E0,-3.730666258E0,2.857475232E0,5.549528925E0
3.356482833E0,-3.626998633E0,-2.157575798E0,1.000892754E0,4.337284717E0
3.366449833E0,-3.667271916E0,-6.402315223E-1,-2.022820574E0,4.236812809E0
3.376416833E0,-2.947340213E0,7.792519981E-1,-6.558118962E0,7.232079392E0
3.386383833E0,-1.422071206E0,1.701969525E0,-9.446092687E0,9.702971391E0
3.396350833E0,-9.337016679E-1,1.582485182E0,-8.495300338E0,8.691730897E0
3.406318833E0,-1.930575338E0,1.258627787E0,-6.045191265E0,6.469590595E0
3.416285833E0,-3.585527256E0,1.141531447E0,-4.410056876E0,5.797214969E0
3.426252833E0,-4.752562796E0,1.140659042E0,-3.871590587E0,6.235155961E0
3.436219833E0,-5.372011267E0,1.380824069E0,-4.430107856E0,7.098664366E0
3.446186833E0,-5.831651534E0,1.716260120E0,-4.815138236E0,7.754950976E0
3.456153833E0,-5.969654594E0,2.097909055E0,-4.611412764E0,7.829631285E0
3.466120833E0,-6.104103717E0,2.385580371E0,-4.227811736E0,7.799068404E0
3.476088833E0,-6.470712444E0,2.531398820E0,-3.750178417E0,7.895691083E0
3.486055833E0,-6.450127906E0,2.780129433E0,-3.002293807E0,7.638523272E0
3.496022833E0,-5.848037771E0,3.271862143E0,-1.961924162E0,6.982390284E0
3.505989833E0,-5.056273316E0,3.780994413E0,-1.027010804E0,6.396606115E0
3.515956833E0,-4.697633175E0,4.100576908E0,-4.470041415E-1,6.251583889E0
3.525923833E0,-4.403451861E0,4.087552820E0,-1.423074880E-1,6.009885837E0
3.535890833E0,-3.831217902E0,3.761855307E0,-9.077685356E-2,5.370104878E0
3.545858833E0,-3.208544107E0,3.159366977E0,-2.021905777E-1,4.507464477E0
3.555825833E0,-1.917978828E0,2.383840240E0,-3.977527517E-1,3.085375880E0
3.565792833E0,1.168159959E0,1.735502722E0,-4.922855642E-1,2.149165528E0
3.575759833E0,6.468312746E0,6.973301679E-1,-5.263663530E-1,6.527051454E0
3.585726833E0,1.254190803E1,-1.482752148E0,-5.474008343E-1,1.264110987E1
3.595693833E0,1.509720208E1,-4.940172172E0,-2.488765016E-1,1.588687355E1
3.605660833E0,1.243626288E1,-8.607206106E0,7.267817160E-1,1.514175825E1
3.615628833E0,9.217158406E0,-1.070063619E1,1.652903785E0,1.421941331E1
3.625595833E0,7.750028849E0,-1.007291537E1,1.822597584E0,1.283933150E1
3.635562833E0,6.943402526E0,-5.871245955E0,1.309383666E0,9.186776001E0
3.645529833E0,4.858167603E0,-1.112287767E0,1.177414055E0,5.121062428E0
3.655496833E0,1.700686061E0,1.719469657E0,1.397519624E0,2.793200687E0
3.665463833E0,-4.210325637E-1,3.354486224E0,1.256750246E0,3.606836208E0
3.675430833E0,-1.244642124E0,3.972124690E0,1.153945670E0,4.319548493E0
3.685398833E0,-1.391773858E0,3.060966523E0,1.415683415E0,3.648384582E0
3.695365833E0,-1.128232832E0,1.010257362E0,1.661721824E0,2.248299064E0
3.705332833E0,-7.435149854E-1,-1.484802766E0,1.417621182E0,2.183369782E0
3.715299833E0,-3.385958862E-1,-4.069182038E0,1.329943938E0,4.294373122E0
3.725266833E0,-8.448141959E-1,-5.739250908E0,1.286853905E0,5.942112839E0
3.735233833E0,-1.144409154E0,-5.243576590E0,7.380751745E-1,5.417519980E0
3.745200833E0,-1.683413679E0,-3.348805654E0,-1.874661192E-1,3.752802215E0
3.755168833E0,-2.749185676E0,-1.559889786E0,-8.633861223E-1,3.276692482E0
3.765135833E0,-4.225153299E0,-7.189245200E-1,-1.178242313E0,4.444887829E0
3.775102833E0,-5.134209684E0,-5.369498134E-1,-1.428301414E0,5.356161789E0
3.785069833E0,-5.690495070E0,-5.435220838E-1,-1.920379694E0,6.030340668E0
3.795036833E0,-5.670843748E0,-4.602641648E-1,-2.353693458E0,6.157124719E0
3.805003833E0,-5.048410565E0,-1.797831702E-1,-2.515838502E0,5.643422241E0
3.814970833E0,-4.578608422E0,9.345312417E-2,-2.464694953E0,5.200683588E0
3.824938667E0,-4.417726961E0,2.096565950E-1,-2.366809347E0,5.016179211E0
3.834905667E0,-4.846094565E0,8.554710388E-2,-2.352030802E0,5.387392665E0
3.844872667E0,-5.557756258E0,-3.499032319E-2,-2.306293881E0,6.017380694E0
3.854839667E0,-5.811226040E0,7.511040866E-2,-2.250182538E0,6.232119312E0
3.864806667E0,-5.692863193E0,2.324636596E-1,-2.170594624E0,6.097065827E0
3.874773667E0,-5.359355553E0,5.056905985E-1,-1.943669447E0,5.723308995E0
3.884740667E0,-5.196108309E0,1.005907618E0,-1.803503063E0,5.591423342E0
3.894708667E0,-4.913515300E0,1.703055938E0,-1.473822865E0,5.405107397E0
3.904675667E0,-4.189394067E0,2.296735438E0,-8.979332265E-1,4.861306450E0
3.914642667E0,-3.337881886E0,2.623471416E0,-5.712082113E-1,4.283729284E0
3.924609667E0,-2.487370748E0,2.608842267E0,-3.155180955E-1,3.618372960E0
3.934576667E0,-1.755886701E0,2.377379651E0,-3.506619081E-2,2.955723558E0
3.944543667E0,-1.032033270E0,2.009378702E0,2.919583480E-1,2.277703913E0
3.954510667E0,-3.133482669E-1,1.604284186E0,6.848184420E-1,1.772255959E0
3.964478667E0,2.077375023E-1,1.194840512E0,1.267514386E0,1.754249536E0
3.974445667E0,1.133508336E-1,5.927842909E-1,1.974615251E0,2.064787402E0
3.984412667E0,-6.661074981E-3,-1.680682737E-1,2.712245598E0,2.717456072E0
3.994379667E0,3.419143638E-1,-7.840847218E-1,3.131896757E0,3.246609244E0
4.004346667E0,5.245501713E-1,-1.357579048E0,4.307896371E0,4.547102912E0
4.014313667E0,1.227998610E0,-1.760043486E0,6.264799236E0,6.622193226E0
4.024280667E0,1.984986165E0,-1.927945699E0,6.711959791E0,7.259996482E0
4.034248667E0,2.154641665E0,-1.783785521E0,5.769487445E0,6.411813852E0
4.044215667E0,2.442430218E0,-1.339692416E0,4.076363003E0,4.937304575E0
4.054182667E0,3.004769811E0,-7.909160239E-1,2.831507748E0,4.203763302E0
4.064149667E0,3.561059582E0,-3.036061478E-1,2.032192783E0,4.111341575E0
4.074116667E0,4.204725174E0,-4.582579851E-2,1.437880761E0,4.444020126E0
4.084083667E0,4.812544996E0,5.017905056E-2,1.173109919E0,4.953715187E0
4.094050667E0,5.219942729E0,9.527394712E-2,1.021744071E0,5.319853397E0
4.104018667E0,5.639058284E0,8.859350324E-2,9.435686982E-1,5.718142095E0
4.113985667E0,6.164038262E0,-1.388970995E-1,7.708643134E-1,6.213605385E0
4.123952667E0,6.606497070E0,-5.316510665E-1,4.621709418E-1,6.643949005E0
4.133919667E0,6.721926370E0,-9.699086505E-1,1.104895717E-1,6.792438800E0
4.143886667E0,6.671616341E0,-1.383997938E0,-2.590199590E-2,6.813705733E0
4.153853667E0,6.971808300E0,-1.785832631E0,-1.332831877E-1,7.198129866E0
4.163820667E0,7.643208405E0,-2.096326214E0,-1.698136675E-1,7.927298090E0
4.173788667E0,8.579860432E0,-2.357771013E0,-6.237926602E-2,8.898144771E0
4.183755667E0,9.615409926E0,-2.489242149E0,6.313092560E-3,9.932395198E0
4.193722667E0,1.057074147E1,-2.471110518E0,4.663666114E-2,1.085583425E1
4.203689667E0,1.177978896E1,-2.162117915E0,6.368389678E-1,1.199348764E1
4.213656667E0,1.353883842E1,-1.100178183E0,8.341525291E-1,1.360905391E1
4.223623667E0,1.453163950E1,2.854230613E-1,-4.093202984E-1,1.454020482E1
4.233590667E0,1.500415651E1,1.947964811E0,-3.380172750E0,1.550305929E1
4.243557667E0,1.426962694E1,3.451440076E0,-5.469489614E0,1.566684423E1
4.253525667E0,1.309853957E1,4.615723624E0,-4.482535161E0,1.459348365E1
4.263492667E0,1.123925012E1,5.175764092E0,-3.071735925E0,1.274930739E1
4.273459667E0,9.249763066E0,5.171815467E0,-2.384342515E0,1.086236076E1
4.283426667E0,7.309760993E0,4.583704271E0,-2.024286032E0,8.862318238E0
4.293393667E0,5.836835091E0,2.851279523E0,-1.624119257E0,6.695984032E0
4.303360667E0,5.897499953E0,3.636324942E-1,-1.212641921E0,6.031851682E0
4.313327667E0,5.666002253E0,-3.239387877E0,-7.691772455E-1,6.571822349E0
4.323295667E0,4.119755775E0,-7.789067200E0,3.177048080E-1,8.817192968E0
4.333262667E0,1.442750176E0,-1.340750060E1,5.475932077E-1,1.349601640E1
4.343229667E0,-2.489358509E0,-1.989988516E1,4.393910667E-1,2.005979561E1
4.353196667E0,-4.543812227E0,-2.329639942E1,9.081816414E-1,2.375275246E1
4.363163667E0,-4.003926526E0,-2.153490933E1,2.396103020E0,2.203463313E1
4.373130667E0,-3.899826500E0,-1.674001591E1,3.138156787E0,1.747240131E1
4.383097667E0,-3.816513617E0,-1.134270491E1,2.602154222E0,1.224720121E1
4.393065667E0,-4.874455607E0,-6.880668919E0,2.147883453E0,8.701570293E0
4.403032667E0,-5.036607960E0,-3.132076267E0,7.263545769E-1,5.975358773E0
4.412999667E0,-4.982203712E0,-1.536654121E-1,-6.236882874E-1,5.023440451E0
4.422966667E0,-5.516679568E0,1.899567992E0,-2.551089611E0,6.367901555E0
4.432933667E0,-5.728090328E0,3.483276411E0,-5.051311369E0,8.394044312E0
4.442900667E0,-5.532414426E0,4.765045724E0,-7.846237181E0,1.071805524E1
4.452867667E0,-5.073149550E0,7.173308614E0,-1.247923406E1,1.526186377E1
4.462835667E0,-6.359545180E0,7.852556267E0,-1.488715489E1,1.799260503E1
4.472802667E0,-7.972829400E0,6.788141409E0,-1.196358800E1,1.589881474E1
4.482769667E0,-8.793013662E0,5.652118040E0,-8.286573451E0,1.333907145E1
4.492736667E0,-9.224612437E0,4.520181289E0,-6.027173070E0,1.191017753E1
4.502703667E0,-9.121766346E0,3.850474538E0,-4.571219003E0,1.090544903E1
4.512670667E0,-8.637536198E0,3.996480097E0,-3.668828152E0,1.019996004E1
4.522637667E0,-7.650750729E0,4.861721249E0,-3.781409858E0,9.821882748E0
4.532605667E0,-7.291229997E0,5.572013524E0,-3.941640523E0,9.987286899E0
4.542572667E0,-7.357615190E0,5.742107858E0,-3.707782595E0,1.004260702E1
4.552539667E0,-7.651909647E0,5.586826276E0,-2.967251152E0,9.928188580E0
4.562506667E0,-6.761141306E0,5.115059468E0,-3.206064595E0,9.063979000E0
4.572473667E0,-4.978359752E0,4.194669133E0,-3.901751695E0,7.589662789E0
4.582440667E0,-4.415684529E0,2.780687842E0,-3.565971536E0,6.320336046E0
4.592407667E0,-4.887157514E0,1.928056211E0,-2.301069686E0,5.735558475E0
4.602375667E0,-3.527089013E0,1.746753350E0,-8.781418633E-1,4.032696034E0
4.612342667E0,1.987668283E0,4.040250599E-2,1.406883063E0,2.435524075E0
4.622309667E0,1.023984987E1,-4.123072316E0,3.758656295E0,1.166112121E1
4.632276667E0,1.802041464E1,-9.671116934E0,3.870778409E0,2.081462880E1
4.642243667E0,2.191407320E1,-1.589745202E1,2.059231770E0,2.715135393E1
4.652210667E0,1.866869660E1,-1.971359287E1,-5.520287593E-1,2.715604376E1
4.662177667E0,7.540131934E0,-1.649267869E1,1.263836487E0,1.817854017E1
4.672145667E0,1.743362257E0,-7.808488727E0,2.172572737E0,8.290469254E0
4.682112667E0,7.246407580E-1,-1.861868069E0,9.459549469E-1,2.210540137E0
4.692079667E0,1.586380889E0,8.493472499E-1,-2.435321465E-2,1.799607778E0
4.702046667E0,2.512892382E0,1.452733127E0,1.333574474E-2,2.902626312E0
4.712013667E0,3.255559229E0,3.003241056E-1,8.737042652E-1,3.384112824E0
4.721980667E0,2.557225679E0,-1.814852947E0,8.536652724E-1,3.249898274E0
4.731947667E0,7.450031018E-1,-3.553900836E0,3.850430976E-1,3.651506396E0
4.741915667E0,-8.901470742E-1,-3.282545006E0,-3.667046213E-1,3.420809233E0
4.751882667E0,-1.808285939E0,-1.412812432E0,-1.315107213E0,2.644890165E0
4.761849667E0,-3.161191600E0,1.627531546E-1,-1.848031218E0,3.665356777E0
4.771816667E0,-4.396085539E0,1.096506132E0,-1.965970142E0,4.938920162E0
4.781783667E0,-5.361634213E0,1.032740491E0,-2.006203664E0,5.817089264E0
4.791750667E0,-6.533375884E0,-1.142604411E-1,-2.360316599E0,6.947600330E0
4.801717667E0,-6.612678162E0,-1.299307451E0,-2.545132760E0,7.203708287E0
4.811684667E0,-6.495617489E0,-1.956524550E0,-2.561842348E0,7.251487509E0
4.821652667E0,-6.051366509E0,-2.112273325E0,-2.645243816E0,6.933833721E0
4.831619958E0,-5.245704977E0,-1.935147715E0,-2.931553608E0,6.313178592E0
4.841586958E0,-4.803644072E0,-1.449538209E0,-3.317978841E0,6.015408629E0
4.851553958E0,-4.880072735E0,-8.013164663E-1,-3.582314503E0,6.106569837E0
4.861520958E0,-5.052203654E0,-6.377324224E-2,-3.844842499E0,6.349145032E0
4.871487958E0,-5.194548272E0,4.819625974E-1,-3.844562126E0,6.480453505E0
4.881455958E0,-5.185929476E0,9.008594656E-1,-3.719561519E0,6.445195901E0
4.891422958E0,-5.053820994E0,1.575537520E0,-3.575047584E0,6.387831427E0
4.901389958E0,-4.805028107E0,2.466756681E0,-3.297428509E0,6.328208152E0
4.911356958E0,-4.974553800E0,3.114767339E0,-2.826229759E0,6.514256345E0
4.921323958E0,-4.814213206E0,3.509705826E0,-2.218214640E0,6.357291874E0
4.931290958E0,-4.394169991E0,3.582069213E0,-1.668631187E0,5.909676793E0
4.941257958E0,-4.001325977E0,3.363505554E0,-9.316713685E-1,5.309594215E0
4.951224958E0,-3.598089999E0,2.980134614E0,3.065063667E-1,4.682029486E0
4.961192958E0,-3.512188846E0,2.258518621E0,2.114901503E0,4.680724860E0
4.971159958E0,-3.190537314E0,9.726784766E-1,4.328220123E0,5.464350026E0
4.981126958E0,-2.107039190E0,2.402609217E-1,7.076823708E0,7.387744802E0
4.991093958E0,-1.159651018E0,-4.392779231E-2,7.404102309E0,7.494494722E0
5.001060958E0,-4.950262639E-1,-2.631194419E-1,6.455479277E0,6.479775887E0
5.011027958E0,-2.950330333E-1,-4.760890692E-1,5.461227499E0,5.489873504E0
5.020994958E0,3.738559122E-1,-4.840670103E-1,4.157668537E0,4.202415588E0
5.030962958E0,1.215625317E0,-5.798350471E-1,3.246474702E0,3.514761953E0
5.040929958E0,1.786666882E0,-9.864931083E-1,2.897669578E0,3.544268074E0
5.050896958E0,2.395067478E0,-1.680012646E0,2.947630527E0,4.152988856E0
5.060863958E0,3.161214989E0,-2.401373700E0,2.946120191E0,4.943632272E0
5.070830958E0,3.850942315E0,-2.850034066E0,2.860291836E0,5.579759876E0
5.080797958E0,4.629852836E0,-3.041384783E0,2.840395516E0,6.225223318E0
5.090764958E0,5.611113855E0,-3.084937184E0,2.796642555E0,6.987320352E0
5.100732958E0,7.054443491E0,-3.191050115E0,2.502483754E0,8.136977248E0
5.110699958E0,8.578150706E0,-3.556557811E0,2.398106276E0,9.590864753E0
5.120666958E0,1.006602034E1,-4.059467474E0,2.615266603E0,1.116439255E1
5.130633958E0,1.131053119E1,-4.347886648E0,2.813442775E0,1.243976263E1
5.140600958E0,1.192809540E1,-4.276786845E0,2.936457667E0,1.300742669E1
5.150567958E0,1.192284577E1,-3.719103974E0,2.775111938E0,1.279403110E1
5.160534958E0,1.179628162E1,-2.654107318E0,2.230394537E0,1.229517000E1
5.170502958E0,1.220263387E1,-1.493744913E0,1.513854511E0,1.238657752E1
5.180469958E0,1.402880118E1,-8.239767659E-1,7.068991363E-1,1.407074648E1
5.190436958E0,1.717038151E1,3.133300674E-1,-3.021838126E-1,1.717589858E1
5.200403958E0,1.952249534E1,1.772991561E0,-2.361302732E0,1.974454542E1
5.210370958E0,2.225111607E1,3.672963595E0,-4.583259882E0,2.301323747E1
5.220337958E0,2.162288888E1,5.826806531E0,-6.601052143E0,2.334683891E1
5.230304958E0,1.693485449E1,7.211676874E0,-7.019267226E0,1.969943381E1
5.240272958E0,1.261132501E1,7.405921378E0,-6.194354321E0,1.588279621E1
5.250239958E0,9.577413549E0,6.654105685E0,-5.862261123E0,1.305258895E1
5.260206958E0,8.003769942E0,4.355809041E0,-5.447651433E0,1.061651128E1
5.270173958E0,7.899285461E0,1.210342650E0,-4.656285174E0,9.249034098E0
5.280140958E0,8.742904778E0,-2.020132901E0,-3.646296784E0,9.685804104E0
5.290107958E0,8.671425490E0,-5.558797647E0,-2.350427788E0,1.056495916E1
5.300074958E0,6.422129098E0,-1.179736218E1,-9.795010078E-1,1.346777334E1
5.310041958E0,2.460095241E0,-2.128060691E1,-7.436474249E-1,2.143523525E1
5.320009958E0,-3.432402419E0,-3.223374458E1,5.280719858E-1,3.242027971E1
5.329976958E0,-6.338188224E0,-3.447570740E1,3.149188436E0,3.519466463E1
5.339943958E0,-5.544273748E0,-2.636094619E1,3.191725468E0,2.712610490E1
5.349910958E0,-4.363777919E0,-1.675576714E1,2.266767288E0,1.746243179E1
5.359877958E0,-4.498611203E0,-9.634297017E0,4.305202559E-1,1.064154732E1
5.369844958E0,-4.653045232E0,-5.133391074E0,-1.698691868E0,7.133588712E0
5.379812958E0,-4.294524958E0,-1.991315483E0,-4.032310665E0,6.218344737E0
5.389779958E0,-4.512040796E0,5.542768675E-1,-7.994020295E0,9.196200055E0
5.399746958E0,-4.463942769E0,3.064812237E0,-1.309745199E1,1.417261824E1
5.409713958E0,-4.052063144E0,7.135682366E0,-1.857817235E1,2.030974314E1
5.419680958E0,-4.710147386E0,7.275861175E0,-1.588437179E1,1.809521792E1
5.429647958E0,-5.567436908E0,5.529974383E0,-1.117703926E1,1.365661660E1
5.439614958E0,-6.581738205E0,4.600031451E0,-8.227982011E0,1.149692372E1
5.449581958E0,-7.217636356E0,4.247505743E0,-5.694213899E0,1.012717392E1
5.459549958E0,-7.530605065E0,4.412303084E0,-3.874580269E0,9.549387594E0
5.469516958E0,-7.299633030E0,4.976211485E0,-2.914789640E0,9.302866320E0
5.479483958E0,-7.293766519E0,5.862401456E0,-2.668610752E0,9.730789496E0
5.489450958E0,-6.982022216E0,7.037477794E0,-2.752275052E0,1.028833057E1
5.499417958E0,-6.732575904E0,8.080411736E0,-3.111361336E0,1.096819044E1
5.509384958E0,-6.833463178E0,8.470221046E0,-2.645511911E0,1.119998200E1
5.519351958E0,-6.634777129E0,8.281289322E0,-2.770666592E0,1.096706951E1
5.529319958E0,-5.045493974E0,7.415575131E0,-3.929373942E0,9.792228732E0
5.539286958E0,-4.635006864E0,5.766374388E0,-4.406516680E0,8.611141124E0
5.549253958E0,-4.396550978E0,4.774603583E0,-3.411919623E0,7.332645865E0
5.559220958E0,-4.413897327E0,4.865725422E0,-1.525299413E0,6.744205794E0
5.569187958E0,-2.568134244E0,3.237486362E0,5.554588822E-1,4.169552256E0
5.579154958E0,3.286445684E0,-3.560375458E-1,4.405801273E0,5.508046189E0
5.589121958E0,1.010922541E1,-6.208571241E0,6.794559898E0,1.367146077E1
5.599089958E0,1.457625025E1,-1.320617980E1,7.817841348E0,2.116574826E1
5.609056958E0,1.739841590E1,-1.899635235E1,7.506525062E0,2.683121684E1
5.619023958E0,1.394260854E1,-1.934315071E1,5.018447093E0,2.436675242E1
5.628990958E0,5.702590036E0,-1.299205125E1,3.092090667E0,1.452149970E1
5.638957958E0,1.597049134E0,-6.501419681E0,8.518836258E-1,6.748683540E0
5.648924958E0,2.754537047E0,-4.187955360E0,-1.091868267E0,5.130167712E0
5.658891958E0,6.475630537E0,-4.008989630E0,-2.356203375E0,7.972294717E0
5.668859958E0,7.261881067E0,-3.905241898E0,-2.584345942E0,8.640872344E0
5.678826958E0,3.132203444E0,-2.995270717E0,-1.924460174E0,4.741929148E0
5.688793958E0,-5.066170898E-1,-1.691359752E0,-1.371770241E0,2.235869469E0
5.698760958E0,-2.972247305E0,-3.761753565E-1,-1.178724708E0,3.219495904E0
5.708727958E0,-4.416163124E0,8.931580979E-1,-1.273299913E0,4.682042374E0
5.718694958E0,-5.606265929E0,1.605487543E0,-1.381483928E0,5.993021421E0
5.728661958E0,-6.719016795E0,1.044733130E0,-1.608553823E0,6.987424376E0
5.738629958E0,-7.601984950E0,-7.893349367E-1,-2.401655536E0,8.011315382E0
5.748596958E0,-8.295643651E0,-3.059252704E0,-3.198118521E0,9.402376975E0
5.758563958E0,-8.298982412E0,-4.594721594E0,-3.496985208E0,1.011006831E1
5.768530958E0,-8.400156199E0,-5.203422006E0,-6.108053511E0,1.161664936E1
5.778497958E0,-8.703718493E0,-5.330960305E0,-9.501822499E0,1.394483719E1
5.788464958E0,-6.746676464E0,-3.891976320E0,-7.983124593E0,1.115326864E1
5.798431958E0,-5.853171626E0,-2.076511754E0,-4.697257783E0,7.786896034E0
5.808399958E0,-6.535732312E0,-6.913548982E-1,-2.788584215E0,7.139325625E0
5.818366958E0,-6.672798064E0,6.954064339E-1,-1.995925136E0,6.999538646E0
5.828333708E0,-6.396273295E0,1.841594603E0,-2.112533234E0,6.983307198E0
5.838300708E0,-6.602460737E0,2.712238582E0,-2.261752716E0,7.487606511E0
5.848267708E0,-6.634654337E0,3.366340869E0,-2.161288195E0,7.747390250E0
5.858234708E0,-5.799649723E0,3.791279081E0,-1.923024098E0,7.190810500E0
5.868201708E0,-5.101758807E0,3.926915773E0,-1.480523774E0,6.606100291E0
5.878169708E0,-4.773106403E0,3.872480534E0,-7.841439249E-1,6.196251440E0
5.888136708E0,-4.365449345E0,3.598785233E0,-1.244347425E-1,5.658965201E0
5.898103708E0,-3.549681485E0,3.264194105E0,3.873860769E-1,4.837899314E0
5.908070708E0,-3.116459523E0,2.708824393E0,1.010289376E0,4.250968616E0
5.918037708E0,-3.094022588E0,1.807172629E0,1.926091547E0,4.068006555E0
5.928004708E0,-2.133252843E0,1.033279020E0,2.982105711E0,3.809381537E0
5.937971708E0,-1.053272258E0,4.495503116E-1,4.368521472E0,4.516133057E0
5.947939708E0,-2.383275033E-1,4.315011263E-2,3.818993129E0,3.826665709E0
5.957906708E0,-4.591887888E-2,-4.539965343E-1,3.161025832E0,3.193791744E0
5.967873708E0,-1.633931324E-4,-7.821136254E-1,2.901926351E0,3.005474720E0
5.977840708E0,8.512771234E-2,-1.339897068E0,2.827821663E0,3.130358803E0
5.987807708E0,5.772714085E-1,-2.035045640E0,3.029817236E0,3.695192217E0
5.997774708E0,1.457245570E0,-2.590814717E0,3.439364991E0,4.545890132E0
6.007741708E0,2.423031203E0,-2.949576480E0,3.835211551E0,5.411093167E0
6.017709708E0,3.521059365E0,-3.056623796E0,4.110822399E0,6.216081473E0
6.027676708E0,4.726622500E0,-2.817776731E0,3.812865247E0,6.694682021E0
6.037643708E0,6.006431242E0,-2.508252032E0,3.182338348E0,7.245400049E0
6.047610708E0,7.289724339E0,-2.513807471E0,2.965782623E0,8.261669051E0
6.057577708E0,8.314924260E0,-2.980881304E0,2.788154152E0,9.262689802E0
6.067544708E0,9.408816687E0,-3.539987386E0,2.763810439E0,1.042573692E1
6.077511708E0,1.048188484E1,-3.934013708E0,2.919197856E0,1.157013785E1
6.087479708E0,1.108919888E1,-4.135942038E0,3.087493002E0,1.223147421E1
6.097446708E0,1.118102355E1,-3.970621955E0,2.835159334E0,1.219914976E1
6.107413708E0,1.125016922E1,-3.401469771E0,2.039622109E0,1.192880389E1
6.117380708E0,1.197630218E1,-2.519154165E0,1.630509533E0,1.234651825E1
6.127347708E0,1.364178684E1,-1.645145114E0,1.024912385E0,1.377879878E1
6.137314708E0,1.667500774E1,-5.244911510E-1,4.406495337E-1,1.668907265E1
6.147281708E0,2.025916382E1,1.039749548E0,-7.062081416E-1,2.029811636E1
6.157249708E0,2.391358239E1,3.344861707E0,-3.438618886E0,2.438999021E1
6.167216708E0,2.276848706E1,5.435040743E0,-5.580936375E0,2.406429974E1
6.177183708E0,1.760004427E1,6.713924455E0,-6.005425521E0,1.977127906E1
6.187150708E0,1.215137834E1,7.320677159E0,-5.169724503E0,1.509881986E1
6.197117708E0,8.764144789E0,6.781577325E0,-4.328049384E0,1.189672377E1
6.207084708E0,6.591785476E0,4.443906115E0,-4.261819142E0,9.020146325E0
6.217051708E0,5.332283530E0,1.200609959E0,-4.672143992E0,7.190524418E0
6.227019708E0,5.925052033E0,-1.837900332E0,-5.128828492E0,8.049161504E0
6.236986708E0,7.125545048E0,-5.061251051E0,-4.089332712E0,9.649471305E0
6.246953708E0,6.011957445E0,-9.750540249E0,-3.050308803E0,1.185415755E1
6.256920708E0,2.990989385E0,-1.586656936E1,-2.870617434E0,1.639922209E1
6.266887708E0,-2.236774434E0,-2.437448565E1,-2.909816583E0,2.464925442E1
6.276854708E0,-6.409338899E0,-3.018697352E1,-4.762577614E-1,3.086356779E1
6.286821708E0,-6.667517443E0,-2.827167126E1,4.816057710E0,2.944380404E1
6.296789708E0,-6.491316862E0,-2.163554927E1,5.809199395E0,2.332339993E1
6.306756708E0,-5.491147701E0,-1.407962751E1,3.434635178E0,1.549791382E1
6.316723708E0,-4.030699757E0,-7.451431426E0,1.048733795E0,8.536405181E0
6.326690708E0,-3.646315495E0,-3.150593814E0,-5.675178874E-1,4.852209252E0
6.336657708E0,-4.217089989E0,-2.545450848E-1,-1.902754725E0,4.633477821E0
6.346624708E0,-5.396122261E0,2.023316710E0,-4.848857374E0,7.531491472E0
6.356591708E0,-6.088783427E0,4.224094076E0,-1.187487872E1,1.399746402E1
6.366559708E0,-5.783663435E0,5.960443475E0,-1.619377838E1,1.819934360E1
6.376526708E0,-4.648198767E0,7.585247880E0,-1.572180984E1,1.806424762E1
6.386493708E0,-5.391890046E0,8.548190158E0,-1.560495090E1,1.859189409E1
6.396460708E0,-6.151845063E0,7.423326784E0,-1.310624152E1,1.627035787E1
6.406427708E0,-6.221970720E0,6.235867213E0,-1.025209862E1,1.351682232E1
6.416394708E0,-6.354185622E0,5.543484959E0,-7.137508451E0,1.104762089E1
6.426361708E0,-6.512973779E0,5.239257837E0,-4.697675859E0,9.588368402E0
6.436329708E0,-6.674824709E0,5.381034105E0,-2.988647868E0,9.079693222E0
6.446296708E0,-6.909331970E0,5.914929333E0,-2.480335085E0,9.427476833E0
6.456263708E0,-6.746878778E0,6.847352654E0,-2.523040810E0,9.938427770E0
6.466230708E0,-7.606416555E0,7.649941474E0,-2.307187335E0,1.103187612E1
6.476197708E0,-6.866606950E0,8.002873564E0,-1.826189236E0,1.070192709E1
6.486164708E0,-5.537122604E0,7.393379685E0,-1.204543381E0,9.315187311E0
6.496131708E0,-5.247487208E0,4.977552837E0,-5.138731921E-1,7.250946138E0
6.506099708E0,-5.349718173E0,2.656461992E0,-1.606449410E-1,5.975121893E0
6.516066708E0,-5.567683076E0,6.245422733E-1,1.147267273E0,5.718860908E0
6.526033708E0,-3.721298434E0,-1.751665596E0,2.452037193E0,4.788411092E0
6.536000708E0,1.957124767E0,-5.823736743E0,4.486217152E0,7.607390574E0
6.545967708E0,1.057363233E1,-1.137693100E1,6.972600013E0,1.702508181E1
6.555934708E0,1.711317703E1,-1.610877975E1,7.008159270E0,2.452484270E1
6.565901708E0,1.894301405E1,-1.847544028E1,4.746957947E0,2.688332726E1
6.575869708E0,1.369788619E1,-1.539182808E1,1.550473869E0,2.066263359E1
6.585836708E0,6.483796173E0,-8.521644968E0,2.186940515E-1,1.071008277E1
6.595803708E0,1.580960520E0,-2.407458898E0,2.044829786E-2,2.880227881E0
6.605770708E0,-1.557455006E0,1.098301227E0,6.031864876E-1,1.998941124E0
6.615737708E0,-5.585962057E-1,2.495776412E0,1.049012269E0,2.764300339E0
6.625704708E0,3.159420479E0,2.364989401E0,-2.886190031E-1,3.957071336E0
6.635671708E0,4.126227766E0,8.855596411E-1,-1.005599470E0,4.338340898E0
6.645639708E0,1.615626323E0,-1.345456016E0,-9.586435510E-1,2.310735330E0
6.655606708E0,2.770308450E-1,-2.791991095E0,-1.147119631E0,3.031145627E0
6.665573708E0,-5.727593315E-1,-2.724361029E0,-1.175381563E0,3.021873275E0
6.675540708E0,-1.632262529E0,-1.873413981E0,-1.302033131E0,2.805218562E0
6.685507708E0,-2.925866898E0,-1.135778371E0,-1.649492227E0,3.545633120E0
6.695474708E0,-4.116247738E0,-1.151366463E0,-2.167489752E0,4.792405659E0
6.705441708E0,-5.863731698E0,-2.338171147E0,-2.448447002E0,6.770914743E0
6.715409708E0,-6.613671604E0,-3.677446071E0,-3.414680386E0,8.302066238E0
6.725376708E0,-5.150892960E0,-3.863850628E0,-4.199294280E0,7.687334545E0
6.735343708E0,-4.386846061E0,-3.532599429E0,-4.558621470E0,7.246013166E0
6.745310708E0,-4.658956182E0,-2.896645730E0,-6.116158336E0,8.216070958E0
6.755277708E0,-6.674354008E0,-2.268951223E0,-8.500603763E0,1.104334213E1
6.765244708E0,-6.669638228E0,-9.788654155E-1,-7.053366433E0,9.756650534E0
6.775211708E0,-6.215846347E0,-2.103360415E-2,-5.014679732E0,7.986501176E0
6.785179708E0,-6.618113734E0,3.634401208E-1,-3.620071144E0,7.552246898E0
6.795146708E0,-6.654710872E0,7.873731959E-1,-2.697098971E0,7.223536266E0
6.805113708E0,-6.104782578E0,1.653521250E0,-2.361100710E0,6.751096164E0
6.815080708E0,-5.359181306E0,2.764574670E0,-2.407460360E0,6.493039563E0
6.825047708E0,-5.189040779E0,3.672251405E0,-2.274003802E0,6.751493752E0
6.835014583E0,-5.477086902E0,4.054451732E0,-2.072583595E0,7.122686469E0
6.844982583E0,-5.108093095E0,4.150553645E0,-1.479015339E0,6.745902238E0
6.854949583E0,-4.320408828E0,3.947544165E0,-8.834676535E-1,5.918576895E0
6.864916583E0,-4.129991619E0,3.497440706E0,-3.967826986E-1,5.426449924E0
6.874883583E0,-3.707756575E0,2.724884355E0,4.950662076E-1,4.627909260E0
6.884850583E0,-2.961430833E0,1.686551587E0,1.835112965E0,3.870680615E0
6.894817583E0,-2.007542530E0,5.969287974E-1,3.832653394E0,4.367583203E0
6.904784583E0,-1.118184465E0,-8.925131500E-2,5.765942279E0,5.874043978E0
6.914752583E0,-6.971132362E-1,-2.834355927E-1,5.665222819E0,5.714984881E0
6.924719583E0,-6.778723884E-1,-4.623247236E-1,4.873758911E0,4.942345703E0
6.934686583E0,-4.977160561E-1,-7.187888646E-1,4.320000107E0,4.407582062E0
6.944653583E0,-5.140265353E-2,-1.280603378E0,3.665173350E0,3.882793187E0
6.954620583E0,8.969669741E-1,-1.886968997E0,3.220536454E0,3.838887443E0
6.964587583E0,2.131652314E0,-2.444413301E0,3.113846987E0,4.496125113E0
6.974554583E0,3.372748540E0,-2.733596706E0,2.979867396E0,5.265699704E0
6.984522583E0,4.333862686E0,-2.655113039E0,2.756802551E0,5.782036954E0
6.994489583E0,5.102183315E0,-2.345136935E0,2.278751741E0,6.060086741E0
7.004456583E0,5.814393477E0,-2.051210268E0,1.560990232E0,6.360135657E0
7.014423583E0,6.555412871E0,-2.087599245E0,1.337169342E0,7.008532682E0
7.024390583E0,7.398905303E0,-2.532324434E0,1.374099479E0,7.940063986E0
7.034357583E0,8.495395063E0,-3.227683505E0,1.515241471E0,9.213340046E0
7.044324583E0,9.580223136E0,-3.961465800E0,1.657713704E0,1.049866188E1
7.054292583E0,1.035168840E1,-4.652516059E0,1.840945416E0,1.149749705E1
7.064259583E0,1.110491853E1,-4.836321529E0,2.039150385E0,1.228280733E1
7.074226583E0,1.184613498E1,-4.368460661E0,1.942618848E0,1.277451097E1
7.084193583E0,1.283590369E1,-3.450615619E0,1.677583128E0,1.339706897E1
7.094160583E0,1.461642062E1,-2.201838636E0,1.398365570E0,1.484733213E1
7.104127583E0,1.658790995E1,-7.520735550E-1,6.368325359E-1,1.661715760E1
7.114094583E0,1.742372499E1,9.108634669E-1,-1.439365223E0,1.750678831E1
7.124062583E0,1.810696863E1,2.541435565E0,-3.404759122E0,1.859875244E1
7.134029583E0,1.819053236E1,4.574172140E0,-5.126234082E0,1.944471121E1
7.143996583E0,1.649174196E1,6.441503263E0,-6.297174684E0,1.879161851E1
7.153963583E0,1.183488961E1,7.120923409E0,-5.728162833E0,1.495272590E1
7.163930583E0,8.596971724E0,6.692231870E0,-4.561098643E0,1.181090644E1
7.173897583E0,7.016284561E0,5.350581222E0,-4.054152939E0,9.710464691E0
7.183864583E0,5.942331725E0,3.113283316E0,-4.055285545E0,7.838952748E0
7.193832583E0,6.155289658E0,5.838170010E-1,-4.209937967E0,7.480107670E0
7.203799583E0,6.589627268E0,-2.392615741E0,-3.626129737E0,7.892820439E0
7.213766583E0,5.050996204E0,-6.991323382E0,-2.775757762E0,9.060684105E0
7.223733583E0,1.418976128E0,-1.339070389E1,-1.925567344E0,1.360265612E1
7.233700583E0,-2.706044919E0,-2.106458035E1,-2.639681360E0,2.140110143E1
7.243667583E0,-6.028239602E0,-2.729517923E1,-1.476773370E0,2.799191564E1
7.253634583E0,-6.973964168E0,-2.691953538E1,3.009070438E0,2.797055713E1
7.263602583E0,-6.196218998E0,-2.088399027E1,4.706568305E0,2.228645249E1
7.273569583E0,-4.742014711E0,-1.396788956E1,3.187726850E0,1.509139638E1
7.283536583E0,-4.464933872E0,-7.964864323E0,1.512421505E0,9.255383135E0
7.293503583E0,-4.192174126E0,-3.313330597E0,-7.459731549E-2,5.343973082E0
7.303470583E0,-3.968353820E0,6.207579553E-2,-1.508587193E0,4.245882802E0
7.313437583E0,-4.271639541E0,2.459055898E0,-3.454141490E0,6.018716949E0
7.323404583E0,-4.693074393E0,4.263726504E0,-5.928438740E0,8.680477916E0
7.333372583E0,-4.488787296E0,5.622720578E0,-9.726478372E0,1.209828829E1
7.343339583E0,-4.848177928E0,6.873382704E0,-1.376389424E1,1.613049918E1
7.353306583E0,-4.989803338E0,8.522527898E0,-1.651644996E1,1.924382338E1
7.363273583E0,-5.562238734E0,7.804585125E0,-1.425141286E1,1.717419044E1
7.373240583E0,-6.683469817E0,5.897741443E0,-1.080546975E1,1.400750868E1
7.383207583E0,-7.662852711E0,4.125949146E0,-7.485817732E0,1.147955727E1
7.393174583E0,-7.881698790E0,3.687543043E0,-5.302970268E0,1.019022292E1
7.403142583E0,-7.683250723E0,3.822634190E0,-3.960437860E0,9.451451839E0
7.413109583E0,-6.927619722E0,4.546459261E0,-2.911727746E0,8.782958800E0
7.423076583E0,-5.937426496E0,5.446503040E0,-2.319115655E0,8.384254659E0
7.433043583E0,-5.599604196E0,6.400360499E0,-2.032132265E0,8.743554381E0
7.443010583E0,-5.821306640E0,6.851196029E0,-1.752610213E0,9.159592817E0
7.452977583E0,-5.869343855E0,6.494483129E0,-1.367880088E0,8.859943812E0
7.462945583E0,-4.355833307E0,5.590472599E0,-1.213486698E0,7.190216801E0
7.472912583E0,-3.944370588E0,4.122092323E0,-1.292548655E0,5.849819354E0
7.482879583E0,-4.406148597E0,2.352910808E0,-1.444351144E0,5.199662004E0
7.492846583E0,-3.477920362E0,6.806328589E-1,-1.114203607E0,3.714921373E0
7.502813583E0,-2.167498523E-1,-1.639147625E0,5.209164557E-1,1.733533786E0
7.512780583E0,6.509508719E0,-6.200408528E0,3.539933884E0,9.661775281E0
7.522747583E0,1.374616431E1,-1.155620196E1,4.757296409E0,1.857780143E1
7.532715583E0,1.759977881E1,-1.775058902E1,4.821460245E0,2.545745674E1
7.542682583E0,1.797679675E1,-2.100520071E1,3.121561511E0,2.782315267E1
7.552649583E0,1.181569554E1,-1.709726675E1,1.428170729E-1,2.078334882E1
7.562616583E0,3.563354030E0,-9.035476061E0,-3.684163937E-1,9.719724802E0
7.572583583E0,4.777107945E-1,-3.208613396E0,8.906337087E-1,3.364020799E0
7.582550583E0,2.049404940E0,-6.369664371E-2,4.355298579E-3,2.050399190E0
7.592517583E0,3.775398335E0,1.115601969E0,-1.194585281E0,4.114028966E0
7.602485583E0,3.651770655E0,1.740306795E-1,-7.995380357E-1,3.742322362E0
7.612452583E0,1.902966101E0,-8.584209591E-1,-2.300453974E-1,2.100258891E0
7.622419583E0,-1.149352390E0,-7.939267552E-1,-3.267801252E-1,1.434613488E0
7.632386583E0,-3.160247860E0,1.937439823E-1,-8.771463749E-1,3.285435896E0
7.642353583E0,-4.430988154E0,1.291004990E0,-1.531036701E0,4.862553165E0
7.652320583E0,-5.228947442E0,2.149783798E0,-2.173721130E0,6.057105355E0
7.662287583E0,-5.954637775E0,2.489706418E0,-2.554483627E0,6.941306482E0
7.672255583E0,-6.317199644E0,1.784507067E0,-2.918084546E0,7.183779940E0
7.682222583E0,-5.695294465E0,2.789946324E-1,-3.302869343E0,6.589625402E0
7.692189583E0,-5.151321561E0,-1.525139784E0,-3.294185643E0,6.301890529E0
7.702156583E0,-4.934695669E0,-2.961165077E0,-3.364509229E0,6.666306497E0
7.712123583E0,-5.347761694E0,-3.899409885E0,-3.198585129E0,7.350843450E0
7.722090583E0,-5.829430761E0,-3.972643923E0,-3.213317481E0,7.751746382E0
7.732057583E0,-6.345294930E0,-2.928158129E0,-3.473293752E0,7.803886677E0
7.742025583E0,-7.358600446E0,-1.677022964E0,-3.468437640E0,8.306110173E0
7.751992583E0,-8.057861364E0,-6.551284736E-1,-3.411309466E0,8.774699730E0
7.761959583E0,-7.400852426E0,4.959076220E-1,-3.744085034E0,8.308833477E0
7.771926583E0,-6.915645209E0,1.614824962E0,-3.832114573E0,8.069628889E0
7.781893583E0,-6.594859357E0,2.742701991E0,-3.619361585E0,8.007144462E0
7.791860583E0,-6.010340690E0,3.581886195E0,-2.952002490E0,7.593972783E0
7.801827583E0,-5.456367293E0,4.165571049E0,-2.128038003E0,7.186965420E0
7.811795583E0,-4.947986975E0,4.460462506E0,-1.375573708E0,6.802242564E0
7.821762583E0,-4.499036880E0,4.446803995E0,-7.538182180E-1,6.370529062E0
7.831729292E0,-3.759862576E0,3.920237668E0,1.323944110E-1,5.433448098E0
7.841696292E0,-3.071754636E0,2.869902320E0,1.450688941E0,4.447079297E0
7.851663292E0,-2.233789869E0,1.870650002E0,3.295654464E0,4.398918839E0
7.861630292E0,-1.360314230E0,1.163618719E0,4.295596753E0,4.653666811E0
7.871597292E0,-8.846935223E-1,4.692612755E-1,4.680182160E0,4.786125136E0
7.881565292E0,-9.346487707E-1,-1.982755744E-1,5.000489125E0,5.090950109E0
7.891532292E0,-1.125982823E0,-8.148159331E-1,4.870271632E0,5.064712044E0
7.901499292E0,-6.670009527E-1,-1.391819758E0,4.618729092E0,4.869775245E0
7.911466292E0,2.977185132E-1,-1.875783273E0,4.070750846E0,4.492016435E0
7.921433292E0,1.435288252E0,-2.358408360E0,3.507030140E0,4.463339866E0
7.931400292E0,2.629897799E0,-2.686688588E0,3.015060618E0,4.819258089E0
7.941368292E0,3.686864181E0,-2.852234373E0,2.602151883E0,5.338483196E0
7.951335292E0,4.649766406E0,-2.827676067E0,2.322638457E0,5.916986477E0
7.961302292E0,5.811628329E0,-2.840930536E0,2.320628184E0,6.872497749E0
7.971269292E0,6.807917277E0,-2.940408631E0,2.274167963E0,7.756647503E0
7.981236292E0,7.641577032E0,-3.311817337E0,2.207160187E0,8.615880089E0
7.991203292E0,8.483603568E0,-3.735177970E0,2.074255314E0,9.498716707E0
8.001170292E0,9.488920033E0,-4.073468047E0,1.920096397E0,1.050330974E1
8.011137292E0,1.044650918E1,-4.253571060E0,2.082998802E0,1.147001765E1
8.021105292E0,1.091069625E1,-4.159284707E0,1.925042557E0,1.183421864E1
8.031072292E0,1.127609109E1,-3.614567453E0,1.624064878E0,1.195210922E1
8.041039292E0,1.227945926E1,-2.868908293E0,1.327637211E0,1.267984129E1
8.051006292E0,1.467333274E1,-1.998518668E0,1.264383055E0,1.486268600E1
8.060973292E0,1.705790915E1,-1.109305102E0,4.944247681E-1,1.710108997E1
8.070940292E0,1.844202695E1,1.066415191E-1,-1.136841395E0,1.847734123E1
8.080907292E0,1.913131310E1,1.559997375E0,-2.988119864E0,1.942600302E1
8.090875292E0,1.932116752E1,3.333639731E0,-4.513102650E0,2.011936290E1
8.100842292E0,1.821727285E1,5.299768918E0,-5.705887281E0,1.981195927E1
8.110809292E0,1.451253431E1,6.632877368E0,-5.653011494E0,1.692823834E1
8.120776292E0,9.287588704E0,6.577445179E0,-4.803850771E0,1.235309966E1
8.130743292E0,6.524766444E0,5.136881862E0,-4.437294669E0,9.415397835E0
8.140710292E0,5.776357924E0,2.519150657E0,-4.097509459E0,7.516782201E0
8.150677292E0,5.578200463E0,-6.444456106E-1,-3.981972570E0,6.883875079E0
8.160645292E0,5.583622586E0,-4.028761405E0,-4.143095521E0,8.035732707E0
8.170612292E0,4.694659865E0,-7.858777705E0,-3.476189586E0,9.792043316E0
8.180579292E0,2.062061092E0,-1.307635524E1,-2.248154431E0,1.342748526E1
8.190546292E0,-1.955930327E0,-1.997769523E1,-2.281450816E0,2.020245005E1
8.200513292E0,-6.087270167E0,-2.596917573E1,-1.594871339E0,2.672071407E1
8.210480292E0,-7.850231999E0,-2.573886794E1,3.321705564E0,2.711363482E1
8.220447292E0,-6.429334622E0,-1.996934541E1,4.664612194E0,2.149115415E1
8.230415292E0,-4.700889197E0,-1.336430254E1,2.788566965E0,1.443880353E1
8.240382292E0,-4.758792127E0,-7.712213736E0,8.111351109E-1,9.098476982E0
8.250349292E0,-4.551792507E0,-3.381089886E0,-6.484936380E-1,5.707112040E0
8.260316292E0,-4.218816087E0,-1.065941566E-1,-2.169263213E0,4.745047352E0
8.270283292E0,-3.825884365E0,2.247168006E0,-3.427834282E0,5.606888895E0
8.280250292E0,-4.074488678E0,3.990551605E0,-4.764762426E0,7.431616317E0
8.290217292E0,-4.603566093E0,5.107790794E0,-5.900379707E0,9.060730007E0
8.300185292E0,-4.908414189E0,6.072580208E0,-7.243022043E0,1.065035814E1
8.310152292E0,-5.039657868E0,6.967525799E0,-9.194485243E0,1.258900814E1
8.320119292E0,-5.630857564E0,7.906089281E0,-1.158993221E1,1.511751743E1
8.330086292E0,-6.747168800E0,7.585822077E0,-1.156614339E1,1.538975817E1
8.340053292E0,-7.038576486E0,6.744441074E0,-9.462636214E0,1.358567365E1
8.350020292E0,-7.332549931E0,5.745712667E0,-7.187112721E0,1.176580179E1
8.359988292E0,-7.897360557E0,5.209210165E0,-5.311557489E0,1.084973812E1
8.369955292E0,-8.035924366E0,5.312866681E0,-4.057018660E0,1.045284809E1
8.379922292E0,-7.416998928E0,5.472985080E0,-3.290180593E0,9.787273732E0
8.389889292E0,-7.578992529E0,5.326830416E0,-2.948206770E0,9.721531422E0
8.399856292E0,-7.617375407E0,5.755394486E0,-2.672638021E0,9.914230569E0
8.409823292E0,-7.480675106E0,6.013413402E0,-2.437416230E0,9.902658161E0
8.419790292E0,-6.051589873E0,5.121286753E0,-2.307307203E0,8.256693317E0
8.429758292E0,-4.721720195E0,3.469310337E0,-2.206431039E0,6.260917963E0
8.439725292E0,-4.827265946E0,1.815668634E0,-1.484103439E0,5.366722661E0
8.449692292E0,-5.474195454E0,5.993863821E-2,-2.517571324E-1,5.480309312E0
8.459659292E0,-3.528860135E0,-3.167854795E0,1.818747777E0,5.078976406E0
8.469626292E0,2.301006244E0,-8.182327536E0,4.676763877E0,9.701403713E0
8.479593292E0,1.076988594E1,-1.315875888E1,5.224968996E0,1.778886391E1
8.489560292E0,1.732200215E1,-1.757234016E1,5.204751078E0,2.521761946E1
8.499528292E0,1.812896819E1,-1.942297807E1,2.405697424E0,2.667768627E1
8.509495292E0,1.146752893E1,-1.507207777E1,-1.816456254E0,1.902554234E1
8.519462292E0,2.144045926E0,-7.495028266E0,-3.258306543E0,8.449197783E0
8.529429292E0,-2.920520204E0,-2.031785817E0,-1.283874310E0,3.782317426E0
8.539396292E0,-1.281651784E0,6.179980695E-2,-9.258358473E-1,1.582283959E0
8.549363292E0,3.364792526E0,6.701885623E-1,-2.281105976E0,4.120003147E0
8.559330292E0,5.119692217E0,-4.093448567E-1,-2.701525313E0,5.803193141E0
8.569298292E0,2.432458376E0,-2.469231223E0,-1.710853931E0,3.865356097E0
8.579265292E0,2.755199245E-1,-2.563352684E0,-1.267162383E0,2.872697115E0
8.589232292E0,-8.993561465E-1,-1.183155436E0,-1.261888195E0,1.949630755E0
8.599199292E0,-2.156619194E0,1.387363011E-1,-1.433449303E0,2.593266475E0
8.609166292E0,-3.350779089E0,1.134974379E0,-1.408320893E0,3.807788740E0
8.619133292E0,-4.396404212E0,1.591102808E0,-1.386595564E0,4.876743319E0
8.629100292E0,-5.228890139E0,6.450601530E-1,-1.555741187E0,5.493425646E0
8.639068292E0,-5.695807850E0,-1.042397752E0,-1.689365852E0,6.031813751E0
8.649035292E0,-5.959238949E0,-2.224222362E0,-2.020809716E0,6.674081650E0
8.659002292E0,-5.643030882E0,-2.533323723E0,-2.612840301E0,6.714794193E0
8.668969292E0,-5.217794462E0,-2.251879107E0,-3.112128783E0,6.479327444E0
8.678936292E0,-5.177127078E0,-1.987643432E0,-3.565760744E0,6.593028202E0
8.688903292E0,-5.835711840E0,-1.564046572E0,-3.604923640E0,7.035428119E0
8.698870292E0,-6.754663761E0,-6.832717073E-1,-3.463764545E0,7.621680101E0
8.708838292E0,-7.234409094E0,1.885253423E-1,-3.601230831E0,8.083382970E0
8.718805292E0,-7.259297183E0,9.428880823E-1,-3.421780075E0,8.080532928E0
8.728772292E0,-6.807569953E0,1.853323533E0,-3.039169273E0,7.682080880E0
8.738739292E0,-6.988564081E0,2.925744984E0,-2.597595148E0,8.009214205E0
8.748706292E0,-7.524614008E0,3.875411158E0,-2.252052331E0,8.758445485E0
8.758673292E0,-7.816763706E0,4.513493829E0,-1.697798706E0,9.184549081E0
8.768640292E0,-7.034392803E0,4.715268962E0,-8.472768970E-1,8.510835543E0
8.778608292E0,-6.076782601E0,4.377089982E0,2.254465623E-1,7.492464858E0
8.788575292E0,-4.998889326E0,3.551883547E0,2.418701339E0,6.592032114E0
8.798542292E0,-3.242022340E0,2.551384603E0,3.317098542E0,5.293714668E0
8.808509292E0,-2.014868360E0,1.673062060E0,3.394291145E0,4.287195300E0
8.818476292E0,-1.298659141E0,1.176503059E0,3.479942914E0,3.896238916E0
8.828443083E0,-1.044529793E0,7.343523985E-1,3.279902650E0,3.519670059E0
8.838411083E0,-9.952716793E-1,9.248248637E-2,3.192454616E0,3.345278045E0
8.848378083E0,-6.796511114E-1,-7.682352591E-1,3.179766743E0,3.341111729E0
8.858345083E0,-1.265604977E-1,-1.566776052E0,3.294925901E0,3.650663152E0
8.868312083E0,5.828282368E-1,-2.362525969E0,3.434714116E0,4.209332342E0
8.878279083E0,1.610525504E0,-3.126846517E0,3.562060041E0,5.005919823E0
8.888246083E0,2.722834029E0,-3.722642124E0,3.620385432E0,5.863367651E0
8.898213083E0,3.716211064E0,-3.785080447E0,3.346138154E0,6.271658410E0
8.908181083E0,4.695204534E0,-3.355681395E0,2.842818602E0,6.433285385E0
8.918148083E0,5.773606809E0,-2.812366887E0,2.583695732E0,6.922385913E0
8.928115083E0,6.641970958E0,-2.665900567E0,2.297105566E0,7.516614798E0
8.938082083E0,7.612274880E0,-2.989764394E0,1.964839291E0,8.411064940E0
8.948049083E0,8.793272694E0,-3.465252954E0,2.053076553E0,9.671853288E0
8.958016083E0,9.944014674E0,-4.025481702E0,2.339799596E0,1.098009986E1
8.967983083E0,1.126778220E1,-4.333416544E0,2.472554780E0,1.232294371E1
8.977951083E0,1.224979283E1,-4.149987634E0,2.202999747E0,1.311994778E1
8.987918083E0,1.239813786E1,-3.304742791E0,1.658553949E0,1.293777216E1
8.997885083E0,1.282497408E1,-2.099310048E0,1.199201950E0,1.305086772E1
9.007852083E0,1.393255016E1,-8.413786644E-1,4.750833482E-1,1.396601504E1
9.017819083E0,1.597933058E1,2.517401755E-1,-2.206996465E-1,1.598283727E1
9.027786083E0,1.726031402E1,1.410309824E0,-1.961513395E0,1.742856703E1
9.037753083E0,1.884750797E1,2.683922271E0,-3.605079761E0,1.937597986E1
9.047721083E0,2.032020641E1,4.423822684E0,-5.174113423E0,2.143017605E1
9.057688083E0,1.839411487E1,6.237979812E0,-5.924073794E0,2.030641535E1
9.067655083E0,1.341873661E1,7.226349292E0,-5.064091628E0,1.606012579E1
9.077622083E0,9.787842561E0,7.026590863E0,-3.992751620E0,1.269318347E1
9.087589083E0,8.024434587E0,6.013631503E0,-3.703691298E0,1.068983833E1
9.097556083E0,6.483525447E0,4.038112273E0,-4.097481100E0,8.667860423E0
9.107523083E0,5.960497854E0,1.007851233E0,-4.767544239E0,7.698881533E0
9.117491083E0,6.949928604E0,-2.274228920E0,-4.864047856E0,8.782515945E0
9.127458083E0,7.486463265E0,-5.761097860E0,-3.995044606E0,1.025659603E1
9.137425083E0,5.715124712E0,-1.158609760E1,-3.084490749E0,1.328210794E1
9.147392083E0,9.101550767E-1,-2.095133148E1,-3.116284692E0,2.120136560E1
9.157359083E0,-5.553903528E0,-3.127152911E1,-3.189530131E0,3.192064348E1
9.167326083E0,-8.687315884E0,-3.273653964E1,8.433687642E-1,3.388010856E1
9.177293083E0,-7.836283466E0,-2.485381934E1,5.011666077E0,2.653745412E1
9.187261083E0,-5.759813227E0,-1.527762845E1,4.828665477E0,1.702637335E1
9.197228083E0,-4.726239800E0,-8.467023788E0,1.655105846E0,9.837032573E0
9.207195083E0,-3.758415390E0,-3.836049457E0,6.668720216E-2,5.370792200E0
9.217162083E0,-2.786095347E0,-1.489870548E-1,-8.756717071E-1,2.924264927E0
9.227129083E0,-2.683648913E0,2.047281523E0,-2.487328355E0,4.192867214E0
9.237096083E0,-3.556676802E0,3.593467775E0,-5.565896752E0,7.519452585E0
9.247064083E0,-4.575924550E0,5.139968607E0,-1.130398231E1,1.323398575E1
9.257031083E0,-4.805157039E0,7.099746548E0,-1.879946491E1,2.066194124E1
9.266998083E0,-4.982431169E0,8.275538585E0,-2.054560020E1,2.270310214E1
9.276965083E0,-5.134496782E0,6.642340502E0,-1.409528519E1,1.640612109E1
9.286932083E0,-5.331181329E0,5.437519963E0,-9.537710370E0,1.220475468E1
9.296899083E0,-5.840746878E0,4.335513940E0,-6.148561851E0,9.524485186E0
9.306866083E0,-6.107790386E0,3.935087841E0,-4.197214718E0,8.390865933E0
9.316834083E0,-6.192011926E0,4.258223104E0,-3.240006512E0,8.183588327E0
9.326801083E0,-6.290175567E0,5.217015029E0,-2.958463079E0,8.691148271E0
9.336768083E0,-6.036965986E0,6.292847745E0,-2.783751783E0,9.153915285E0
9.346735083E0,-5.679326888E0,7.263708907E0,-2.386637548E0,9.524298387E0
9.356702083E0,-6.301799247E0,6.944543903E0,-1.689420231E0,9.528562562E0
9.366669083E0,-6.644673541E0,5.710392560E0,-9.385599732E-1,8.811422387E0
9.376636083E0,-6.938660434E0,4.392782739E0,-6.140871593E-1,8.235208064E0
9.386604083E0,-6.047648849E0,3.715593891E0,-2.865653148E-1,7.103647953E0
9.396571083E0,-5.197482989E0,3.142315326E0,1.570144048E-1,6.075576397E0
9.406538083E0,-3.813735020E0,1.784174361E0,8.569831288E-1,4.296774725E0
9.416505083E0,4.851083994E-1,-6.441047180E-1,3.058018650E0,3.162543139E0
9.426472083E0,7.670937656E0,-4.922401899E0,5.025810492E0,1.040827056E1
9.436439083E0,1.275836494E1,-1.044120927E1,5.110035540E0,1.725998813E1
9.446406083E0,1.564530370E1,-1.677932557E1,5.552299052E0,2.360401066E1
9.456374083E0,1.622717768E1,-1.933361507E1,3.733410941E0,2.551564862E1
9.466341083E0,1.023533348E1,-1.447060276E1,1.075182944E0,1.775715107E1
9.476308083E0,2.501126322E0,-6.720602560E0,1.600955951E-1,7.172709547E0
9.486275083E0,-6.350400719E-1,-1.521917968E0,-6.888136983E-2,1.650531683E0
9.496242083E0,1.313362111E0,6.099072772E-1,-1.531113445E0,2.107419110E0
9.506209083E0,3.478254238E0,7.525103420E-1,-2.270636098E0,4.221411215E0
9.516176083E0,3.090153193E0,-9.232572252E-1,-1.615077269E0,3.606927396E0
9.526144083E0,5.928158659E-1,-2.718286942E0,-2.969552323E-1,2.797980872E0
9.536111083E0,-1.224003792E0,-2.966314135E0,-1.340415716E-1,3.211724144E0
9.546078083E0,-2.009806718E0,-2.000051224E0,-8.683574250E-1,2.965395852E0
9.556045083E0,-2.786853147E0,-1.122869473E0,-1.587183419E0,3.398019647E0
9.566012083E0,-3.769838510E0,-7.389863169E-1,-2.221181810E0,4.437502879E0
9.575979083E0,-4.984719769E0,-1.221537729E0,-2.806403020E0,5.849400269E0
9.585947083E0,-6.179356797E0,-3.126595087E0,-3.986981003E0,7.990998985E0
9.595914083E0,-6.440161327E0,-4.723729298E0,-4.631043329E0,9.232326831E0
9.605881083E0,-5.374068317E0,-4.685009036E0,-4.368709168E0,8.361551276E0
9.615848083E0,-5.876973302E0,-4.124525349E0,-7.270171834E0,1.021792166E1
9.625815083E0,-6.941586381E0,-3.368695543E0,-1.040132307E1,1.295072403E1
9.635782083E0,-6.036942013E0,-1.737318867E0,-7.505468470E0,9.787492154E0
9.645749083E0,-5.634411501E0,-1.973593158E-1,-4.520344134E0,7.226275303E0
9.655717083E0,-5.836928061E0,9.565144336E-1,-3.107407157E0,6.681364254E0
9.665684083E0,-6.773712820E0,1.490212026E0,-2.376192082E0,7.331453202E0
9.675651083E0,-7.548320959E0,1.982374506E0,-2.308975999E0,8.138693270E0
9.685618083E0,-7.529820369E0,2.846827453E0,-2.499269247E0,8.429054995E0
9.695585083E0,-6.774007519E0,3.762458739E0,-1.919869525E0,7.983055344E0
9.705552083E0,-6.489753317E0,4.263895488E0,-1.215683204E0,7.859744811E0
9.715520083E0,-6.212032793E0,4.572583451E0,-4.496419667E-1,7.726580662E0
9.725487083E0,-5.576745676E0,4.591707940E0,-2.042156146E-1,7.226726655E0
9.735454083E0,-5.492317729E0,4.137488626E0,1.071845792E-1,6.877198172E0
9.745421083E0,-4.917912991E0,3.249909357E0,1.304117809E0,6.037259500E0
9.755388083E0,-3.868561437E0,2.102112034E0,3.202666193E0,5.444420386E0
9.765355083E0,-2.429493253E0,1.103994661E0,4.279446743E0,5.043303095E0
9.775322083E0,-1.103854401E0,6.336025339E-1,3.819590714E0,4.026067552E0
9.785290083E0,-4.487911968E-1,2.769662333E-1,3.498985541E0,3.538505850E0
9.795257083E0,-1.395271370E-1,-1.628227365E-1,3.173390354E0,3.180626574E0
9.805224083E0,1.541380864E-1,-7.937215179E-1,3.084672305E0,3.188879996E0
9.815191083E0,4.792108611E-1,-1.508226712E0,3.146528830E0,3.522078157E0
9.825158083E0,8.918777769E-1,-2.399998435E0,3.389732655E0,4.248026122E0
9.835126083E0,1.710613172E0,-3.194887642E0,3.931088346E0,5.346677478E0
9.845093083E0,2.727041978E0,-3.812211528E0,4.248607358E0,6.326166230E0
9.855061083E0,3.838056806E0,-3.856972548E0,4.399830973E0,6.997530270E0
9.865028083E0,4.930942926E0,-3.454529160E0,4.321201710E0,7.410853802E0
9.874995083E0,6.131240644E0,-2.930582970E0,3.878505505E0,7.824527675E0
9.884962083E0,7.091273932E0,-2.627144637E0,3.152562572E0,8.193088898E0
9.894929083E0,7.869150665E0,-2.710792565E0,2.696694928E0,8.748948055E0
9.904896083E0,8.681856923E0,-3.040852686E0,2.527915049E0,9.540009391E0
9.914864083E0,9.617342430E0,-3.417972368E0,2.414009534E0,1.048824354E1
9.924831083E0,1.051636587E1,-3.737812725E0,2.370366062E0,1.140981290E1
9.934798083E0,1.129247265E1,-3.720403810E0,2.208366906E0,1.209289988E1
9.944765083E0,1.176625850E1,-3.128541040E0,1.679844684E0,1.229042255E1
9.954732083E0,1.216846040E1,-2.161980506E0,1.075944398E0,1.240577465E1
9.964699083E0,1.315229069E1,-1.137836006E0,3.236414860E-1,1.320538394E1
9.974666083E0,1.445172912E1,-2.631358141E-1,-6.143812743E-1,1.446717592E1
9.984634083E0,1.647188833E1,7.187836021E-1,-1.157360736E0,1.652813477E1
9.994601083E0,1.855054426E1,1.854744406E0,-2.420970644E0,1.879957095E1
1.000456808E1,2.049560417E1,3.367955285E0,-3.866193607E0,2.112724228E1
1.001453508E1,1.966354305E1,5.027101557E0,-5.054965879E0,2.091600715E1
1.002450208E1,1.611658110E1,6.416248553E0,-5.379514414E0,1.816181729E1
1.003446908E1,1.116324451E1,6.970174003E0,-4.875300822E0,1.403459695E1
1.004443608E1,7.850377595E0,6.423113769E0,-4.203222440E0,1.097961282E1
1.005440408E1,7.093070197E0,4.658131725E0,-3.814517670E0,9.303783157E0
1.006437108E1,6.084118518E0,1.799473600E0,-3.886831940E0,7.440568924E0
1.007433808E1,5.121601333E0,-1.784747972E0,-4.699162514E0,7.176228388E0
1.008430508E1,5.683233998E0,-5.715470867E0,-4.534871542E0,9.248287182E0
1.009427208E1,4.891663086E0,-1.125822200E1,-4.330853124E0,1.301661320E1
1.010423908E1,1.829054080E0,-1.907090903E1,-3.738324357E0,1.951973563E1
1.011420708E1,-2.496495620E0,-2.973365526E1,-3.151062761E0,3.000419874E1
1.012417408E1,-6.838454361E0,-3.401528828E1,-2.026019293E-1,3.469647450E1
1.013414108E1,-7.301325215E0,-2.690242409E1,4.233179772E0,2.819520496E1
1.014410808E1,-5.511802990E0,-1.721972967E1,4.670880409E0,1.867394404E1
1.015407508E1,-4.222947437E0,-9.444346123E0,1.340944889E0,1.043202243E1
1.016404208E1,-3.308567455E0,-4.199519983E0,-9.624575436E-1,5.432210527E0
1.017400908E1,-2.814463991E0,-7.743619716E-1,-1.910502870E0,3.488676717E0
1.018397708E1,-1.914317301E0,1.887272467E0,-2.717805423E0,3.822678958E0
1.019394408E1,-2.311834118E0,3.727321651E0,-4.089686761E0,5.996919333E0
1.020391108E1,-4.134754468E0,4.867954381E0,-7.723045703E0,1.002190647E1
1.021387808E1,-5.932306089E0,5.950624831E0,-1.420352767E1,1.650279945E1
1.022384508E1,-6.019929539E0,7.630364411E0,-1.913130375E1,2.145853667E1
1.023381208E1,-5.743319986E0,7.022798944E0,-1.743556560E1,1.965462738E1
1.024378008E1,-5.118629193E0,5.522927903E0,-1.253569361E1,1.462349861E1
1.025374708E1,-5.281727334E0,4.313034319E0,-9.416106995E0,1.162591844E1
1.026371408E1,-5.394012585E0,3.537246796E0,-7.355919498E0,9.783508487E0
1.027368108E1,-5.320015486E0,3.432859964E0,-5.040779364E0,8.092993816E0
1.028364808E1,-5.601712117E0,3.862280066E0,-3.316947100E0,7.569578853E0
1.029361508E1,-5.841861942E0,4.565123574E0,-2.219694571E0,7.739169734E0
1.030358208E1,-5.569448351E0,5.560926034E0,-1.578787403E0,8.027155346E0
1.031355008E1,-5.427139986E0,6.342884123E0,-1.389331768E0,8.462639670E0
1.032351708E1,-5.813970138E0,6.145623626E0,-1.303826180E0,8.559842360E0
1.033348408E1,-6.180052616E0,5.186473267E0,-6.881892157E-1,8.097293355E0
1.034345108E1,-6.083411005E0,4.254387916E0,1.993944392E-1,7.426133862E0
1.035341808E1,-5.465624020E0,3.086003131E0,8.736038393E-1,6.337163792E0
1.036338508E1,-4.125778700E0,2.185685703E0,1.306657694E0,4.848363249E0
1.037335208E1,-1.476879789E0,1.236113083E0,2.128869770E0,2.870755295E0
1.038332008E1,4.842082498E0,-1.678336834E0,4.377904792E0,6.740076246E0
1.039328708E1,1.147860122E1,-7.006561226E0,4.230354398E0,1.409773331E1
1.040325408E1,1.365649141E1,-1.310677947E1,4.124477110E0,1.937262856E1
1.041322108E1,1.546074804E1,-1.854152083E1,4.053531380E0,2.447966179E1
1.042318808E1,1.255695292E1,-1.883953821E1,3.209929897E0,2.286720177E1
1.043315508E1,7.030103871E0,-1.134258797E1,1.956824366E0,1.348724671E1
1.044312208E1,1.608173462E0,-3.093954175E0,1.470607481E0,3.784370580E0
1.045309008E1,-1.745171970E0,1.509692025E0,1.228344473E0,2.614120380E0
1.046305708E1,-1.870221401E0,3.549118983E0,5.790775403E-2,4.012147424E0
1.047302408E1,-1.105393607E0,3.403788777E0,-5.922435696E-1,3.627454412E0
1.048299108E1,-9.462987632E-1,1.250573248E0,-2.050934279E-1,1.581606181E0
1.049295808E1,-9.201883140E-1,-2.001341704E0,5.458345114E-1,2.269372262E0
1.050292508E1,-3.924823639E-1,-4.735670482E0,6.003254449E-1,4.789677229E0
1.051289308E1,-4.588812983E-1,-5.620121491E0,1.495814243E-1,5.640807763E0
1.052286008E1,-3.934839919E-1,-4.506230417E0,-8.552003127E-1,4.603510595E0
1.053282708E1,-1.327321461E0,-2.873832818E0,-1.655577716E0,3.572343055E0
1.054279408E1,-2.283940268E0,-1.875012025E0,-2.206638907E0,3.687995188E0
1.055276108E1,-3.375211095E0,-2.004879270E0,-2.904966026E0,4.883689019E0
1.056272808E1,-4.792873208E0,-2.937547004E0,-3.990321517E0,6.893727714E0
1.057269608E1,-5.374026217E0,-3.242230793E0,-4.884932941E0,7.953287882E0
1.058266308E1,-4.943781658E0,-2.595984240E0,-5.019598410E0,7.508427229E0
1.059263008E1,-5.786176568E0,-1.923529297E0,-7.976362288E0,1.004002787E1
1.060259708E1,-6.536077883E0,-1.157499608E0,-9.373488395E0,1.148574787E1
1.061256408E1,-5.661970598E0,-1.155462438E-1,-6.241728462E0,8.427955635E0
1.062253108E1,-4.816085192E0,7.297009385E-1,-3.700561869E0,6.117295005E0
1.063249808E1,-4.776988662E0,1.050030123E0,-2.482562875E0,5.485007052E0
1.064246608E1,-5.239040905E0,1.269260364E0,-2.158360202E0,5.806641907E0
1.065243308E1,-5.645118338E0,1.570110134E0,-1.984141535E0,6.186228618E0
1.066240008E1,-5.545736137E0,2.158549359E0,-1.667422129E0,6.180195886E0
1.067236708E1,-5.025334529E0,2.966345710E0,-1.054308092E0,5.929988158E0
1.068233408E1,-4.560849844E0,3.600435902E0,-6.388448551E-1,5.845734576E0
1.069230108E1,-4.553201978E0,3.933278128E0,-4.906638390E-1,6.036810092E0
1.070226808E1,-4.470920836E0,3.954749104E0,-3.599076717E-1,5.979858454E0
1.071223608E1,-4.306274646E0,3.816221548E0,4.923560232E-1,5.774942656E0
1.072220308E1,-4.261052864E0,3.210216703E0,3.026824046E0,6.133818273E0
1.073217008E1,-3.339350414E0,1.958810227E0,5.413455747E0,6.655351367E0
1.074213708E1,-1.885493013E0,1.099321566E0,5.818642064E0,6.214514243E0
1.075210408E1,-1.025450694E0,8.298923939E-1,5.216453696E0,5.380674649E0
1.076207108E1,-2.870653249E-1,5.154881930E-1,4.745350547E0,4.781891508E0
1.077203908E1,1.654788708E-1,1.393601990E-1,3.781598430E0,3.787781832E0
1.078200608E1,6.968949889E-1,-1.736085105E-1,2.778377607E0,2.869701146E0
1.079197308E1,1.234218732E0,-5.870458335E-1,2.282957497E0,2.660791916E0
1.080194008E1,1.715134824E0,-1.280342007E0,2.246932948E0,3.103171086E0
1.081190708E1,2.439819436E0,-2.224263877E0,2.573798735E0,4.186228446E0
1.082187408E1,3.166280724E0,-2.957684230E0,3.132843422E0,5.346768887E0
1.083184054E1,3.827880896E0,-3.090439414E0,3.467300649E0,6.018775765E0
1.084180854E1,4.522906384E0,-2.704551247E0,3.312555841E0,6.224492414E0
1.085177554E1,5.281974671E0,-2.190210278E0,3.269817372E0,6.586955528E0
1.086174254E1,5.967933174E0,-1.870210292E0,2.722954189E0,6.821172364E0
1.087170954E1,6.850538802E0,-1.643512571E0,2.470179057E0,7.465440377E0
1.088167654E1,7.550329478E0,-1.596080543E0,2.361168830E0,8.070320103E0
1.089164354E1,8.296484481E0,-1.549908004E0,2.154102552E0,8.710569865E0
1.090161154E1,8.715280777E0,-1.548024616E0,1.889909561E0,9.051201986E0
1.091157854E1,9.073201711E0,-1.579954507E0,1.418099484E0,9.318275145E0
1.092154554E1,9.587028710E0,-1.789252083E0,8.963310894E-1,9.793668972E0
1.093151254E1,1.023918095E1,-2.148888005E0,4.503589815E-1,1.047193246E1
1.094147954E1,1.093918856E1,-2.476112811E0,4.445711151E-2,1.121601344E1
1.095144654E1,1.188351623E1,-2.534023635E0,-9.506870985E-2,1.215106052E1
1.096141354E1,1.318761489E1,-1.983712934E0,-3.918419476E-1,1.334173315E1
1.097138154E1,1.466374799E1,-7.850126749E-1,-9.373846829E-1,1.471463353E1
1.098134854E1,1.545048968E1,5.150946754E-1,-2.348177048E0,1.563639630E1
1.099131554E1,1.552295539E1,1.756915226E0,-3.874230021E0,1.609529601E1
1.100128254E1,1.462962948E1,3.266439435E0,-5.604007149E0,1.600314286E1
1.101124954E1,1.142406190E1,4.736910092E0,-6.405704854E0,1.392769048E1
1.102121654E1,8.095467147E0,5.180744750E0,-5.452677700E0,1.105026690E1
1.103118354E1,6.416050333E0,4.229626127E0,-3.983494601E0,8.655845902E0
1.104115154E1,5.684815085E0,2.144380386E0,-2.810094659E0,6.694185670E0
1.105111854E1,5.839779164E0,-3.669958127E-1,-2.279075677E0,6.279481869E0
1.106108554E1,5.955193845E0,-3.086523533E0,-2.062346290E0,7.017423564E0
1.107105254E1,4.400806289E0,-6.896507857E0,-1.530998840E0,8.323032744E0
1.108101954E1,1.806195267E0,-1.149713455E1,-8.845743853E-1,1.167171436E1
1.109098654E1,-1.066000623E0,-1.659099845E1,-8.399601299E-1,1.664641463E1
1.110095454E1,-4.248345403E0,-2.108933980E1,1.577841908E-1,2.151356753E1
1.111092154E1,-5.668479719E0,-2.149053598E1,2.575129561E0,2.237422829E1
1.112088854E1,-4.856792631E0,-1.777531924E1,3.887432449E0,1.883248628E1
1.113085554E1,-4.853067954E0,-1.294386201E1,3.364615356E0,1.422731418E1
1.114082254E1,-5.191776107E0,-8.339929293E0,3.072996877E0,1.029331189E1
1.115078954E1,-4.029010497E0,-4.053506237E0,1.654862602E0,5.949992322E0
1.116075654E1,-3.569662591E0,-9.600718796E-1,-2.845430553E-2,3.696625309E0
1.117072454E1,-4.187368884E0,9.730345720E-1,-1.758218570E0,4.644586848E0
1.118069154E1,-5.223725878E0,2.315239536E0,-3.989827428E0,6.968957530E0
1.119065854E1,-5.415784693E0,3.519896353E0,-6.916625787E0,9.463620156E0
1.120062554E1,-5.546146027E0,4.576692290E0,-1.055495048E1,1.277156324E1
1.121059254E1,-5.778264116E0,6.642961476E0,-1.629366403E1,1.852027972E1
1.122055954E1,-7.655678177E0,6.861960168E0,-1.644591617E1,1.939494945E1
1.123052754E1,-9.202578374E0,5.578684613E0,-1.178787215E1,1.596130009E1
1.124049454E1,-9.552260581E0,4.768214330E0,-7.786974481E0,1.321433016E1
1.125046154E1,-9.406473708E0,4.554265879E0,-5.202678241E0,1.167437134E1
1.126042854E1,-8.716664228E0,4.985343082E0,-3.684963251E0,1.069639355E1
1.127039554E1,-7.951298198E0,5.756560421E0,-3.078620729E0,1.028781009E1
1.128036254E1,-7.564961550E0,6.505827897E0,-3.120926796E0,1.045440692E1
1.129032954E1,-7.738595788E0,6.886816682E0,-2.966407691E0,1.077560594E1
1.130029754E1,-7.791162842E0,6.236225647E0,-3.019369139E0,1.042637611E1
1.131026454E1,-7.836576996E0,4.852107841E0,-2.692170061E0,9.602222095E0
1.132023154E1,-7.996296616E0,3.491458420E0,-2.090168804E0,8.972170701E0
1.133019854E1,-8.311963815E0,1.422472617E0,-2.243922216E0,8.726245339E0
1.134016554E1,-7.306333355E0,-1.859180689E-2,-2.798599033E0,7.824002128E0
1.135013254E1,-6.150731753E0,-2.841261488E-1,-1.796881530E0,6.414125973E0
1.136010054E1,-4.778770893E0,-1.487842149E0,-1.564313205E0,5.243796460E0
1.137006754E1,-1.092519646E0,-4.479561267E0,-7.526591536E-1,4.671890851E0
1.138003454E1,4.676732302E0,-8.243960112E0,1.884158240E0,9.663578821E0
1.139000154E1,1.283549088E1,-1.103654704E1,4.795764948E0,1.759416262E1
1.139996854E1,2.086377995E1,-1.256254402E1,5.115196878E0,2.488533836E1
1.140993554E1,2.032183896E1,-1.254145195E1,7.808678761E-1,2.389298872E1
1.141990254E1,1.243286564E1,-1.083404159E1,-1.924805306E0,1.660293591E1
1.142987054E1,5.057210040E0,-7.175522370E0,-2.385282748E0,9.096871355E0
1.143983754E1,3.022324906E0,-3.228390434E0,-8.225354272E-1,4.498168201E0
1.144980454E1,6.170517561E0,-1.210802826E0,-1.446016431E0,6.452309197E0
1.145977154E1,7.030639476E0,-8.822226351E-1,-2.908196905E0,7.659361426E0
1.146973854E1,4.481123058E0,-9.394914347E-1,-1.938928670E0,4.972177833E0
1.147970554E1,1.268663948E0,-5.962955439E-1,-6.140295643E-1,1.530395013E0
1.148967354E1,-6.498156935E-1,5.968136072E-2,-3.785997583E-1,7.544269861E-1
1.149964054E1,-2.311589997E0,5.558497685E-1,-3.867917074E-1,2.408739318E0
1.150960754E1,-3.577513647E0,4.289540792E-1,-4.012014395E-1,3.625405921E0
1.151957454E1,-4.894425603E0,-1.177539770E0,-3.321654108E-1,5.045030798E0
1.152954154E1,-6.177183387E0,-3.792303513E0,6.362823129E-2,7.248669470E0
1.153950854E1,-6.269529049E0,-5.630307925E0,-1.479874733E-1,8.427885982E0
1.154947554E1,-5.167141203E0,-5.576086695E0,-1.357964380E0,7.722445098E0
1.155944354E1,-3.919982729E0,-4.224844859E0,-2.487204102E0,6.277082357E0
1.156941054E1,-4.557837066E0,-3.030507792E0,-4.414542568E0,7.031787986E0
1.157937754E1,-6.820396405E0,-2.153309669E0,-1.088037726E1,1.302064357E1
1.158934454E1,-6.236143202E0,-3.683161139E-1,-1.036229992E1,1.209968588E1
1.159931154E1,-6.377129511E0,1.062337343E0,-7.296651535E0,9.748716072E0
1.160927854E1,-5.790213486E0,2.449104522E0,-5.557455127E0,8.391066241E0
1.161924554E1,-4.716802979E0,3.666259178E0,-4.375686650E0,7.405154986E0
1.162921354E1,-4.745515731E0,4.251460800E0,-3.683238907E0,7.359421671E0
1.163918054E1,-5.567466145E0,4.625682017E0,-3.269304571E0,7.942415613E0
1.164914754E1,-6.520962830E0,4.688003980E0,-3.089968713E0,8.605128947E0
1.165911454E1,-6.836558109E0,4.353942609E0,-1.790530723E0,8.300683303E0
1.166908154E1,-6.024710222E0,4.258517219E0,-7.112437637E-1,7.412015236E0
1.167904854E1,-5.667764604E0,3.937736630E0,-3.648172863E-1,6.911035887E0
1.168901654E1,-5.105327947E0,3.164440021E0,3.459388196E-1,6.016454750E0
1.169898354E1,-4.019171679E0,2.447721071E0,1.256091704E0,4.870610413E0
1.170895054E1,-2.629273901E0,2.195572760E0,1.717033707E0,3.831687062E0
1.171891754E1,-1.462021283E0,2.009718425E0,1.836640257E0,3.090262419E0
1.172888454E1,-7.604909143E-1,1.363893456E0,1.945175105E0,2.494445425E0
1.173885154E1,-6.156192029E-1,2.037550002E-1,2.215623447E0,2.308568899E0
1.174881854E1,-7.376944477E-1,-1.300785627E0,2.923260502E0,3.283548128E0
1.175878654E1,-3.117557046E-1,-2.767995876E0,3.919385144E0,4.808385664E0
1.176875354E1,4.951265801E-1,-4.156782684E0,4.821832128E0,6.385456732E0
1.177872054E1,1.468219478E0,-5.129555300E0,5.248098242E0,7.484019052E0
1.178868754E1,2.840187355E0,-5.220412261E0,4.868147923E0,7.682332497E0
1.179865454E1,4.529501751E0,-4.706549009E0,3.971743451E0,7.644784871E0
1.180862154E1,5.785105358E0,-4.081421430E0,3.105626972E0,7.731129528E0
1.181858954E1,6.499828069E0,-3.745510000E0,3.186253059E0,8.150387638E0
1.182855654E1,7.294469939E0,-3.542747857E0,3.336007853E0,8.768654541E0
1.183852371E1,8.104250835E0,-3.563998978E0,3.341666204E0,9.462964827E0
1.184849071E1,8.942320560E0,-3.550455072E0,3.269166577E0,1.016160806E1
1.185845771E1,9.684640959E0,-3.289658144E0,3.231231011E0,1.072636821E1
1.186842471E1,1.037244952E1,-2.615344371E0,2.802793826E0,1.105818197E1
1.187839171E1,1.086710408E1,-1.526116853E0,1.844232867E0,1.112763132E1
1.188835971E1,1.149254449E1,-5.675751901E-1,9.865346235E-1,1.154876491E1
1.189832671E1,1.280170801E1,9.298359275E-2,1.415757090E-1,1.280282850E1
1.190829371E1,1.470930364E1,5.598861015E-1,-6.653413667E-1,1.473498440E1
1.191826071E1,1.701131385E1,1.419322722E0,-1.766887798E0,1.716161905E1
1.192822771E1,1.905600564E1,2.726834986E0,-3.391055295E0,1.954651468E1
1.193819471E1,2.001490925E1,4.577748882E0,-4.564142411E0,2.103292117E1
1.194816271E1,1.749765718E1,6.225405375E0,-5.270689545E0,1.930553929E1
1.195812971E1,1.250374559E1,7.288256103E0,-4.640677786E0,1.519862563E1
1.196809671E1,8.553405874E0,7.870959794E0,-3.626660079E0,1.217642901E1
1.197806371E1,6.925650964E0,7.219175928E0,-3.038764645E0,1.045539253E1
1.198803071E1,6.225051618E0,5.166625478E0,-2.424283969E0,8.445261348E0
1.199799771E1,6.182016111E0,3.009432673E0,-1.984107767E0,7.156164604E0
1.200796471E1,6.216783655E0,4.292505330E-1,-2.389401526E0,6.673971433E0
1.201793271E1,5.694036144E0,-3.716786138E0,-2.380100507E0,7.204264378E0
1.202789971E1,3.491403749E0,-1.058227685E1,-2.136072662E0,1.134624563E1
1.203786671E1,-7.244165173E-1,-2.120886625E1,-2.751951701E0,2.139892579E1
1.204783371E1,-4.273242555E0,-3.384174526E1,-1.871054337E0,3.416175008E1
1.205780071E1,-7.066091144E0,-3.494607380E1,3.789403586E0,3.585411130E1
1.206776771E1,-6.665225919E0,-2.720196058E1,8.519530615E0,2.927378174E1
1.207773471E1,-5.536803346E0,-1.829969637E1,6.141259848E0,2.008108939E1
1.208770271E1,-4.707784818E0,-1.013963094E1,2.140432639E0,1.138230228E1
1.209766971E1,-4.504672427E0,-4.502159001E0,4.050015450E-2,6.368920600E0
1.210763671E1,-4.527499664E0,-8.667830622E-1,-2.588514715E0,5.286773545E0
1.211760371E1,-4.938389940E0,1.599352060E0,-3.852447388E0,6.464284422E0
1.212757071E1,-4.981824228E0,3.304575561E0,-5.022870512E0,7.808202127E0
1.213753771E1,-4.670157401E0,5.169239768E0,-7.965391742E0,1.058200716E1
1.214750571E1,-4.363496667E0,9.322571425E0,-1.894682877E1,2.156229955E1
1.215747271E1,-6.380187020E0,1.109199268E1,-2.829608689E1,3.105491300E1
1.216743971E1,-6.839423245E0,8.412962186E0,-2.165498307E1,2.421763686E1
1.217740671E1,-5.575514252E0,6.305285942E0,-1.484946725E1,1.706896797E1
1.218737371E1,-4.891530354E0,4.600989810E0,-9.610090129E0,1.172390757E1
1.219734071E1,-4.522724243E0,3.935990651E0,-6.447013094E0,8.804035144E0
1.220730771E1,-4.527484462E0,4.376324582E0,-4.656513800E0,7.831567733E0
1.221727571E1,-4.553893119E0,5.233084347E0,-3.112233741E0,7.603230443E0
1.222724271E1,-4.026635065E0,6.246240758E0,-2.239367528E0,7.761706029E0
1.223720971E1,-3.830032379E0,7.103979347E0,-1.819808755E0,8.273292845E0
1.224717671E1,-3.946254561E0,7.010452548E0,-1.032707162E0,8.110847926E0
1.225714371E1,-3.941172161E0,5.575883796E0,-2.805821514E-1,6.833889409E0
1.226711071E1,-4.718715311E0,3.220434127E0,4.680731213E-1,5.732064427E0
1.227707771E1,-5.135086182E0,1.521633208E0,1.007454792E0,5.449719522E0
1.228704571E1,-4.245376772E0,-5.657590449E-2,1.670961156E0,4.562733386E0
1.229701271E1,-9.788844189E-1,-1.884073455E0,2.913573712E0,3.605115708E0
1.230697971E1,6.044869083E0,-4.558608021E0,5.161460048E0,9.163079130E0
1.231694671E1,1.309614689E1,-8.279296591E0,5.060951089E0,1.629935708E1
1.232691371E1,1.571362257E1,-1.342135733E1,4.787012251E0,2.121240800E1
1.233688071E1,1.530421106E1,-1.783467198E1,5.292950479E0,2.408961863E1
1.234684871E1,1.315499210E1,-1.617831249E1,4.611550466E0,2.135551475E1
1.235681571E1,8.820052357E0,-8.189341856E0,2.004005696E0,1.220142133E1
1.236678271E1,3.800800102E0,-1.125191402E0,5.630049698E-1,4.003637309E0
1.237674971E1,-4.560676181E-1,2.707779495E0,8.794902313E-1,2.883326297E0
1.238671671E1,-2.378237730E0,5.212401575E0,1.382018071E0,5.893650722E0
1.239668371E1,-2.814111112E0,6.443124111E0,1.510841587E0,7.191363706E0
1.240665071E1,-2.851611645E0,5.992843482E0,1.373394012E0,6.777320494E0
1.241661871E1,-2.585972930E0,3.973266066E0,1.194454084E0,4.888846468E0
1.242658571E1,-2.303574049E0,9.342979378E-1,1.090794499E0,2.714626802E0
1.243655271E1,-8.644962162E-1,-2.930872407E0,1.038836140E0,3.227467630E0
1.244651971E1,7.285800272E-1,-6.809412995E0,1.411989875E0,6.992327910E0
1.245648671E1,1.120540235E0,-8.389612500E0,1.767434952E0,8.646677664E0
1.246645371E1,1.163590652E0,-7.339837900E0,1.042372902E0,7.504245790E0
1.247642171E1,6.282888767E-1,-4.483140932E0,-1.444947852E-1,4.529258027E0
1.248638871E1,-6.929288225E-1,-2.303863193E0,-1.204241957E0,2.690378163E0
1.249635571E1,-2.164236361E0,-1.179807320E0,-1.938208440E0,3.135684343E0
1.250632271E1,-3.709705452E0,-9.971660310E-1,-2.769472006E0,4.735634047E0
1.251628971E1,-4.635629300E0,-3.629723436E-1,-5.062225782E0,6.873640796E0
1.252625671E1,-5.007857201E0,1.017558196E0,-6.117233639E0,7.970859792E0
1.253622371E1,-4.555166935E0,2.266342780E0,-3.892986134E0,6.406340331E0
1.254619171E1,-4.181363794E0,2.140928775E0,-2.265706603E0,5.215439157E0
1.255615871E1,-4.935907797E0,1.160371175E0,-1.071489404E0,5.182445040E0
1.256612571E1,-5.924008305E0,6.022357303E-1,-6.114959657E-1,5.985857465E0
1.257609271E1,-5.435554129E0,6.404478693E-1,-2.123626864E-1,5.477273051E0
1.258605971E1,-4.451674141E0,1.364679907E0,-1.174905892E-1,4.657634372E0
1.259602671E1,-3.508795707E0,2.280924566E0,-5.428053613E-1,4.220059461E0
1.260599371E1,-3.143488570E0,2.890196836E0,-7.914984065E-1,4.342951516E0
1.261596171E1,-3.309571129E0,3.310299985E0,-9.096102624E-1,4.768515270E0
1.262592871E1,-3.937256281E0,3.093679941E0,-1.013662269E0,5.108850535E0
1.263589571E1,-4.426970825E0,2.438607016E0,-4.502965625E-1,5.074213422E0
1.264586271E1,-4.064921464E0,1.852466916E0,1.528462902E-1,4.469740728E0
1.265582971E1,-3.549283582E0,1.305696704E0,5.773365319E-1,3.825647043E0
1.266579671E1,-2.782457795E0,8.640986055E-1,1.052074310E0,3.097676247E0
1.267576471E1,-2.104523280E0,5.431157023E-1,1.787256428E0,2.813943574E0
1.268573171E1,-1.951043517E0,1.029396468E-1,2.658769888E0,3.299427934E0
1.269569871E1,-1.776545060E0,-7.282473207E-2,3.768277888E0,4.166693417E0
1.270566571E1,-1.449243217E0,1.032618284E-2,4.635395411E0,4.856676142E0
1.271563271E1,-1.115426991E0,2.022405714E-1,4.868719781E0,4.998950983E0
1.272559971E1,-1.027172114E0,3.941122752E-1,4.459612321E0,4.593315697E0
1.273556671E1,-6.843304919E-1,5.559228587E-1,3.349724252E0,3.463814517E0
1.274553471E1,-4.906595998E-2,5.745269448E-1,2.365136166E0,2.434411174E0
1.275550171E1,8.734899648E-1,5.098660952E-1,1.663730489E0,1.947035514E0
1.276546871E1,1.817968343E0,4.789553744E-1,1.228867214E0,2.246001286E0
1.277543571E1,2.470509132E0,4.789752549E-1,1.005378592E0,2.709911212E0
1.278540271E1,2.799956757E0,3.963102436E-1,8.969194655E-1,2.966695835E0
1.279536971E1,3.008645638E0,3.654603338E-1,6.977486823E-1,3.110042291E0
1.280533671E1,3.238566343E0,3.684541082E-1,4.257404494E-1,3.287145467E0
1.281530471E1,3.694796514E0,1.751603615E-1,2.626145348E-2,3.699039348E0
1.282527171E1,4.290220530E0,-1.937691253E-1,-6.651896314E-1,4.345804404E0
1.283523867E1,4.713630280E0,-5.179960638E-1,-1.244677939E0,4.902637403E0
1.284520567E1,5.111047693E0,-9.591041654E-1,-1.531713954E0,5.421147200E0
1.285517267E1,5.353372098E0,-1.539166085E0,-1.502819061E0,5.769409864E0
1.286513967E1,5.464754539E0,-2.188065519E0,-1.356899602E0,6.040889787E0
1.287510767E1,5.817541033E0,-2.877314250E0,-9.028488345E-1,6.552698451E0
1.288507467E1,6.803827150E0,-3.664406195E0,-7.480459929E-2,7.728229576E0
1.289504167E1,8.205599454E0,-4.375142274E0,8.376693369E-1,9.336777937E0
1.290500867E1,9.890544226E0,-4.896932597E0,1.732590809E0,1.117160171E1
1.291497567E1,1.155597625E1,-4.823597987E0,2.220491254E0,1.271763603E1
1.292494267E1,1.288061151E1,-3.935618184E0,1.992881368E0,1.361509528E1
1.293490967E1,1.436012897E1,-2.348776242E0,1.598236557E0,1.463845668E1
1.294487767E1,1.515833355E1,-4.931687862E-1,1.279847479E0,1.522025956E1
1.295484467E1,1.653034060E1,1.562296500E0,1.007702860E0,1.663455427E1
1.296481167E1,1.749141470E1,3.915984988E0,-7.371818662E-2,1.792456306E1
1.297477867E1,1.721041505E1,6.421697574E0,-2.529675061E0,1.854281106E1
1.298474567E1,1.279369498E1,7.416689025E0,-3.600315449E0,1.521999273E1
1.299471267E1,8.518044253E0,6.425135736E0,-3.096955551E0,1.110993163E1
1.300467967E1,6.649633734E0,3.794400909E0,-2.558560306E0,8.072257299E0
1.301464767E1,5.405966633E0,2.539796591E-1,-2.396433388E0,5.918773005E0
1.302461467E1,4.157522941E0,-3.825571831E0,-2.306596182E0,6.102489884E0
1.303458167E1,2.130405541E0,-8.712548373E0,-2.043524103E0,9.199082437E0
1.304454867E1,4.054076341E-1,-1.396762995E1,-1.915620353E0,1.410420657E1
1.305451567E1,-1.731370787E0,-1.902057152E1,-2.678002842E-1,1.910108643E1
1.306448267E1,-3.963942389E0,-2.167526356E1,2.824015710E0,2.221497140E1
1.307445067E1,-5.542972158E0,-2.087149126E1,6.250264812E0,2.248131442E1
1.308441767E1,-6.510566481E0,-1.764481640E1,7.729637854E0,2.033406804E1
1.309438467E1,-7.124996579E0,-1.302799175E1,7.136389879E0,1.647489623E1
1.310435167E1,-7.070071929E0,-7.236441001E0,4.697881097E0,1.115446468E1
1.311431867E1,-6.314449114E0,-2.590136440E0,1.326786295E0,6.952800605E0
1.312428567E1,-5.800025699E0,7.292992347E-1,-9.824851343E-1,5.927685258E0
1.313425267E1,-5.231724284E0,3.219706734E0,-3.852865172E0,7.251346114E0
1.314422067E1,-5.486825439E0,4.991992536E0,-7.245394843E0,1.036923282E1
1.315418767E1,-6.058428192E0,6.278554226E0,-9.223581573E0,1.269642676E1
1.316415467E1,-6.342490606E0,7.272782031E0,-1.087429850E1,1.453860081E1
1.317412167E1,-6.747517294E0,8.349685373E0,-1.276517577E1,1.667920706E1
1.318408867E1,-7.609483420E0,7.335981077E0,-1.131393544E1,1.548308727E1
1.319405567E1,-7.917036438E0,5.332733765E0,-8.982008536E0,1.310702074E1
1.320402367E1,-8.046352875E0,4.044053628E0,-6.625299962E0,1.118001628E1
1.321399067E1,-7.921162233E0,3.771502628E0,-4.863448516E0,1.003106050E1
1.322395767E1,-7.781550604E0,4.056654378E0,-3.375146483E0,9.402158706E0
1.323392467E1,-7.695589517E0,4.635879561E0,-2.275439586E0,9.267745283E0
1.324389167E1,-7.472051048E0,5.322819226E0,-1.644928767E0,9.320393877E0
1.325385867E1,-7.052782881E0,5.805640195E0,-1.281721365E0,9.224424866E0
1.326382567E1,-6.467738550E0,5.760807254E0,-9.949230391E-1,8.718280451E0
1.327379367E1,-6.254785295E0,5.153126011E0,-6.090255171E-1,8.126989532E0
1.328376067E1,-6.199994545E0,4.545099784E0,-1.047365839E0,7.758533341E0
1.329372767E1,-5.781920965E0,3.662149170E0,-2.783837153E0,7.388619349E0
1.330369467E1,-5.104860170E0,1.832120944E0,-5.671941855E0,7.847750564E0
1.331366167E1,-4.739930179E0,-6.330382776E-1,-6.288507357E0,7.900189892E0
1.332362867E1,-3.802263660E0,-7.256716222E-1,-3.320993080E0,5.100274824E0
1.333359667E1,-1.837974299E0,-2.851494116E-1,-2.480043894E-1,1.876423697E0
1.334356367E1,4.326325625E0,-2.466142139E0,3.045867551E0,5.837487439E0
1.335353067E1,1.337434104E1,-7.074574285E0,6.435029810E0,1.644178239E1
1.336349767E1,1.992596842E1,-1.274521923E1,7.089327979E0,2.469298285E1
1.337346467E1,2.152752781E1,-1.669169569E1,4.806760345E0,2.766138289E1
1.338343167E1,1.601940155E1,-1.607753456E1,1.703157679E0,2.275981304E1
1.339339867E1,5.268307974E0,-9.936796871E0,7.468976728E-1,1.127177258E1
1.340336667E1,-3.100731683E-1,-2.497779669E0,2.566518951E0,3.594727830E0
1.341333367E1,2.175035584E-1,1.331115720E0,1.566225244E0,2.066939373E0
1.342330067E1,1.838525692E0,2.457773019E0,2.034024131E-1,3.076068509E0
1.343326767E1,2.974842007E0,2.708578809E0,-7.330232533E-1,4.089426271E0
1.344323467E1,2.027001333E0,1.285417390E0,-2.920486875E-1,2.417917432E0
1.345320167E1,4.853764942E-1,-1.195376117E0,1.031888552E0,1.652061859E0
1.346316867E1,-1.134854219E0,-2.789461005E0,1.614165396E0,3.416799192E0
1.347313667E1,-2.094824941E0,-3.238527167E0,1.296037104E0,4.068914096E0
1.348310367E1,-3.070880185E0,-2.789867971E0,9.791905206E-1,4.262919479E0
1.349307067E1,-4.359184054E0,-1.961429780E0,5.582095586E-1,4.812617822E0
1.350303767E1,-5.326737446E0,-1.468212461E0,2.485864797E-1,5.530965095E0
1.351300467E1,-5.615268302E0,-1.360457633E0,-1.828093967E-1,5.780614357E0
1.352297167E1,-5.342322614E0,-1.580422284E0,-8.108965445E-1,5.629893313E0
1.353293967E1,-4.726712548E0,-1.866048244E0,-1.480943604E0,5.293122095E0
1.354290667E1,-4.648874997E0,-1.718437039E0,-1.925239608E0,5.317105617E0
1.355287367E1,-4.787695791E0,-1.161418996E0,-2.734045480E0,5.634352648E0
1.356284067E1,-4.948320851E0,-2.411993998E-1,-3.116906835E0,5.853132889E0
1.357280767E1,-6.077224066E0,2.643292308E-1,-3.684161013E0,7.111649926E0
1.358277467E1,-7.451927270E0,3.547073042E-1,-4.791632429E0,8.866610324E0
1.359274167E1,-7.577253567E0,6.107346582E-1,-4.538138673E0,8.853387547E0
1.360270967E1,-7.365998928E0,8.712708002E-1,-3.757301495E0,8.314707905E0
1.361267667E1,-6.373964998E0,1.650978296E0,-2.865291206E0,7.180741802E0
1.362264367E1,-5.669447433E0,2.536965954E0,-2.249543583E0,6.606003086E0
1.363261067E1,-5.459587355E0,3.067654569E0,-1.645528545E0,6.474979755E0
1.364257767E1,-4.808293777E0,3.391530674E0,-1.071504607E0,5.980826990E0
1.365254467E1,-3.807257182E0,3.473687562E0,-7.427121627E-1,5.207046561E0
1.366251267E1,-2.555022156E0,3.447452860E0,-3.837498397E-1,4.308170537E0
1.367247967E1,-1.335048118E0,3.359372157E0,2.817779070E-1,3.625897621E0
1.368244667E1,-1.003582564E-1,3.212824561E0,9.083392239E-1,3.340268490E0
1.369241367E1,4.814217665E-1,2.912544894E0,1.654229933E0,3.383956464E0
1.370238067E1,4.835412360E-1,2.481727307E0,2.739993560E0,3.728316948E0
1.371234767E1,7.783300383E-1,2.037875692E0,4.029712163E0,4.582282739E0
1.372231467E1,1.356108766E0,1.778136526E0,5.445295005E0,5.886598184E0
1.373228267E1,1.630426210E0,1.161351169E0,5.951548106E0,6.279168020E0
1.374224967E1,1.490679218E0,-1.430959851E-1,5.936907848E0,6.122864998E0
1.375221667E1,2.054231232E0,-1.348123516E0,5.328472314E0,5.867701439E0
1.376218367E1,2.783585138E0,-2.493587215E0,4.168737901E0,5.598633682E0
1.377215067E1,3.383562673E0,-3.524495189E0,3.083115776E0,5.777210883E0
1.378211767E1,4.122543728E0,-3.965783969E0,2.052970718E0,6.077622730E0
1.379208567E1,4.925271127E0,-4.016948860E0,9.591503584E-1,6.427607894E0
1.380205267E1,5.642172511E0,-3.871698176E0,2.282026474E-1,6.846622076E0
1.381201967E1,6.152275418E0,-3.544217847E0,-1.762257242E-1,7.102325568E0
1.382198667E1,6.566970477E0,-3.201689708E0,-4.849164645E-1,7.321957540E0
1.383195367E1,7.151989666E0,-3.018340906E0,-7.307224470E-1,7.797133659E0
1.384192121E1,7.607151550E0,-2.733148225E0,-8.980742906E-1,8.132981701E0
1.385188821E1,8.132725605E0,-2.196688408E0,-2.215937442E0,8.710743050E0
1.386185621E1,9.367672754E0,-1.279921008E0,-5.709058810E0,1.104467488E1
1.387182321E1,1.002406773E1,-5.849162775E-1,-7.239247665E0,1.237864160E1
1.388179021E1,1.093779458E1,-1.932218260E-1,-4.498668798E0,1.182838560E1
1.389175721E1,1.083735930E1,-1.504283935E-1,-6.154199591E-1,1.085586141E1
1.390172421E1,1.128186112E1,-4.917385572E-1,1.359393439E0,1.137409987E1
1.391169121E1,1.243167749E1,-7.516537249E-1,1.598224132E0,1.255650863E1
1.392165821E1,1.350304060E1,-5.801373482E-1,1.424816766E0,1.359039247E1
1.393162621E1,1.374910079E1,4.547145724E-1,1.024691214E0,1.379472833E1
1.394159321E1,1.339937531E1,1.925888064E0,8.511750895E-1,1.356380487E1
1.395156021E1,1.314095995E1,3.332035840E0,8.958847276E-1,1.358638660E1
1.396152721E1,1.285477032E1,4.338992448E0,9.988827735E-1,1.360403404E1
1.397149421E1,1.162108617E1,5.065810710E0,7.067834345E-1,1.269691399E1
1.398146121E1,9.482573465E0,5.177598948E0,4.430055231E-1,1.081309319E1
1.399142921E1,7.801321210E0,4.127597476E0,5.498633891E-1,8.843077705E0
1.400139621E1,7.067745321E0,1.381729218E0,8.829329988E-1,7.255464854E0
1.401136321E1,6.273854819E0,-2.326879004E0,1.507777061E0,6.859228226E0
1.402133021E1,4.540720219E0,-6.944176698E0,2.440285167E0,8.648394175E0
1.403129721E1,2.467282638E0,-1.189664907E1,3.656507192E0,1.268809630E1
1.404126421E1,8.116711544E-1,-1.682687162E1,5.977927235E0,1.787562678E1
1.405123121E1,-9.451027152E-1,-2.110113247E1,8.063579357E0,2.260912034E1
1.406119921E1,-2.325664829E0,-2.268658862E1,8.965799469E0,2.450460325E1
1.407116621E1,-2.712080999E0,-2.104826896E1,9.928958094E0,2.343009216E1
1.408113321E1,-3.597433941E0,-1.639534945E1,9.761552895E0,1.941743879E1
1.409110021E1,-4.627593764E0,-1.072128388E1,7.919276506E0,1.410941149E1
1.410106721E1,-6.293821306E0,-5.790588877E0,4.332065837E0,9.586965140E0
1.411103421E1,-7.581713823E0,-2.498892394E0,5.154671431E-1,7.999534616E0
1.412100221E1,-7.470414997E0,-1.648809564E-1,-2.099423630E0,7.761563343E0
1.413096921E1,-7.575820999E0,1.626167391E0,-3.790312243E0,8.625772493E0
1.414093621E1,-7.820649181E0,3.109277973E0,-4.600899470E0,9.591581677E0
1.415090321E1,-8.125353436E0,4.459453862E0,-4.638428654E0,1.036451241E1
1.416087021E1,-8.711655504E0,5.899319022E0,-5.236244767E0,1.175215579E1
1.417083721E1,-9.509129764E0,7.845287009E0,-9.862562960E0,1.578740717E1
1.418080421E1,-1.220159774E1,8.371016015E0,-1.888269768E1,2.398977216E1
1.419077221E1,-1.322549198E1,7.148609975E0,-1.502822014E1,2.125708501E1
1.420073921E1,-1.302571484E1,6.083720323E0,-9.569798720E0,1.727026194E1
1.421070621E1,-1.220446755E1,5.880214999E0,-6.614127102E0,1.507556414E1
1.422067321E1,-1.101172210E1,6.280490239E0,-5.008869939E0,1.363053041E1
1.423064021E1,-9.655296122E0,6.758970820E0,-4.184582393E0,1.250676455E1
1.424060721E1,-8.625310839E0,7.191654253E0,-3.769930311E0,1.184602265E1
1.425057521E1,-7.898400192E0,7.414929013E0,-4.250472035E0,1.163754314E1
1.426054221E1,-7.767350056E0,6.819377820E0,-4.258984412E0,1.117920341E1
1.427050921E1,-8.160312184E0,5.425688122E0,-2.442084355E0,1.009913672E1
1.428047621E1,-7.721822466E0,3.059985945E0,-2.494076627E0,8.672397269E0
1.429044321E1,-8.202006340E0,1.447254871E0,-1.873592467E0,8.536849735E0
1.430041021E1,-7.873008074E0,1.229433809E0,-2.272766531E0,8.286207294E0
1.431037721E1,-6.479091504E0,5.847911471E-1,-3.241384116E0,7.268230761E0
1.432034521E1,-5.369936675E0,3.960143745E-1,3.852774248E-2,5.384657061E0
1.433031221E1,-2.176016747E0,-2.691083356E0,2.811257671E0,4.458715981E0
1.434027921E1,6.921003013E0,-8.191277284E0,7.527653975E0,1.310201819E1
1.435024621E1,2.085482436E1,-1.494369981E1,1.136481089E1,2.806059140E1
1.436021321E1,2.423538507E1,-2.046912330E1,9.513467814E0,3.311864985E1
1.437018021E1,1.657495252E1,-1.874188971E1,4.686622868E0,2.545489963E1
1.438014821E1,6.836433563E0,-1.145892885E1,6.790218779E-1,1.336057427E1
1.439011521E1,1.018775586E0,-3.752121447E0,-7.166096073E-1,3.953460304E0
1.440008221E1,-1.538525522E0,1.163978323E0,-5.060203084E-1,1.994483109E0
1.441004921E1,-1.366914128E0,3.898313532E0,-8.864233480E-1,4.225050175E0
1.442001621E1,3.169333556E0,4.360117269E0,-2.433252136E0,5.914052227E0
1.442998321E1,7.439736410E0,1.771101741E0,-1.901777655E0,7.880560734E0
1.443995021E1,5.572318164E0,-1.659967806E0,-4.543871284E-1,5.832039995E0
1.444991821E1,2.600148920E0,-3.517430583E0,-2.286707170E-1,4.380112168E0
1.445988521E1,1.299214773E0,-3.128301889E0,-6.589300409E-2,3.388004372E0
1.446985221E1,2.349382013E-1,-2.233662692E0,-7.290372795E-1,2.361342909E0
1.447981921E1,-1.299229683E0,-1.639244104E0,-1.040091611E0,2.336002903E0
1.448978621E1,-2.957600322E0,-1.869396944E0,-1.066198844E0,3.657707557E0
1.449975321E1,-4.159498131E0,-3.198415267E0,-1.002589616E0,5.341953843E0
1.450972121E1,-4.584794192E0,-4.747237444E0,-1.561349836E0,6.781918198E0
1.451968821E1,-4.608416943E0,-5.459275698E0,-2.360183867E0,7.524072418E0
1.452965521E1,-5.434743120E0,-4.995360532E0,-3.405943768E0,8.129607160E0
1.453962221E1,-8.398189196E0,-4.329983643E0,-9.383828611E0,1.331670303E1
1.454958921E1,-9.471401190E0,-3.342925109E0,-1.450089134E1,1.763968362E1
1.455955621E1,-6.634002373E0,-1.074282619E0,-8.173086011E0,1.058127618E1
1.456952321E1,-5.477272843E0,6.484421825E-1,-3.701177580E0,6.642266973E0
1.457949121E1,-5.806294498E0,1.523108461E0,-2.075107546E0,6.351298018E0
1.458945821E1,-6.037352487E0,2.225187153E0,-1.522372004E0,6.612011754E0
1.459942521E1,-5.790905212E0,3.223733127E0,-1.612897427E0,6.821178531E0
1.460939221E1,-5.312474917E0,4.352418240E0,-1.376488359E0,7.004331123E0
1.461935921E1,-5.450524170E0,5.096926083E0,-1.068317875E0,7.538446279E0
1.462932621E1,-5.506039975E0,5.454027237E0,-1.007394419E0,7.815224426E0
1.463929421E1,-4.982099047E0,5.496075150E0,-7.114856923E-1,7.452138274E0
1.464926121E1,-4.143306021E0,5.245810227E0,-6.281429887E-2,6.685017229E0
1.465922821E1,-4.171198117E0,4.627565405E0,7.240612990E-1,6.271963016E0
1.466919521E1,-3.970688614E0,3.640240822E0,1.613020365E0,5.623126889E0
1.467916221E1,-2.922608829E0,2.736787532E0,2.758971868E0,4.862465849E0
1.468912921E1,-1.392645385E0,2.001474436E0,3.237463558E0,4.052965751E0
1.469909721E1,-9.035240052E-2,1.472046481E0,3.059839765E0,3.396719562E0
1.470906421E1,5.106260139E-1,9.140478605E-1,2.774362324E0,2.965351366E0
1.471903121E1,6.069446758E-1,2.868176222E-2,2.686777466E0,2.754628402E0
1.472899821E1,4.966569792E-1,-1.050339441E0,2.691569844E0,2.931625713E0
1.473896521E1,5.436016424E-1,-2.136904137E0,3.052043672E0,3.765213488E0
1.474893221E1,9.411352332E-1,-3.152745005E0,3.705997440E0,4.955799998E0
1.475889921E1,1.766665020E0,-3.854051279E0,4.401771079E0,6.111497786E0
1.476886721E1,2.809289790E0,-4.082596135E0,4.625219502E0,6.778816694E0
1.477883421E1,3.877463531E0,-3.936354348E0,4.275120388E0,6.986147960E0
1.478880121E1,4.923026381E0,-3.427610918E0,3.491882343E0,6.941033616E0
1.479876821E1,5.821653965E0,-2.843439576E0,2.943100104E0,7.116083314E0
1.480873521E1,6.712253321E0,-2.585745766E0,2.868907124E0,7.744098004E0
1.481870221E1,7.529707518E0,-2.347034356E0,2.563666095E0,8.293217073E0
1.482867021E1,8.125310751E0,-2.036281157E0,2.281139744E0,8.681630854E0
1.483863667E1,8.467632483E0,-1.928440374E0,2.053073629E0,8.923832891E0
1.484860367E1,8.788766829E0,-1.835689500E0,1.850369520E0,9.167117632E0
1.485857067E1,9.203509251E0,-1.927225907E0,1.533396052E0,9.527333608E0
1.486853767E1,9.895631304E0,-2.246061713E0,1.152258164E0,1.021254185E1
1.487850467E1,1.074478618E1,-2.491623720E0,7.364819545E-1,1.105445722E1
1.488847167E1,1.170967850E1,-2.610091233E0,4.985213274E-1,1.200740065E1
1.489843967E1,1.323466275E1,-2.207715672E0,1.161183938E-2,1.341754230E1
1.490840667E1,1.536395089E1,-1.224257269E0,-9.658886898E-1,1.544288619E1
1.491837367E1,1.624778326E1,1.286364055E-1,-3.172044325E0,1.655502563E1
1.492834067E1,1.597202273E1,1.726530170E0,-5.924390128E0,1.712264042E1
1.493830767E1,1.520657191E1,3.718523930E0,-7.506229777E0,1.736118472E1
1.494827467E1,1.292435570E1,5.113438620E0,-6.441632486E0,1.531929678E1
1.495824167E1,1.033733114E1,5.454005018E0,-4.850767660E0,1.265450642E1
1.496820967E1,8.349978903E0,5.237663301E0,-3.721220666E0,1.053578416E1
1.497817667E1,6.842633366E0,4.174267613E0,-2.685318586E0,8.453228814E0
1.498814367E1,5.704913719E0,2.096382347E0,-1.967079944E0,6.388291086E0
1.499811067E1,5.365795677E0,-4.834682554E-1,-1.546593364E0,5.605127637E0
1.500807767E1,5.041845312E0,-3.353048978E0,-1.402852431E0,6.215395123E0
1.501804467E1,3.875077282E0,-7.250434558E0,-1.233443976E0,8.313026480E0
1.502801267E1,1.932771699E0,-1.266566786E1,-1.462494762E0,1.289548912E1
1.503797967E1,-7.342325306E-1,-1.877854474E1,-2.515032463E0,1.896043850E1
1.504794667E1,-3.147414391E0,-2.345516770E1,-2.563317016E-1,2.366678717E1
1.505791367E1,-3.981704476E0,-2.291553284E1,4.570982484E0,2.370378655E1
1.506788067E1,-4.685316892E0,-1.912742588E1,6.890058378E0,2.086344937E1
1.507784767E1,-4.334240416E0,-1.410899223E1,5.547224253E0,1.576772015E1
1.508781467E1,-4.457413768E0,-8.734835621E0,3.310345008E0,1.035008574E1
1.509778267E1,-4.631332181E0,-4.273485507E0,9.225687155E-1,6.368912716E0
1.510774967E1,-4.678345841E0,-9.967233968E-1,-1.304103922E0,4.957929445E0
1.511771667E1,-4.843166864E0,1.558161349E0,-2.901541604E0,5.856882767E0
1.512768367E1,-4.378352981E0,3.449136273E0,-4.189168657E0,6.972492373E0
1.513765067E1,-3.968842063E0,4.833207301E0,-6.001044202E0,8.667417819E0
1.514761767E1,-5.016964239E0,5.590506513E0,-7.947992182E0,1.093591665E1
1.515758567E1,-5.940065344E0,6.235949074E0,-1.084823512E1,1.385119642E1
1.516755267E1,-6.179855565E0,7.667353313E0,-1.549890346E1,1.836286824E1
1.517751967E1,-7.315921619E0,7.639410054E0,-1.631786916E1,1.944623740E1
1.518748667E1,-7.843729311E0,6.044407153E0,-1.184121981E1,1.543610812E1
1.519745367E1,-7.970533783E0,4.745187995E0,-7.004491897E0,1.162364507E1
1.520742067E1,-8.397139036E0,4.188855246E0,-3.954470192E0,1.018313737E1
1.521738867E1,-8.677196108E0,4.363167177E0,-2.466178099E0,1.002062845E1
1.522735567E1,-8.457710928E0,4.946582474E0,-2.250234286E0,1.005311428E1
1.523732267E1,-7.893614831E0,5.871619007E0,-2.497659216E0,1.015004268E1
1.524728967E1,-8.034446189E0,6.270331287E0,-2.404680886E0,1.047147889E1
1.525725667E1,-9.123723993E0,5.546325536E0,-1.715570441E0,1.081421511E1
1.526722367E1,-7.618343121E0,4.731042995E0,-1.751728746E0,9.137312150E0
1.527719167E1,-6.742897993E0,3.584536153E0,-1.715151196E0,7.826705335E0
1.528715867E1,-6.884047440E0,2.481743680E0,-1.138032765E0,7.405692366E0
1.529712567E1,-6.669384459E0,1.746292589E0,-7.579789504E-1,6.935759437E0
1.530709267E1,-5.579157652E0,7.125896466E-1,-1.837195158E-2,5.624510791E0
1.531705967E1,-3.152348564E0,-1.468393725E0,7.719497028E-1,3.562216718E0
1.532702667E1,2.246158484E0,-6.775356472E0,3.778672776E0,8.076450409E0
1.533699367E1,1.279275124E1,-1.301567049E1,6.559076736E0,1.939287628E1
1.534696167E1,2.169727715E1,-1.805158497E1,7.095939426E0,2.910298803E1
1.535692867E1,2.114388263E1,-1.858309571E1,2.158926505E0,2.823218345E1
1.536689567E1,1.021171073E1,-1.317513927E1,-2.931079983E0,1.692496856E1
1.537686267E1,-1.639837304E0,-4.692118666E0,-2.634078850E0,5.625248025E0
1.538682967E1,-3.553679811E0,4.350544792E-1,-1.291247795E0,3.805947119E0
1.539679667E1,-1.548325163E-1,2.907157854E0,-2.766804214E0,4.016309930E0
1.540676367E1,2.517575125E0,3.568613015E0,-2.258543179E0,4.916726620E0
1.541673167E1,4.224194064E0,1.857408398E0,-9.524729843E-1,4.711792252E0
1.542669867E1,4.163090952E0,-1.520008267E0,5.034847364E-2,4.432187539E0
1.543666567E1,2.068991943E0,-4.931796620E0,8.460627227E-1,5.414717693E0
1.544663267E1,5.537196279E-1,-5.978309058E0,4.529355571E-1,6.020958000E0
1.545659967E1,-1.470837861E-1,-3.955797510E0,-9.585153508E-1,4.072925147E0
1.546656667E1,-1.562640316E0,-1.729553765E0,-1.517849037E0,2.781558319E0
1.547653467E1,-3.303498504E0,-5.890350562E-1,-1.538851504E0,3.691629534E0
1.548650167E1,-4.545910792E0,-8.379855251E-1,-1.381471941E0,4.824519603E0
1.549646867E1,-5.236849369E0,-2.098709539E0,-8.853386164E-1,5.710779063E0
1.550643567E1,-5.017741334E0,-3.207174981E0,-7.899746221E-1,6.007308829E0
1.551640267E1,-4.310627605E0,-3.308820055E0,-1.236918245E0,5.573129036E0
1.552636967E1,-3.859797338E0,-2.489170813E0,-2.245461203E0,5.112348075E0
1.553633767E1,-4.486082082E0,-1.605485204E0,-3.121238453E0,5.696020072E0
1.554630467E1,-6.428092089E0,-5.991337824E-1,-3.626697502E0,7.404881090E0
1.555627167E1,-7.264169667E0,1.983100730E-1,-3.758008716E0,8.181082896E0
1.556623867E1,-6.253153921E0,5.394261092E-1,-3.933131363E0,7.406918172E0
1.557620567E1,-6.323719289E0,9.169486642E-1,-3.392462136E0,7.234571158E0
1.558617267E1,-6.723134404E0,1.584246948E0,-3.246363898E0,7.632119834E0
1.559614067E1,-6.889590601E0,2.558908215E0,-3.116760655E0,7.983023668E0
1.560610767E1,-6.858186375E0,3.574044494E0,-3.034524537E0,8.307638266E0
1.561607467E1,-7.091549921E0,4.095158878E0,-2.383462510E0,8.528851039E0
1.562604167E1,-6.846498960E0,4.221059371E0,-1.489128537E0,8.179816259E0
1.563600867E1,-6.305611632E0,4.324389612E0,-1.185545778E0,7.737351120E0
1.564597567E1,-5.622103112E0,4.029245555E0,-7.043367402E-1,6.952622051E0
1.565594267E1,-5.323558899E0,3.353554178E0,1.001831086E0,6.371049403E0
1.566591067E1,-3.849333453E0,2.653308588E0,2.195948882E0,5.165230488E0
1.567587767E1,-1.778031130E0,2.284829337E0,2.378045210E0,3.746590293E0
1.568584467E1,-3.486845259E-1,2.369136831E0,2.456445701E0,3.430527030E0
1.569581167E1,3.809807811E-1,2.504233240E0,2.370665293E0,3.469349278E0
1.570577867E1,6.845557559E-1,2.169084873E0,2.174004135E0,3.146401079E0
1.571574567E1,7.776598012E-1,1.294051389E0,2.130191533E0,2.610946137E0
1.572571367E1,6.259428276E-1,-1.268763936E-1,2.509593968E0,2.589587598E0
1.573568067E1,7.369921240E-1,-1.702967060E0,3.075913761E0,3.592283349E0
1.574564767E1,1.214292298E0,-3.253545740E0,3.752960522E0,5.113196490E0
1.575561467E1,1.904491640E0,-4.637065961E0,4.507868223E0,6.741687107E0
1.576558167E1,3.113222505E0,-5.434927892E0,4.643789089E0,7.797138748E0
1.577554867E1,4.559118191E0,-5.405245671E0,3.988243709E0,8.118394381E0
1.578551567E1,5.491324287E0,-4.773669782E0,3.093455992E0,7.906455311E0
1.579548367E1,6.452411243E0,-3.987864810E0,2.526377231E0,7.994952064E0
1.580545067E1,7.361967273E0,-3.396463970E0,2.161463612E0,8.390855413E0
1.581541767E1,7.977710656E0,-3.014182951E0,2.012315612E0,8.762338746E0
1.582538467E1,8.532662292E0,-2.613065711E0,1.968507834E0,9.138351126E0
1.583535158E1,9.094002596E0,-2.216630922E0,1.819106358E0,9.535380632E0
1.584531858E1,9.624079592E0,-1.997659128E0,1.494809691E0,9.942233451E0
1.585528658E1,1.035171529E1,-2.035260817E0,1.214046715E0,1.061952002E1
1.586525358E1,1.103764398E1,-2.189979313E0,1.022626416E0,1.129917513E1
1.587522058E1,1.181062016E1,-2.354300691E0,9.657454330E-1,1.208164494E1
1.588518758E1,1.313631142E1,-2.333423207E0,1.019884218E0,1.338087087E1
1.589515458E1,1.496134203E1,-1.852166954E0,7.015354854E-1,1.509186634E1
1.590512158E1,1.575670018E1,-9.577990669E-1,-2.992778926E-1,1.578862080E1
1.591508958E1,1.602828931E1,3.425334013E-1,-1.152746552E0,1.607333855E1
1.592505658E1,1.632512322E1,1.905965431E0,-2.947479961E0,1.669820321E1
1.593502358E1,1.603849855E1,3.439995321E0,-4.202868683E0,1.693313641E1
1.594499058E1,1.477909601E1,4.882020442E0,-5.058704004E0,1.636601016E1
1.595495758E1,1.132778282E1,5.949201034E0,-5.059571730E0,1.375903058E1
1.596492458E1,7.449325259E0,6.147470176E0,-4.550893790E0,1.067681931E1
1.597489158E1,5.210540991E0,5.173437485E0,-4.255043389E0,8.486435475E0
1.598485958E1,4.483236827E0,3.278381204E0,-4.110953085E0,6.909929886E0
1.599482658E1,5.026668863E0,9.068411672E-1,-3.941720923E0,6.451893102E0
1.600479358E1,5.892321074E0,-1.562280128E0,-3.161258259E0,6.866856676E0
1.601476058E1,5.618200096E0,-4.378461154E0,-2.089945148E0,7.423137148E0
1.602472758E1,3.784955024E0,-9.187520624E0,-1.377404033E0,1.003163305E1
1.603469458E1,1.152444251E0,-1.513385711E1,-8.127267230E-1,1.519941721E1
1.604466258E1,-1.536227712E0,-2.043680457E1,5.199797317E-1,2.050105743E1
1.605462958E1,-3.494159834E0,-2.290818874E1,4.317414469E0,2.357189708E1
1.606459658E1,-4.447830474E0,-2.185003449E1,7.672270821E0,2.358115652E1
1.607456358E1,-5.448648384E0,-1.793987275E1,5.672729475E0,1.958843187E1
1.608453058E1,-5.192967185E0,-1.236721895E1,4.605143087E0,1.418176138E1
1.609449758E1,-4.651847722E0,-7.257235454E0,2.593680145E0,9.001907040E0
1.610446558E1,-4.620966237E0,-3.110290126E0,6.171011066E-1,5.604288305E0
1.611443258E1,-4.974626305E0,-8.206333280E-2,-1.208866813E0,5.120058617E0
1.612439958E1,-5.006387211E0,2.205705984E0,-3.078326614E0,6.277351873E0
1.613436658E1,-4.914860744E0,3.690836195E0,-4.207526575E0,7.448584284E0
1.614433358E1,-4.332121970E0,4.920879284E0,-5.530556180E0,8.577259781E0
1.615430058E1,-4.470718523E0,6.054210010E0,-8.424040321E0,1.129624886E1
1.616426758E1,-5.512022261E0,7.776573454E0,-1.476281151E1,1.757265170E1
1.617423558E1,-8.433117539E0,7.496605845E0,-2.022325256E1,2.315807666E1
1.618420258E1,-1.015232407E1,5.695724820E0,-1.663636934E1,2.030467311E1
1.619416958E1,-9.984436476E0,4.326946015E0,-9.370682901E0,1.436040151E1
1.620413658E1,-9.093437755E0,4.328045876E0,-5.163534640E0,1.131745030E1
1.621410358E1,-8.167911810E0,4.992101294E0,-2.959869042E0,1.001981454E1
1.622407058E1,-7.901809119E0,5.646537457E0,-2.337446384E0,9.989275660E0
1.623403858E1,-8.166030761E0,5.731623216E0,-2.256039401E0,1.022864981E1
1.624400558E1,-7.838867351E0,5.889434888E0,-1.875554062E0,9.982534132E0
1.625397258E1,-7.625050462E0,5.683426371E0,-1.357904738E0,9.606593316E0
1.626393958E1,-7.607195989E0,4.875956295E0,-1.484628812E0,9.156882838E0
1.627390658E1,-6.865093106E0,3.820229815E0,-2.588661187E0,8.271930001E0
1.628387358E1,-5.652701007E0,2.834807332E0,-3.219043367E0,7.095872144E0
1.629384058E1,-5.693328046E0,2.605940294E0,-1.536870468E0,6.447238160E0
1.630380858E1,-5.252640944E0,1.328349987E0,-1.979317582E-1,5.421616692E0
1.631377558E1,-2.191183839E0,-1.895504762E0,9.596102419E-1,3.052061064E0
1.632374258E1,4.581952737E0,-7.169179895E0,3.163788933E0,9.077499197E0
1.633370958E1,1.287202428E1,-1.365863851E1,5.877746304E0,1.966711257E1
1.634367658E1,1.955703017E1,-1.970745564E1,6.424450443E0,2.849797888E1
1.635364358E1,1.807279399E1,-2.054214567E1,2.498780127E0,2.747452517E1
1.636361158E1,7.472174424E0,-1.479395378E1,-3.537929459E-1,1.657768466E1
1.637357858E1,8.072920284E-1,-7.446489360E0,-4.244593245E-1,7.502139023E0
1.638354558E1,1.565874119E0,-2.838755956E0,-5.432589591E-1,3.287191420E0
1.639351258E1,6.770837159E0,-9.179122853E-1,-1.932445716E0,7.100784833E0
1.640347958E1,9.138381793E0,-9.004232633E-1,-1.644942800E0,9.328805962E0
1.641344658E1,4.774510904E0,-1.217213713E0,-1.387837366E0,5.118950689E0
1.642341458E1,3.512434137E-1,-7.649093628E-1,-8.741058227E-1,1.213474045E0
1.643338158E1,-2.005692325E0,2.962684768E-1,-6.979569894E-1,2.144229622E0
1.644334858E1,-3.110608215E0,1.424233798E0,-7.196387574E-1,3.496027076E0
1.645331558E1,-4.149071668E0,2.160107642E0,-7.144420445E-1,4.731943382E0
1.646328258E1,-5.315165806E0,2.111689773E0,-8.154836851E-1,5.777130333E0
1.647324958E1,-5.831488397E0,7.088655549E-1,-4.618803352E-1,5.892544505E0
1.648321758E1,-6.517162725E0,-1.676436489E0,-3.227478853E-1,6.737062823E0
1.649318458E1,-6.914588617E0,-3.870090777E0,-8.428416377E-1,7.968658632E0
