"Time (s)","Linear Acceleration x (m/s^2)","Linear Acceleration y (m/s^2)","Linear Acceleration z (m/s^2)","Absolute acceleration (m/s^2)"
-2.539958339E-3,-3.635126263E-1,-2.234302962E-1,-8.610633159E-1,9.609852031E-1
7.428041659E-3,-4.132051885E-1,-1.331829080E-1,-1.226476287E0,1.301045848E0
1.739504165E-2,-3.861797963E-1,-1.208561003E-1,-1.486952788E0,1.541028755E0
2.736304165E-2,-4.264644809E-1,-1.704077446E-1,-1.826527498E0,1.883378202E0
3.733104165E-2,-6.996567750E-1,-2.726352006E-1,-2.086048563E0,2.217081001E0
4.729804164E-2,-1.033399618E0,-3.866100052E-1,-2.221559540E0,2.480465452E0
5.726604164E-2,-1.156629396E0,-4.032769087E-1,-2.266410023E0,2.576244984E0
6.723404163E-2,-9.377464794E-1,-3.907369700E-1,-2.019739383E0,2.260838565E0
7.720104163E-2,-4.567948656E-1,-3.922502294E-1,-1.400338567E0,1.524293244E0
8.716904162E-2,4.852370381E-2,-4.151833016E-1,-5.499084127E-1,6.907466874E-1
9.713604167E-2,5.286811195E-1,-3.647671464E-1,3.610193735E-1,7.368132635E-1
1.071040417E-1,1.000349109E0,-3.526593170E-1,8.550254810E-1,1.362400641E0
1.170720417E-1,6.387511535E-1,-5.227206141E-1,7.887256569E-1,1.141633934E0
1.270390417E-1,3.887117869E-1,-6.084866962E-1,1.755275667E-1,7.430766040E-1
1.370070417E-1,8.235028490E-2,-6.186976889E-1,-1.284563112E-1,6.372357676E-1
1.469740417E-1,-6.175868641E-1,-4.166272715E-1,-2.538288009E-1,7.870329588E-1
1.569420416E-1,-1.218727265E0,-1.370677981E-1,-7.553257763E-2,1.228734673E0
1.669100416E-1,-1.313865703E0,-9.979939967E-2,5.213313156E-1,1.417035407E0
1.768770416E-1,-8.774157853E-1,-1.901706026E-1,1.105209712E0,1.423907240E0
1.868450416E-1,-5.807670933E-1,-2.833749278E-1,1.643668692E0,1.766136613E0
1.968120416E-1,-4.809750026E-1,-2.936002462E-1,2.005217239E0,2.082890835E0
2.067800416E-1,-2.320154706E-1,-4.063260855E-1,1.978639305E0,2.033210654E0
2.167480416E-1,-2.404413083E-1,-6.323532763E-1,2.176466398E0,2.279185966E0
2.267150417E-1,-3.025442934E-1,-8.059220257E-1,2.502708287E0,2.646619000E0
2.366830417E-1,-3.900165930E-1,-1.043088893E0,2.574875792E0,2.805375683E0
2.466498333E-1,-4.691291285E-1,-1.195320714E0,3.052272298E0,3.311380367E0
2.566178333E-1,-5.209240571E-1,-1.513047888E0,3.569395373E0,3.911682389E0
2.665858333E-1,-1.745662844E-1,-1.850314556E0,3.538099321E0,3.996534016E0
2.765528333E-1,6.579991642E-1,-1.934738117E0,3.579866567E0,4.122089169E0
2.865208333E-1,1.100918733E0,-1.915950136E0,3.292184141E0,3.965017453E0
2.964878333E-1,1.386773027E0,-1.959052740E0,3.004134511E0,3.845237473E0
3.064558333E-1,1.569185982E0,-2.069251705E0,2.449928395E0,3.570195569E0
3.164238333E-1,1.344104286E0,-1.943872491E0,1.976614999E0,3.080951711E0
3.263908333E-1,8.731556502E-1,-1.932826662E0,1.577305718E0,2.643125616E0
3.363588333E-1,7.551727255E-1,-1.998973289E0,8.783833534E-1,2.310354382E0
3.463268333E-1,1.097915676E0,-1.581136083E0,1.989316320E-1,1.935196098E0
3.562938333E-1,2.033112697E0,6.267826340E-1,-4.637268859E-1,2.177486241E0
3.662618333E-1,2.680470367E0,2.229255061E0,-1.242766630E0,3.701211749E0
3.762288333E-1,2.804327843E0,2.607778951E0,-2.119049664E0,4.376658221E0
3.861968333E-1,2.200842855E0,2.488605972E0,-5.459834107E0,6.391138978E0
3.961648333E-1,1.773672469E0,2.621388638E0,-8.014225348E0,8.616577067E0
4.061318333E-1,1.836526237E0,2.454518459E0,-7.063108479E0,7.699674725E0
4.160998333E-1,9.749830104E-1,1.358289193E0,-6.050195897E0,6.276974732E0
4.260668333E-1,1.250211451E-2,4.400763604E-1,-2.959487511E0,2.992054450E0
4.360348333E-1,-6.731779513E-1,-3.370978296E-2,6.748142946E-1,9.537710604E-1
4.460028333E-1,-2.642443000E-1,-4.175569788E-1,2.308982431E0,2.361266344E0
4.559698333E-1,1.670396022E-1,-8.855499932E-1,2.244784681E0,2.418916965E0
4.659378333E-1,-3.524705250E-1,-9.645409065E-1,1.279120524E0,1.640342631E0
4.759048333E-1,-1.567711899E0,-8.535633847E-1,2.287407374E-1,1.799614785E0
4.858728333E-1,-2.308259130E0,-7.921646968E-1,-4.082835871E-1,2.474324273E0
4.958408333E-1,-2.410876011E0,-7.046567291E-1,-1.656042570E-1,2.517198644E0
5.058078333E-1,-2.326585766E0,-2.071133485E-1,4.223011172E-1,2.373654461E0
5.157758333E-1,-2.438522816E0,5.093114868E-1,8.926178151E-1,2.646234736E0
5.257438333E-1,-2.667100708E0,1.513451492E0,7.025189871E-1,3.146028374E0
5.357108333E-1,-1.148784041E0,2.018938315E0,-8.560136604E-1,2.475596106E0
5.456788333E-1,-1.825413311E0,1.406361491E0,1.007034962E0,2.514777488E0
5.556458333E-1,-3.725291498E0,4.821397680E-1,4.201125044E0,5.635575138E0
5.656138333E-1,-1.460409791E0,1.282253462E-1,8.933761990E-1,1.716787561E0
5.755818333E-1,-1.026280633E0,-2.145340499E-1,7.109500873E-1,1.266778127E0
5.855488333E-1,-5.436109614E-1,-4.827645430E-1,-9.969853520E-1,1.233918260E0
5.955168333E-1,-5.572443295E-1,-2.445475155E-1,-8.659083188E-1,1.058358137E0
6.054838333E-1,1.071090040E-1,-6.576012611E-2,2.003291166E-1,2.364920461E-1
6.154518333E-1,1.148177392E0,-9.696320772E-2,1.170507324E-1,1.158194310E0
6.254198333E-1,2.374104918E0,-2.395893690E-1,-1.032101390E0,2.599809706E0
6.353868333E-1,3.943163138E0,-2.617456385E-1,-2.303579019E0,4.574223717E0
6.453548333E-1,4.486075942E0,1.681635833E-1,-2.795024046E0,5.288224255E0
6.553218333E-1,3.993498310E0,9.817451692E-1,-1.949577473E0,4.551121252E0
6.652898333E-1,3.909858567E0,1.291467505E0,-1.412780857E-1,4.120053620E0
6.752578333E-1,4.223965145E0,1.046552199E0,-5.581839770E-1,4.387336596E0
6.852248333E-1,4.885539882E0,5.833848917E-1,-2.475695904E0,5.507985846E0
6.951928333E-1,5.127898200E0,9.229897150E-1,-4.388906035E0,6.812469901E0
7.051608333E-1,4.694657819E0,1.233999900E0,-6.054638611E0,7.760233018E0
7.151278333E-1,3.389368958E0,1.193583068E0,-7.005894644E0,7.873691779E0
7.250958333E-1,1.416365785E0,9.231990454E-1,-6.375680571E0,6.596036026E0
7.350628333E-1,-1.129819474E-1,5.700877386E-1,-4.807093636E0,4.842098117E0
7.450308333E-1,-3.687224954E-1,-5.424190065E-1,-3.164797871E0,3.232045826E0
7.549988333E-1,-1.492552374E0,-1.532183924E0,-1.162833438E0,2.434642021E0
7.649658333E-1,-2.402905963E0,-2.437695727E0,-1.580894154E-1,3.426559468E0
7.749338333E-1,-2.693004751E0,-3.026793641E0,-7.203535795E-2,4.052029544E0
7.849008333E-1,-3.735629960E0,-4.241430193E0,1.073233044E0,5.752954932E0
7.948688333E-1,-2.879476551E0,-4.460820941E0,2.962111157E0,6.079836443E0
8.048368333E-1,5.070880830E-1,-3.528702845E0,3.176924996E0,4.775116179E0
8.148038333E-1,8.292427683E-1,-2.473382454E0,2.602098089E0,3.684586652E0
8.247718333E-1,-1.348830444E0,-1.871851020E0,2.154201370E0,3.156541359E0
8.347388333E-1,-3.138774253E0,-2.136673756E0,1.508645958E0,4.085742426E0
8.447068333E-1,-4.962040173E0,-2.620734335E0,8.145493001E-2,5.612194405E0
8.546748333E-1,-6.339091035E0,-2.926281173E0,-2.628592408E-1,6.986865651E0
8.646418333E-1,-6.578062060E0,-2.436037749E0,2.548859775E-1,7.019269709E0
8.746098333E-1,-5.731541355E0,-1.824995527E0,1.445881068E0,6.186416332E0
8.845778333E-1,-4.265657839E0,-1.594714926E0,2.698268414E0,5.293354790E0
8.945448333E-1,-3.355458031E0,-1.045285838E0,3.164419556E0,4.729193611E0
9.045128333E-1,-2.228880254E0,3.400131782E-1,3.896610531E0,4.501898464E0
9.144798333E-1,-2.612859889E0,1.206122056E0,3.007146412E0,4.162294650E0
9.244478333E-1,-1.880137694E0,1.392252452E0,2.231040508E0,3.232773792E0
9.344158333E-1,-3.792305267E-1,1.578557461E0,2.533452362E0,3.008993240E0
9.443828333E-1,-1.099603987E-1,1.793260203E0,1.695170675E0,2.470116812E0
9.543508333E-1,1.531850048E0,2.307086179E0,-6.138406992E-2,2.770014298E0
9.643178333E-1,3.521794360E0,2.924273239E0,-4.564628899E-1,4.600300845E0
9.742858333E-1,6.167478763E0,3.749499263E0,-3.988830185E-1,7.228806726E0
9.842538333E-1,5.074271046E0,3.809071865E0,-5.150125220E-1,6.365728004E0
9.942208333E-1,2.512780116E0,3.409982440E0,-2.475533352E0,4.906150174E0
1.004188833E0,3.683257619E0,3.063394287E0,-3.283291696E0,5.807820211E0
1.014155833E0,4.774836887E0,2.450943179E0,-3.141073962E0,6.218724580E0
1.024123833E0,4.311767812E0,1.691093996E0,-3.155545236E0,5.604338169E0
1.034091833E0,3.730081537E0,8.068583111E-1,-3.055211109E0,4.888644344E0
1.044058833E0,4.310142871E0,-1.093830738E0,-7.295952500E-1,4.506229741E0
1.054026833E0,6.218831350E0,-3.057487430E0,2.814254369E0,7.479446530E0
1.063994833E0,3.329322147E0,-3.761613232E0,5.453247803E0,7.414312623E0
1.073961833E0,1.975395854E0,-1.060244332E0,2.337822068E0,3.239092287E0
1.083929833E0,1.600874675E0,-1.988459703E-1,1.260338975E0,2.047142832E0
1.093896833E0,8.720730382E-1,-8.536700964E-1,-5.829597992E-1,1.352444507E0
1.103864833E0,4.321677089E-1,-1.287995282E0,-1.932289011E0,2.362084164E0
1.113832833E0,3.387876749E-2,-1.184453664E0,-2.438776146E0,2.711403206E0
1.123799833E0,-3.850789118E-1,-1.150892254E0,-2.747129210E0,3.003257839E0
1.133767833E0,-6.235108244E-1,-1.051234503E0,-2.091462062E0,2.422410635E0
1.143734833E0,-1.742446876E-1,-7.412379335E-1,-9.983408828E-1,1.255579310E0
1.153702833E0,2.923122507E-1,-1.657688561E-1,1.621226786E-1,3.731079314E-1
1.163670833E0,1.003182231E0,7.929508549E-1,5.614418994E-1,1.396553849E0
1.173637833E0,1.262952388E0,1.586531455E0,4.584714085E-1,2.079020641E0
1.183605833E0,2.050650689E0,1.918505954E0,9.306463516E-1,2.958367113E0
1.193573833E0,2.031388791E0,2.039716396E0,1.560569233E-1,2.882938979E0
1.203540833E0,1.101462232E0,2.740633246E0,-1.179846643E0,3.180617509E0
1.213508833E0,-1.263138914E-1,2.691800224E0,-1.995779979E0,3.353338839E0
1.223475833E0,-7.045590806E-1,2.058330130E0,-2.749735606E0,3.506304654E0
1.233443833E0,-2.077673596E-1,2.332551680E0,-3.863560022E0,4.517860185E0
1.243411833E0,-3.672893429E-1,1.310677947E0,-4.673509317E0,4.867696321E0
1.253378917E0,-1.469308230E0,4.933444950E-1,-4.728845027E0,4.976367225E0
1.263346917E0,-1.620520735E0,1.085579440E-1,-3.581672772E0,3.932715617E0
1.273313917E0,-1.834390249E0,-4.969574896E-1,-1.899001397E0,2.686663477E0
1.283281917E0,-2.901277310E0,-9.838864195E-1,-2.437466662E-2,3.063663924E0
1.293249917E0,-2.608625920E0,-1.495524221E0,1.365026062E0,3.302244394E0
1.303216917E0,-1.765194299E0,-2.193661597E0,1.501321735E0,3.190929186E0
1.313184917E0,-1.917763942E0,-2.922091351E0,2.555545481E0,4.329809362E0
1.323152917E0,-2.048569665E0,-2.933070960E0,4.019128118E0,5.380793041E0
1.333119917E0,-2.398937166E0,-2.235702201E0,4.321222175E0,5.424594450E0
1.343087917E0,-2.903356580E0,-1.499993833E0,4.604173619E0,5.646049560E0
1.353054917E0,-2.742499677E0,-9.965240067E-1,4.677992377E0,5.513436066E0
1.363022917E0,-1.938433850E0,-7.515008202E-1,4.051464390E0,4.553750429E0
1.372990917E0,-1.521518018E0,-5.052128810E-1,3.228066498E0,3.604257268E0
1.382957917E0,-1.182285955E0,-4.241146311E-1,1.820713027E0,2.211937889E0
1.392925917E0,-8.582893968E-1,-4.696083078E-1,5.824107456E-1,1.138593399E0
1.402892917E0,-6.048956287E-1,-5.638391116E-1,-3.876456202E-1,9.132811135E-1
1.412860917E0,-1.267109174E0,-1.905987650E-1,1.036421898E-1,1.285548618E0
1.422828917E0,-1.858275540E0,6.091564947E-1,1.003635098E0,2.198077120E0
1.432795917E0,-1.970399993E0,1.436852090E0,6.110809596E-1,2.514048528E0
1.442763917E0,-1.163942655E0,2.128559575E0,-8.609558733E-1,2.574252005E0
1.452731917E0,-6.463389391E-1,2.989301879E0,-2.326091384E0,3.842444648E0
1.462698917E0,-4.864596909E-1,3.560322833E0,-4.055820565E0,5.418691924E0
1.472666917E0,1.058467070E0,4.481760405E0,-3.896225492E0,6.032172241E0
1.482633917E0,3.852968960E0,4.649177883E0,-1.621785049E0,6.252232525E0
1.492601917E0,7.654709294E0,1.624134314E0,-2.851467803E-2,7.825164518E0
1.502569917E0,4.726147122E0,2.227233678E-1,4.870751688E0,6.790456121E0
1.512536917E0,4.606479176E0,-2.101044917E0,2.807473937E0,5.789296162E0
1.522504917E0,5.817544541E0,-4.230409654E0,6.740658510E-1,7.224579926E0
1.532471917E0,4.631365510E0,-4.755534058E0,-8.594800361E-1,6.693530952E0
1.542439917E0,2.986418617E0,-3.899874739E0,-1.562145788E0,5.154417387E0
1.552407917E0,1.823567637E0,-2.933294324E0,-1.132454814E0,3.634840907E0
1.562374917E0,4.754891449E-1,-2.194702694E0,-1.857251108E0,2.914136496E0
1.572342917E0,-3.880153835E-1,-1.845578311E0,-2.699626722E0,3.293129162E0
1.582310917E0,-6.870250350E-1,-1.202996208E0,-2.449316776E0,2.813957346E0
1.592277917E0,-1.409330415E0,-2.134222019E0,-2.828122795E0,3.813055781E0
1.602245917E0,-1.585882414E0,-2.101246061E0,-2.292582306E0,3.490872623E0
1.612212917E0,-1.775352082E0,-2.470400081E0,-1.884763573E0,3.578698828E0
1.622180917E0,-1.852461069E0,-3.061636029E0,-8.584088261E-1,3.679958274E0
1.632148917E0,-1.619548343E0,-2.627082072E0,3.610290214E-2,3.086389552E0
1.642115917E0,-1.311891829E0,-2.663621323E0,-2.050712816E-1,2.976238053E0
1.652083917E0,-9.040356731E-1,-2.496577481E0,-2.022212756E-1,2.662906882E0
1.662050917E0,-5.530045134E-1,-1.893987994E0,7.107091820E-1,2.097167627E0
1.672018917E0,-7.285121995E-1,-1.416458171E0,1.306432868E0,2.060060828E0
1.681986917E0,-9.269070572E-1,-1.352000805E0,1.308751874E0,2.097592509E0
1.691953917E0,-9.602888113E-1,-1.389079168E0,1.402825388E0,2.195362067E0
1.701921917E0,-5.266826874E-1,-1.010048032E0,1.462782737E0,1.854002431E0
1.711888917E0,-4.445784241E-1,5.219283164E-2,1.212178676E0,1.292188534E0
1.721856917E0,-8.182219362E-1,1.071215755E0,5.414322889E-1,1.452631837E0
1.731824917E0,-1.620405545E0,1.346717260E0,-1.900842466E-1,2.115536227E0
1.741791917E0,-2.162868698E0,1.125828164E0,-3.609053528E-1,2.464902175E0
1.751759917E0,-2.666370099E0,-6.281728095E-1,5.463152987E-1,2.793311831E0
1.761727917E0,-8.476082879E-1,7.775106972E-1,1.377291766E0,1.794406672E0
1.771694917E0,-9.256808960E-1,2.267574788E0,1.716436121E0,2.990808169E0
1.781662917E0,-1.815814814E0,2.002026413E0,1.158043910E0,2.940469163E0
1.791629917E0,-1.756617603E0,3.408955377E0,1.160259567E0,4.006605100E0
1.801597917E0,-2.592298740E0,3.977236910E0,9.828228110E-1,4.848130246E0
1.811565917E0,-3.166388313E0,3.828238161E0,1.128758204E-1,4.969322219E0
1.821532917E0,-3.572647594E0,3.486658441E0,-1.858315301E-1,4.995511112E0
1.831500917E0,-3.777862644E0,3.018522170E0,-4.822415096E-1,4.859658334E0
1.841467917E0,-4.519721698E0,2.211378368E0,-4.170611349E-1,5.048962122E0
1.851435917E0,-5.191098415E0,3.380170119E0,-3.875598854E-1,6.206710517E0
1.861403917E0,-5.488426992E0,1.412704259E0,-8.910080767E-1,5.736938169E0
1.871370917E0,-7.351682605E0,-5.283549326E0,-2.131059844E0,9.300782046E0
1.881338917E0,-3.002323628E0,-5.062966039E0,-2.860719268E0,6.544561636E0
1.891306917E0,4.467091495E0,-2.198478241E0,-1.057457549E0,5.089835898E0
1.901273917E0,1.066861567E1,-3.974999181E0,3.397493080E0,1.188120104E1
1.911241917E0,1.024030011E1,-5.664535772E0,6.926835610E0,1.359896185E1
1.921208917E0,5.772763640E0,-5.195439972E0,6.944574308E0,1.041846960E1
1.931176917E0,3.279576960E0,-3.593513383E0,4.976549454E0,6.959526416E0
1.941144917E0,2.045670031E0,-1.227218299E0,1.933352619E0,3.070616059E0
1.951111917E0,1.451245011E0,1.129272759E-1,-3.606246865E-1,1.499638228E0
1.961079917E0,1.974978948E-1,8.157210821E-1,-7.976028997E-1,1.157832755E0
1.971046917E0,-3.998706132E-1,1.162168025E0,-9.137318185E-1,1.531481917E0
1.981014917E0,-2.181689715E-1,1.363925616E0,-6.015542373E-1,1.506571700E0
1.990982917E0,-1.368955391E0,2.058886492E0,-2.365327370E-1,2.483747207E0
2.000949917E0,-1.460919814E0,2.342236716E0,-4.730081713E-1,2.800731380E0
2.010917917E0,-1.923890655E0,2.496720738E0,-5.589944011E-1,3.201162982E0
2.020885917E0,-1.664941447E0,2.282468231E0,-8.058085898E-1,2.937859550E0
2.030852917E0,-1.470920307E0,2.419347457E0,-5.714530635E-1,2.888495676E0
2.040820917E0,-1.857440557E0,2.350708162E0,-2.571792555E-1,3.007001073E0
2.050787917E0,-2.465111859E0,2.628834482E0,-2.802377504E-1,3.614703364E0
2.060755917E0,-2.484279909E0,3.263041034E0,-7.152781963E-1,4.163016497E0
2.070723917E0,-2.194261229E0,2.626548806E0,-1.095960587E0,3.593698732E0
2.080690917E0,-1.693599236E0,7.824545181E-1,-9.303282630E-1,2.084712000E0
2.090658917E0,-1.359869110E0,-1.406642450E0,-1.316494757E-1,1.960922886E0
2.100625917E0,-1.273521815E0,-2.648559480E0,1.201934354E0,3.175117529E0
2.110593917E0,-1.492258259E0,-3.476312962E0,2.113233438E0,4.333283061E0
2.120561917E0,-1.604614554E0,-4.366496581E0,2.420674775E0,5.244115428E0
2.130528917E0,-1.319895790E0,-4.214925642E0,2.252779579E0,4.958098314E0
2.140496917E0,-8.952321053E-1,-3.542323349E0,1.526810333E0,3.959879421E0
2.150464917E0,-9.018154854E-1,-2.520553989E0,9.247424179E-1,2.832245067E0
2.160431917E0,-8.055431262E-1,-1.320332285E0,5.607453498E-1,1.645178537E0
2.170399917E0,-9.741698089E-1,-6.024409676E-1,-2.676124424E-2,1.145712922E0
2.180366917E0,-1.395516661E0,-5.195251107E-1,-2.911112326E-1,1.517273489E0
2.190334917E0,-1.509799029E0,-9.091239202E-1,-3.273774183E-1,1.792533231E0
2.200302917E0,-8.792107344E-1,-1.633820812E0,-4.094688177E-2,1.855817504E0
2.210269917E0,-6.540125325E-1,-2.298880196E0,5.091486418E-1,2.443729709E0
2.220237917E0,-9.408006263E-1,-3.147040461E0,7.013974911E-1,3.358709265E0
2.230204917E0,-1.173218678E0,-3.486742056E0,1.027686158E0,3.819679446E0
2.240172917E0,-8.751381487E-1,-3.252280988E0,1.637614485E0,3.744993939E0
2.250140333E0,-7.551664397E-1,-2.739431058E0,2.205497823E0,3.597079305E0
2.260107333E0,-8.966974175E-1,-1.816130564E0,2.557028335E0,3.262022439E0
2.270075333E0,-1.301576463E0,-1.049693908E0,2.519500905E0,3.023878867E0
2.280042333E0,-1.722155575E0,-3.283217436E-1,2.567591915E0,3.109042173E0
2.290010333E0,-1.730377053E0,6.585034865E-1,2.851934996E0,3.400200701E0
2.299978333E0,-1.895537799E0,1.224019287E0,3.224911340E0,3.935903952E0
2.309945333E0,-1.893817548E0,1.759783870E0,3.716358122E0,4.527107450E0
2.319913333E0,-1.666278413E0,2.288556352E0,4.050147597E0,4.941423831E0
2.329881333E0,-1.377741710E0,2.758368436E0,4.222260974E0,5.228217323E0
2.339848333E0,-1.123418819E0,3.183582636E0,4.314116639E0,5.478035288E0
2.349816333E0,-8.558940849E-1,3.433822415E0,4.263737029E0,5.541041826E0
2.359783333E0,-6.725865054E-1,3.407471938E0,4.067072947E0,5.348300662E0
2.369751333E0,-6.681242028E-1,3.269680547E0,3.585428438E0,4.898213747E0
2.379719333E0,-7.709416428E-1,3.215007911E0,2.852174147E0,4.366408622E0
2.389686333E0,-8.601163593E-1,3.223678747E0,2.245528446E0,4.021728835E0
2.399654333E0,-7.871989489E-1,3.208091240E0,1.998163158E0,3.860594202E0
2.409621333E0,-4.516670036E-1,3.378979626E0,1.889576855E0,3.897692533E0
2.419589333E0,4.721252418E-1,3.588594705E0,1.397776317E0,3.880037736E0
2.429557333E0,1.511421339E0,3.813299695E0,6.686852431E-1,4.156054497E0
2.439524333E0,2.168774093E0,3.947386875E0,1.644763291E-1,4.506938725E0
2.449492333E0,2.835313700E0,4.028902908E0,1.279516965E-1,4.928228288E0
2.459459333E0,3.398134227E0,3.993880425E0,2.903405696E-1,5.251922955E0
2.469427333E0,3.423964302E0,3.892739967E0,5.743269700E-1,5.216014519E0
2.479395333E0,3.174163063E0,3.911784348E0,9.632124192E-1,5.128854268E0
2.489362333E0,2.691264619E0,3.938052964E0,1.175918337E0,4.912631712E0
2.499330333E0,2.302082424E0,4.023474353E0,9.091321063E-1,4.723817370E0
2.509298333E0,2.196814123E0,4.235437675E0,8.432410026E-1,4.845201748E0
2.519265333E0,2.207321570E0,4.267711381E0,1.024530416E0,4.912768214E0
2.529233333E0,2.220796771E0,4.092672057E0,1.453336560E0,4.877918616E0
2.539200333E0,2.264705560E0,3.781102002E0,1.817323980E0,4.767419645E0
2.549168333E0,2.033338545E0,3.349058254E0,2.191296691E0,4.489146691E0
2.559136333E0,2.036024756E0,2.873764991E0,2.455215447E0,4.293251090E0
2.569103333E0,1.949029005E0,2.732740089E0,2.248761372E0,4.040236400E0
2.579071333E0,1.939935122E0,2.615879976E0,2.198094079E0,3.929095813E0
2.589038333E0,1.709757139E0,2.225768951E0,2.050900950E0,3.476134578E0
2.599006333E0,1.402887661E0,1.631424038E0,1.807607077E0,2.810174643E0
2.608974333E0,1.519239066E0,1.053557163E0,7.957405615E-1,2.012777454E0
2.618941333E0,1.810229261E0,6.658838421E-1,-9.973934877E-1,2.171433867E0
2.628909333E0,1.982189734E0,9.748945713E-2,-2.016781277E0,2.829485299E0
2.638876333E0,2.158582396E0,-3.736055052E-1,-2.652466589E0,3.440150875E0
2.648844333E0,3.831703514E0,-8.976154304E-1,-4.317055449E0,5.841629313E0
2.658812333E0,5.268175242E0,-2.176328988E0,-4.130505881E0,7.039258276E0
2.668779333E0,5.092658200E0,-2.969832990E0,-1.524966121E0,6.089383976E0
2.678747333E0,4.447384916E0,-2.314049043E0,-1.366535228E-1,5.015249720E0
2.688715333E0,4.131368346E0,-1.922550473E0,6.404022610E-1,4.601577967E0
2.698682333E0,4.422756444E0,-1.377287089E0,4.889090896E-1,4.657974494E0
2.708650333E0,4.985418511E0,-9.128287160E-1,-6.927272397E-1,5.115420317E0
2.718617333E0,4.296507457E0,-4.506191826E-1,-2.411853665E0,4.947734034E0
2.728585333E0,3.518086640E0,-6.324289978E-2,-3.327291409E0,4.842705999E0
2.738553333E0,2.210829607E0,4.721158862E-2,-2.577029321E0,3.395743896E0
2.748520333E0,2.097896776E0,6.440012223E-1,-1.400120466E0,2.603122313E0
2.758488333E0,1.776882590E0,9.667505693E-1,-6.626819068E-1,2.128630008E0
2.768455333E0,1.131382727E0,1.041502544E0,-7.404756027E-1,1.706768450E0
2.778423333E0,9.616213918E-1,1.596602699E0,-1.090595766E0,2.159457109E0
2.788391333E0,8.406620881E-1,1.696813450E0,-1.203772718E0,2.243871072E0
2.798358333E0,4.977170429E-1,1.839032938E0,-9.894892216E-1,2.146824008E0
2.808326333E0,6.447052270E-2,1.966073053E0,-6.040144533E-1,2.057773836E0
2.818293333E0,-6.031645605E-1,1.941075622E0,-2.618318850E-1,2.049423820E0
2.828261333E0,-1.116246917E0,2.158003814E0,-8.069099128E-2,2.430946046E0
2.838229333E0,-1.176140531E0,2.308249775E0,1.309168196E-1,2.593928061E0
2.848196333E0,-1.036268993E0,2.409481450E0,8.767829704E-1,2.765538403E0
2.858164333E0,-6.505729079E-1,2.309833201E0,1.986058252E0,3.114964190E0
2.868132333E0,-1.478927484E-1,1.985800390E0,2.799148672E0,3.435186856E0
2.878099333E0,6.390875146E-1,1.653166909E0,2.931332583E0,3.425507903E0
2.888067333E0,1.326538812E0,1.236226519E0,2.426349497E0,3.029048218E0
2.898034333E0,2.099746543E0,8.714906555E-1,1.536532499E0,2.743968591E0
2.908002333E0,2.654633567E0,4.031468081E-1,6.883786654E-1,2.771907631E0
2.917970333E0,2.968993037E0,-8.769887924E-2,-1.156397992E-1,2.972538193E0
2.927937333E0,2.886611323E0,-6.439760792E-1,-1.162790169E0,3.177941330E0
2.937905333E0,2.718465574E0,-1.307069045E0,-2.663697921E0,4.024148504E0
2.947872333E0,2.216573619E0,-2.126107838E0,-3.518578391E0,4.670538196E0
2.957840333E0,1.441017939E0,-2.802283364E0,-3.223664129E0,4.507919162E0
2.967808333E0,5.793707782E-1,-2.969777441E0,-2.269997874E0,3.782610064E0
2.977775333E0,-1.499542720E0,-3.452819434E0,-1.022578615E0,3.900802153E0
2.987743333E0,-2.378383910E0,-2.750604503E0,8.256619334E-1,3.728840675E0
2.997710333E0,-1.230748263E0,-1.775828630E0,1.613367251E0,2.696527859E0
3.007678333E0,-4.837553537E-1,-1.997308879E0,8.261256176E-1,2.214891767E0
3.017646333E0,4.505648035E-1,-2.331284296E0,-4.328951025E-1,2.413564435E0
3.027613333E0,9.896924123E-1,-2.204626004E0,-9.673662812E-1,2.603010643E0
3.037581333E0,1.232549790E0,-1.372605223E0,-8.942456800E-1,2.050097417E0
3.047548333E0,1.388427496E0,-8.992140591E-2,-6.180132723E-1,1.522418200E0
3.057516333E0,1.672254852E0,8.130278546E-1,3.496716821E-1,1.892015029E0
3.067484333E0,1.650693829E0,1.049892713E0,1.056428146E0,2.223309528E0
3.077451333E0,1.224163713E0,1.158938023E0,1.457255949E0,2.228297341E0
3.087419333E0,7.798630321E-1,1.284967740E0,2.088668700E0,2.573298541E0
3.097386333E0,4.125713503E-1,1.387125614E0,2.349376166E0,2.759329802E0
3.107354333E0,2.800728589E-1,1.435611895E0,1.766415197E0,2.293391587E0
3.117322333E0,9.127298981E-2,1.349898731E0,5.708741891E-1,1.468487208E0
3.127289333E0,-1.174074125E-1,9.590690821E-1,-3.574712831E-1,1.030234790E0
3.137257333E0,1.674926153E-1,7.250582492E-1,-8.785499990E-1,1.151352831E0
3.147225333E0,5.054368293E-1,6.998175734E-1,-1.063402705E0,1.369684759E0
3.157192333E0,9.494252694E-1,5.681640047E-1,-1.304140760E0,1.710263664E0
3.167160333E0,1.290070020E0,1.884738868E-1,-1.545018563E0,2.021604665E0
3.177127333E0,9.996908587E-1,-4.724298817E-1,-1.542679676E0,1.898007479E0
3.187095333E0,8.416806731E-1,-7.725686306E-1,-1.647106855E0,2.004557217E0
3.197063333E0,1.917024270E-1,-1.151616139E0,-1.460373099E0,1.869668191E0
3.207030333E0,-4.926562777E-1,-1.694206177E0,-1.253961709E0,2.164593437E0
3.216998333E0,-6.139860025E-1,-1.517774631E0,-1.141892220E0,1.996130377E0
3.226965333E0,-8.296412560E-1,-1.184433053E0,-3.145094508E-1,1.479899478E0
3.236933333E0,-7.595901507E-1,-1.196809269E0,6.430335081E-1,1.556541588E0
3.246901333E0,-8.587016255E-1,-1.257904487E0,1.258552358E0,1.975764717E0
3.256868917E0,-1.385581364E0,-1.145375991E0,2.099307125E0,2.763840133E0
3.266836917E0,-1.634065225E0,-7.222223496E-1,2.580796098E0,3.138834621E0
3.276803917E0,-1.849619907E0,-3.393285424E-1,2.778524957E0,3.355061638E0
3.286771917E0,-1.878527371E0,-2.925782990E-1,2.864250401E0,3.437789625E0
3.296739917E0,-1.848867955E0,-3.379719883E-1,2.373842086E0,3.027815058E0
3.306706917E0,-2.059341406E0,-4.341785663E-1,1.467585055E0,2.565775506E0
3.316674917E0,-2.247784887E0,-7.558444244E-1,5.791053146E-1,2.441147406E0
3.326641917E0,-2.430837820E0,-1.177560820E0,-5.148344743E-1,2.749668440E0
3.336609917E0,-2.516192551E0,-1.671017289E0,-1.578754073E0,3.408223607E0
3.346577917E0,-2.325855741E0,-2.109218155E0,-2.266245131E0,3.872243942E0
3.356544917E0,-2.093693798E0,-2.553165665E0,-2.185642433E0,3.959702195E0
3.366512917E0,-1.683454317E0,-2.684377769E0,-1.349295883E0,3.443907929E0
3.376479917E0,-1.351704935E0,-2.630514387E0,-8.218934029E-1,3.069563640E0
3.386447917E0,-1.048883484E0,-2.304002942E0,-4.899113023E-1,2.578487774E0
3.396415917E0,-8.020643252E-1,-1.770329323E0,1.575678438E-1,1.949923260E0
3.406382917E0,-7.045333529E-1,-1.404901149E0,9.259896290E-1,1.824163172E0
3.416350917E0,-6.508255076E-1,-1.177889434E0,1.557426939E0,2.058294447E0
3.426318917E0,-1.962968767E-2,-5.224469644E-1,2.071628745E0,2.136581805E0
3.436285917E0,1.895608842E-2,-5.526086569E-2,2.399899033E0,2.400610019E0
3.446253917E0,-9.607706219E-1,-1.340158439E-1,3.229830603E0,3.372365069E0
3.456220917E0,-1.174341928E0,-5.395091397E-1,3.433403170E0,3.668570076E0
3.466188917E0,-2.040199376E0,-8.925207514E-1,2.010280343E0,3.000038973E0
3.476156917E0,-2.219130607E0,-6.555412871E-1,3.836966300E-1,2.345527261E0
3.486123917E0,-1.216399196E0,-2.772357899E-1,-3.861109453E-1,1.305974100E0
3.496091917E0,-1.814718461E-1,2.407304531E-1,-8.401852477E-1,8.926334255E-1
3.506058917E0,-3.464206302E-1,3.380450785E-2,-5.888976467E-1,6.840690287E-1
3.516026917E0,-6.783922058E-1,8.466183543E-3,-3.622291625E-2,6.794113341E-1
3.525994917E0,-9.416040337E-1,8.342222571E-2,3.310412836E-1,1.001581627E0
3.535961917E0,-1.153233479E0,3.900507993E-1,5.985432136E-1,1.356591708E0
3.545929917E0,-1.516321598E0,5.913733578E-1,1.734597573E0,2.378609337E0
3.555896917E0,-1.425564625E0,7.483167189E-1,3.138436283E0,3.527321181E0
3.565864917E0,-1.496140518E0,1.119954636E0,3.500886471E0,3.968493532E0
3.575832917E0,-1.723358055E0,1.563423843E0,3.024185198E0,3.815750675E0
3.585799917E0,-1.854708738E0,1.886480754E0,2.355942589E0,3.542487773E0
3.595767917E0,-1.748088269E0,1.902475228E0,1.726617293E0,3.107479987E0
3.605734917E0,-1.434268205E0,1.596927220E0,1.453364627E0,2.592213449E0
3.615702917E0,-9.548386216E-1,1.226075168E0,1.401047249E0,2.092345695E0
3.625670917E0,-5.130937582E-1,8.587156588E-1,1.374333660E0,1.699838462E0
3.635637917E0,-2.083111507E-1,5.631944561E-1,1.260640399E0,1.396350868E0
3.645605917E0,-1.005422884E-1,1.831552595E-1,1.035346010E0,1.056217763E0
3.655572917E0,-1.055653390E-1,-2.311340028E-1,7.737070835E-1,8.143645492E-1
3.665540917E0,-1.836405784E-1,-5.026594019E-1,5.560491586E-1,7.717389475E-1
3.675508917E0,-2.740151435E-1,-4.578340620E-1,3.100193739E-1,6.170967018E-1
3.685475917E0,-2.122504199E-1,-5.216710389E-2,5.222206771E-2,2.247193623E-1
3.695443917E0,-9.078796327E-2,5.522391129E-1,-5.591107607E-3,5.596800448E-1
3.705410917E0,-1.057039180E-1,1.074646316E0,2.428921688E-1,1.106812825E0
3.715378917E0,-1.574435905E-1,1.595205215E0,3.434829891E-1,1.639343992E0
3.725346917E0,-1.719750908E-1,1.937872517E0,3.245046812E-1,1.972366247E0
3.735313917E0,-1.013910118E-1,2.098887879E0,4.637771720E-1,2.151906070E0
3.745281917E0,2.243214118E-1,2.310104511E0,6.626895082E-1,2.413723334E0
3.755248917E0,6.274310902E-1,2.416603358E0,6.904485798E-1,2.590436412E0
3.765216917E0,7.652873853E-1,2.682647578E0,6.082121694E-1,2.855203119E0
3.775184917E0,1.804026827E-1,2.450703151E0,1.224733232E0,2.745626076E0
3.785151917E0,5.147771716E-1,1.873777093E0,1.817741472E0,2.660868315E0
3.795119917E0,8.801337174E-1,1.396660668E0,9.903686428E-1,1.925130237E0
3.805087917E0,6.965472257E-1,9.810423338E-1,6.403870583E-2,1.204874705E0
3.815054917E0,5.684914488E-1,8.529485500E-1,-1.548407024E-1,1.036667449E0
3.825022917E0,4.528305995E-1,1.010095394E0,-1.059275740E-1,1.112011200E0
3.834989917E0,3.618707281E-1,1.156341859E0,8.049861789E-2,1.214313364E0
3.844957917E0,3.738563508E-1,1.334831625E0,7.508152342E-1,1.576473138E0
3.854925917E0,3.243260488E-1,1.404083709E0,1.558877633E0,2.122907893E0
3.864892917E0,2.500798586E-1,1.321675390E0,2.301582195E0,2.665829396E0
3.874860917E0,1.040061790E-1,1.049840088E0,2.857688656E0,3.046205172E0
3.884827917E0,8.251064479E-2,5.877048147E-1,3.216479656E0,3.270771519E0
3.894795917E0,1.907472843E-1,1.228055620E-1,3.337079648E0,3.344781952E0
3.904762917E0,2.706249279E-1,-2.657641375E-1,2.992423123E0,3.016366120E0
3.914730917E0,2.819363666E-1,-5.177814710E-1,2.087397516E0,2.169058357E0
3.924698917E0,2.060053012E-1,-4.338973153E-1,8.295117402E-1,9.585378404E-1
3.934665917E0,1.983045182E-1,-2.830303806E-1,-2.862375784E-1,4.487346984E-1
3.944633917E0,2.853476322E-1,-1.642652446E-1,-1.044954740E0,1.095598809E0
3.954601917E0,4.598191917E-1,5.323597491E-2,-1.704690819E0,1.766419698E0
3.964568917E0,6.057539999E-1,2.041584581E-1,-2.526986511E0,2.606583858E0
3.974536917E0,4.046895960E-1,1.773378646E-1,-2.963117462E0,2.995878416E0
3.984503917E0,2.103661546E-1,1.394619405E-2,-2.638657805E0,2.647066948E0
3.994471917E0,-9.214919508E-3,-1.084366143E-1,-2.023452365E0,2.026376789E0
4.004439917E0,-3.064101800E-1,-8.368242681E-2,-1.274252132E0,1.313243482E0
4.014406917E0,-2.178473747E-1,-2.052021861E-2,-7.702478707E-1,8.007248843E-1
4.024374917E0,-4.633801460E-2,-1.896579480E-1,-6.137681937E-1,6.440720025E-1
4.034341917E0,-1.281130797E-1,-4.108277106E-1,-5.116933501E-1,6.685973777E-1
4.044309917E0,-1.765911752E-1,-6.338305753E-1,-6.091348600E-1,8.966442545E-1
4.054277917E0,-2.988880295E-1,-8.938071388E-1,-7.745572686E-1,1.219903364E0
4.064244917E0,-3.100187892E-1,-1.005545676E0,-8.389082158E-1,1.345734279E0
4.074212917E0,-2.063710445E-1,-1.060561543E0,-6.260403299E-1,1.248721862E0
4.084179917E0,-3.122799075E-1,-1.085430921E0,-1.808923870E-1,1.143853609E0
4.094147917E0,-4.451824415E-1,-1.002323275E0,9.306779265E-2,1.100682047E0
4.104115917E0,-5.720009476E-1,-8.153819436E-1,-2.218749368E-1,1.020422111E0
4.114082917E0,-1.118074172E0,-5.525115931E-1,-5.402821416E-1,1.359140797E0
4.124050917E0,-1.667633505E0,3.025711906E-1,-5.560310322E-1,1.783738025E0
4.134017917E0,-7.749776834E-1,1.818385250E0,-6.389515668E-1,2.077347932E0
4.143985917E0,4.289026237E-1,2.278117318E0,-7.942530298E-1,2.450431360E0
4.153953917E0,1.548540925E0,1.884935920E0,-1.849098335E0,3.061066329E0
4.163920917E0,1.751362125E0,9.805593538E-1,-2.911328673E0,3.536184467E0
4.173888917E0,1.230697977E0,7.101536965E-1,-3.076977369E0,3.389207210E0
4.183855917E0,6.188166797E-1,1.542469177E0,-2.735176039E0,3.200520772E0
4.193823917E0,-1.567527419E-1,2.085365024E0,-1.086117384E0,2.356473992E0
4.203791917E0,-7.243823111E-2,1.999339033E0,1.390019985E0,2.436136167E0
4.213758917E0,-1.043581814E-2,1.516898133E0,3.127161098E0,3.475661863E0
4.223726917E0,9.357883930E-3,8.248708051E-1,3.866626301E0,3.953643683E0
4.233693917E0,-6.189233914E-1,2.635854650E-1,3.374303023E0,3.440706955E0
4.243661917E0,-1.853072103E0,-4.519640422E-1,2.596409333E0,3.221721455E0
4.253629417E0,-2.929163266E0,-1.156837703E0,2.028434778E0,3.746040384E0
4.263596417E0,-2.335909151E0,-1.285454228E0,1.110471622E0,2.888254033E0
4.273564417E0,-9.706319511E-2,-3.092411095E-1,-3.823353982E-1,5.012301710E-1
4.283531417E0,1.077318494E0,-1.407687932E-1,-9.280712378E-1,1.428897202E0
4.293499417E0,2.961730503E0,-1.423639137E-1,-5.948015803E-1,3.024219565E0
4.303467417E0,4.101828797E0,-2.620353681E-1,-8.330247474E-1,4.193756340E0
4.313434417E0,3.296778299E0,-7.365491974E-1,-1.177430427E0,3.577372539E0
4.323402417E0,1.379416645E0,-1.265362025E0,-5.558830976E-1,1.952674410E0
4.333369417E0,2.745729679E-1,-8.862338251E-1,-1.151305068E-1,9.349094828E-1
4.343337417E0,-1.273731730E0,-1.715608156E0,-2.138244903E-1,2.147422822E0
4.353305417E0,-1.636343300E0,-3.181805667E0,-4.881518751E-1,3.611066179E0
4.363272417E0,-2.222025855E0,-3.025138294E0,-3.963698852E-1,3.774383352E0
4.373240417E0,-3.588944077E0,-2.697060964E0,-1.920997453E-1,4.493501946E0
4.383207417E0,-4.014198038E0,-2.101185250E0,-6.538777542E-1,4.577807495E0
4.393175417E0,-2.903082345E0,-1.009930503E0,-1.130360341E-1,3.075812717E0
4.403143417E0,-1.392087853E0,2.272695780E-2,4.947106969E-1,1.477553308E0
4.413110417E0,-2.709178734E-1,7.401411420E-1,5.736334902E-1,9.748132053E-1
4.423078417E0,6.922600472E-1,1.307027530E0,6.497379255E-1,1.615457926E0
4.433045417E0,1.583431261E0,1.926496174E0,9.392587155E-1,2.664741827E0
4.443013417E0,1.996565698E0,2.234693556E0,1.244819003E0,3.244950574E0
4.452980417E0,2.231314450E0,2.289109499E0,1.629785063E0,3.588173048E0
4.462948417E0,2.209370727E0,2.116917769E0,1.690576226E0,3.495812899E0
4.472916417E0,2.124187904E0,1.692964228E0,1.451066086E0,3.079593304E0
4.482883417E0,2.229745350E0,1.196037437E0,1.422805324E0,2.902868385E0
4.492851417E0,2.780689889E0,1.100397454E0,1.248600397E0,3.240696494E0
4.502818417E0,3.012071814E0,7.910253668E-1,1.098988275E0,3.302434401E0
4.512786417E0,2.672099200E0,2.315865773E-1,1.043986441E0,2.878133800E0
4.522754417E0,2.131270929E0,-5.651129276E-1,1.132494575E0,2.478752177E0
4.532721417E0,2.370026193E0,-1.221072291E0,8.132588196E-1,2.787370015E0
4.542689417E0,2.531262580E0,-1.405562469E0,3.667864823E-1,2.918463367E0
4.552656417E0,2.310440726E0,-9.828017610E-1,1.584396636E-1,2.515777967E0
4.562624417E0,2.068011072E0,-3.092504650E-1,5.160390007E-1,2.153741372E0
4.572592417E0,1.775528375E0,4.303246665E-1,7.219083542E-1,1.964391000E0
4.582559417E0,1.335403483E0,9.034310710E-1,8.076297051E-1,1.803262572E0
4.592527417E0,8.618734476E-1,1.045812526E0,9.124252582E-1,1.633728720E0
4.602494417E0,1.944725454E-1,1.099822673E0,8.453957015E-1,1.400758143E0
4.612462417E0,-8.079097867E-2,1.261190037E0,6.279710805E-1,1.411196361E0
4.622430417E0,-4.524350354E-1,1.170903765E0,5.000854576E-1,1.351221134E0
4.632397417E0,-8.453693891E-1,9.412350744E-1,6.508722854E-1,1.422746499E0
4.642365417E0,-1.647759697E0,1.937293643E-1,8.566007209E-1,1.867192513E0
4.652332417E0,-2.276963955E0,-3.999483812E-1,1.023969083E0,2.528445420E0
4.662300417E0,-2.928993404E0,-7.407989538E-1,5.605433285E-1,3.072782823E0
4.672268417E0,-3.202072116E0,-8.747955018E-1,-1.356425393E-1,3.322187819E0
4.682235417E0,-3.035521195E0,-9.031825644E-1,-5.381239343E-1,3.212429772E0
4.692203417E0,-1.750932647E0,-6.292539597E-1,-7.305300736E-1,1.998849637E0
4.702170417E0,8.180874503E-1,4.530995715E-1,-1.051359195E0,1.407097173E0
4.712138417E0,1.917443223E0,1.204204828E0,-9.685678840E-1,2.462685836E0
4.722106417E0,1.641920667E0,8.640834028E-1,-3.312710792E-1,1.884750416E0
4.732073417E0,1.508167948E0,2.171731907E-1,1.620064652E-1,1.532312256E0
4.742041417E0,7.748002204E-1,-3.373539376E-1,3.294666284E-1,9.070123042E-1
4.752008417E0,3.501865295E-1,-1.564814311E-1,-2.694502223E-1,4.687434970E-1
4.761976417E0,-2.082231501E-1,6.899492276E-1,-6.395778036E-1,9.635593307E-1
4.771944417E0,1.377522147E-1,1.701948475E0,-7.528991818E-2,1.709173150E0
4.781911417E0,5.563970679E-1,2.025400073E0,9.340973783E-1,2.298773818E0
4.791879417E0,5.606909707E-1,2.060755847E0,1.785383565E0,2.783645721E0
4.801846417E0,-2.342146084E-1,1.719714071E0,2.278778054E0,2.864454989E0
4.811814417E0,3.501055455E-1,1.715194173E0,2.238971964E0,2.842087331E0
4.821782417E0,8.508113927E-1,2.242587297E0,1.569190367E0,2.866258226E0
4.831749417E0,1.139994798E0,2.499431507E0,8.641354430E-1,2.879839590E0
4.841717417E0,1.823199555E0,2.515990822E0,4.140495265E-1,3.134597812E0
4.851684417E0,2.132089832E0,2.230123372E0,9.314614534E-3,3.085343428E0
4.861652417E0,2.194637497E0,1.595301109E0,-5.191508889E-1,2.762415070E0
4.871619417E0,2.592629693E0,1.094514570E0,-1.362210628E0,3.126549002E0
4.881587417E0,2.886102323E0,7.187204522E-1,-2.194804435E0,3.696391784E0
4.891555417E0,3.184204195E0,9.905627704E-1,-2.855968405E0,4.390549679E0
4.901522417E0,3.612693128E0,1.745440065E0,-3.066934192E0,5.050168115E0
4.911490417E0,3.539902017E0,1.682332821E0,-2.428001921E0,4.610460209E0
4.921457417E0,3.105877525E0,9.386693162E-1,-8.031788045E-1,3.342554633E0
4.931425417E0,2.436028978E0,5.953740227E-1,-5.958254278E-2,2.508437260E0
4.941393417E0,1.700921412E0,9.605074972E-1,-3.053012556E-1,1.977098166E0
4.951360417E0,1.311104501E0,1.123592774E0,-1.602967393E-1,1.734113831E0
4.961328417E0,1.058134364E0,8.284487164E-1,6.504764289E-1,1.493015470E0
4.971295417E0,3.155420691E-1,2.424916345E-1,1.399451544E0,1.454934230E0
4.981263417E0,-6.782784775E-1,-7.232976526E-1,2.286043804E0,2.491830143E0
4.991231417E0,-1.657752880E0,-2.170713907E0,3.349004459E0,4.321570819E0
5.001198417E0,-2.379711521E0,-3.760274220E0,4.013493741E0,5.992563820E0
5.011166417E0,-3.105185215E0,-5.362147014E0,4.884483290E0,7.890055312E0
5.021133417E0,-3.912721072E0,-6.732584090E0,5.014697274E0,9.261979457E0
5.031101417E0,-4.448571024E0,-7.494173403E0,4.098730942E0,9.630784729E0
5.041069417E0,-4.314749892E0,-7.562849536E0,1.561132320E0,8.845953530E0
5.051036417E0,-4.215617075E0,-7.413635609E0,-1.318179340E0,8.629659150E0
5.061004417E0,-4.795434873E0,-7.402915324E0,-2.105059615E0,9.068110437E0
5.070971417E0,-5.534151049E0,-6.550787138E0,-1.501090186E0,8.705912457E0
5.080939417E0,-6.337992343E0,-5.149927000E0,-1.259382078E0,8.263046548E0
5.090907417E0,-6.511840589E0,-3.296480091E0,-2.634900969E0,7.759739168E0
5.100874417E0,-6.322197844E0,-1.537438232E0,-3.500291224E0,7.388229866E0
5.110842417E0,-6.014931339E0,-4.938002855E-1,-2.721073725E0,6.620232621E0
5.120809417E0,-5.336548489E0,5.444038439E-1,-1.844683687E0,5.672564078E0
5.130777417E0,-5.269893154E0,9.239518744E-1,-2.089631152E-1,5.354355844E0
5.140744417E0,-5.133820260E0,9.020400184E-1,1.039136176E0,5.315034397E0
5.150712417E0,-4.208267710E0,1.407436502E0,1.086022074E0,4.568351844E0
5.160680417E0,-3.163061832E0,1.882197669E0,1.225137275E0,3.879251160E0
5.170647417E0,-3.422097579E0,2.543545825E0,1.494514407E0,4.518180000E0
5.180615417E0,-3.623113451E0,3.231169031E0,1.485121440E0,5.076710556E0
5.190582417E0,-2.982211253E0,4.151392720E0,1.428410465E0,5.307353571E0
5.200550417E0,-2.417229303E0,4.290299760E0,1.455333384E0,5.134945452E0
5.210518417E0,-1.627632703E0,4.375905921E0,2.025187819E0,5.089118445E0
5.220485417E0,-9.600024439E-1,4.250353337E0,3.037059013E0,5.311387354E0
5.230453417E0,-8.069362253E-2,4.207761633E0,3.822668688E0,5.685469666E0
5.240420417E0,8.397402745E-1,4.157845708E0,4.125463243E0,5.917118524E0
5.250388417E0,1.547790289E0,3.803327268E0,4.131216903E0,5.824766621E0
5.260356417E0,2.086269734E0,3.387811845E0,3.891198056E0,5.565178596E0
5.270323417E0,2.597122985E0,3.019224420E0,3.864615444E0,5.549415864E0
5.280291417E0,3.002344678E0,2.770072807E0,4.147394979E0,5.821362558E0
5.290258417E0,3.679101125E0,2.561438890E0,3.841240030E0,5.903548022E0
5.300226417E0,4.384681422E0,2.364343868E0,3.041131598E0,5.836440225E0
5.310193417E0,4.708242655E0,2.589865129E0,1.589641589E0,5.603740774E0
5.320161417E0,5.490914397E0,2.880472916E0,4.616552174E-2,6.200757727E0
5.330129417E0,6.650874513E0,2.466263176E0,-1.001595297E0,7.163782450E0
5.340096417E0,7.688317920E0,1.221668122E0,-7.936396569E-1,7.825124238E0
5.350064417E0,8.236888490E0,3.439823413E-1,-2.811657035E-1,8.248861133E0
5.360031417E0,7.821235657E0,-7.652368069E-2,-2.939465475E-1,7.827131508E0
5.369999417E0,6.832829924E0,-2.539562702E-2,-1.170776296E0,6.932454605E0
5.379967417E0,5.830513081E0,-1.081980479E-1,-2.869432204E0,6.499248478E0
5.389934417E0,4.421897780E0,-1.324873817E-1,-3.649344352E0,5.734844993E0
5.399902417E0,2.981492922E0,-8.642769456E-3,-3.375008197E0,4.503338214E0
5.409869417E0,2.180632831E0,-6.938539982E-2,-2.873837496E0,3.608173476E0
5.419837417E0,1.544659836E0,-5.123137397E-1,-2.372968512E0,2.877397945E0
5.429805417E0,1.104018196E0,-7.387962824E-1,-2.073950089E0,2.462913944E0
5.439772417E0,8.430889750E-1,-7.260288870E-1,-2.293026549E0,2.548703144E0
5.449740417E0,6.980170695E-1,-4.258439451E-1,-2.407549530E0,2.542610004E0
5.459707417E0,4.871246655E-1,-1.471510291E-1,-2.189000489E0,2.247368908E0
5.469675417E0,2.394731556E-1,-5.463345945E-2,-1.579715940E0,1.598697801E0
5.479642417E0,7.663682431E-2,8.080091894E-2,-9.871561825E-1,9.934179987E-1
5.489610417E0,-2.307448706E-1,5.068191111E-2,-6.057996082E-1,6.502345859E-1
5.499578417E0,-2.612163194E-1,-1.194521838E-1,-3.788159591E-1,4.753991171E-1
5.509545417E0,-2.422843507E-1,-4.227718180E-1,-3.545283794E-2,4.885638346E-1
5.519513417E0,-1.428112257E-1,-4.899317676E-1,3.623455220E-1,6.258773525E-1
5.529480417E0,-5.204007313E-2,-4.502338511E-1,7.489026099E-1,8.753706695E-1
5.539448417E0,5.976863042E-2,-4.964508283E-1,1.086750053E0,1.196269782E0
5.549416417E0,2.454316145E-1,-4.254539359E-1,1.237246274E0,1.331174696E0
5.559383417E0,3.877170293E-1,-5.545487630E-1,1.257737256E0,1.428198807E0
5.569351417E0,5.144870035E-1,-7.572027326E-1,1.321815723E0,1.607871158E0
5.579318417E0,7.576127686E-1,-8.099387705E-1,1.252361326E0,1.672837951E0
5.589286417E0,7.835998414E-1,-6.689062679E-1,1.078527113E0,1.491537811E0
5.599254417E0,6.808704020E-1,-7.127217937E-1,9.574663603E-1,1.374153809E0
5.609221417E0,6.086119728E-1,-6.655312550E-1,9.657606357E-1,1.321375795E0
5.619189417E0,4.923310263E-1,-6.399438393E-1,1.289138559E0,1.521116754E0
5.629156417E0,6.413028784E-1,-1.050382125E-1,1.793798293E0,1.907882261E0
5.639124417E0,6.794582994E-1,3.141937011E-1,1.709680248E0,1.866383619E0
5.649091417E0,8.925189972E-1,4.412034112E-1,1.310640525E0,1.645912876E0
5.659059417E0,9.808039136E-1,6.124981785E-1,9.651227045E-1,1.506184640E0
5.669027417E0,1.152064036E0,7.610876226E-1,4.614564121E-1,1.455832385E0
5.678994417E0,8.329841092E-1,7.769832784E-1,-1.222758043E-1,1.145651305E0
5.688962417E0,1.916250975E-1,4.202124918E-1,-2.799056286E-1,5.400424772E-1
5.698929417E0,-2.897961938E-1,4.229992747E-2,-1.826032823E-1,3.451305210E-1
5.708897417E0,-5.742252284E-1,-1.654627544E-1,-3.035511839E-1,6.702655126E-1
5.718864417E0,-1.037016852E0,-2.096922630E-1,-6.356981760E-1,1.234296143E0
5.728832417E0,-1.478216317E0,-2.336132222E-1,-1.189814830E0,1.911899042E0
5.738800417E0,-1.615236021E0,-2.089970291E-1,-1.692612226E0,2.348957920E0
5.748767417E0,-1.355136228E0,1.489642507E-1,-1.883250752E0,2.324912458E0
5.758735417E0,-9.228031889E-1,6.396760368E-1,-2.049634443E0,2.337039261E0
5.768702417E0,-1.371101319E0,8.195434070E-1,-1.774356886E0,2.387448969E0
5.778670417E0,-2.210186121E0,6.133512872E-1,-8.999028611E-1,2.463929311E0
5.788638417E0,-1.949193458E0,5.638610387E-1,-1.591062462E-1,2.035340071E0
5.798605417E0,-1.374232503E0,9.316865712E-1,1.174986291E-1,1.664440076E0
5.808573417E0,-1.919114942E0,9.441212600E-1,9.885478199E-2,2.141060340E0
5.818540417E0,-2.013627435E0,4.710072541E-1,4.662107831E-1,2.119881076E0
5.828508417E0,-1.558347145E0,6.780431271E-2,1.063510294E0,1.887881721E0
5.838476417E0,-1.353094088E0,7.343985915E-2,1.237883620E0,1.835378130E0
5.848443417E0,-1.243330594E0,1.809374106E-1,1.078500216E0,1.655829710E0
5.858411417E0,-1.047577070E0,1.943444914E-1,8.214835131E-1,1.345370827E0
5.868378417E0,-8.570486176E-1,7.765687108E-2,4.166240555E-1,9.561059179E-1
5.878346417E0,-8.659320000E-1,6.768795311E-2,1.969108343E-1,8.906142623E-1
5.888313417E0,-8.932114537E-1,1.080916286E-1,2.869579554E-2,9.001855086E-1
5.898281417E0,-9.119260521E-1,-1.185458654E-1,1.988947946E-1,9.408620441E-1
5.908249417E0,-8.080154751E-1,-4.057967663E-1,4.211644185E-1,9.974665363E-1
5.918216417E0,-5.523600040E-1,-4.715890521E-1,2.514337814E-1,7.685810006E-1
5.928184417E0,-2.513658075E-1,-3.350793707E-1,-1.561171496E-1,4.470296615E-1
5.938151417E0,-2.295849292E-1,-2.499556053E-1,-2.629586434E-1,4.293416966E-1
5.948119417E0,-1.282417184E-1,-2.218696743E-1,-5.020126998E-2,2.611364743E-1
5.958086417E0,-3.489939898E-2,-1.792750472E-1,1.237054485E-1,2.205913611E-1
5.968054417E0,2.851745546E-2,-8.919050395E-2,1.592933571E-1,1.847770681E-1
5.978022417E0,-1.004346997E-2,-1.908648133E-2,1.079670829E-1,1.101002091E-1
5.987989417E0,-8.440207288E-2,4.470547199E-2,1.427685410E-1,1.717706186E-1
5.997957417E0,-2.098451677E-1,1.074805945E-1,3.287111682E-1,4.045220695E-1
6.007924417E0,-3.072871162E-1,9.522249162E-2,4.312339085E-1,5.380105748E-1
6.017892417E0,-4.596924533E-1,5.756817698E-2,3.554311895E-1,5.839200092E-1
6.027860417E0,-4.721540393E-1,8.917296231E-2,2.062470835E-1,5.228949354E-1
6.037827417E0,-3.643022928E-1,1.823851812E-1,2.313608748E-1,4.685172027E-1
6.047795417E0,-6.296895772E-2,2.733286804E-1,1.725466561E-1,3.293114114E-1
6.057762417E0,2.082361601E-1,3.682623196E-1,1.017093927E-1,4.351140482E-1
6.067730417E0,6.577183516E-1,4.384242296E-1,1.354215145E-1,8.019652248E-1
6.077697417E0,9.484296347E-1,4.996118331E-1,7.054080963E-2,1.074293611E0
6.087665417E0,1.230565976E0,5.622735196E-1,-1.064807206E-1,1.357122793E0
6.097633417E0,1.477316576E0,4.559074044E-1,-1.221495044E-1,1.550882436E0
6.107600417E0,1.633394696E0,2.089175069E-1,-7.394388914E-3,1.646717776E0
6.117568417E0,1.824048571E0,9.928338289E-2,-1.831646150E-1,1.835908400E0
6.127535417E0,1.808957784E0,-4.887862980E-2,-3.787346828E-1,1.848825937E0
6.137503417E0,1.951042786E0,-2.790449184E-1,-3.307962853E-1,1.998464461E0
6.147471417E0,2.054170567E0,-3.456587380E-1,-4.254492581E-1,2.126053563E0
6.157438417E0,1.852021943E0,-4.621966696E-1,-4.360555226E-1,1.957997818E0
6.167406417E0,1.907685682E0,-4.212427711E-1,-4.921665734E-1,2.014680637E0
6.177373417E0,1.879161063E0,-3.337883055E-1,-6.187599617E-1,2.006371059E0
6.187341417E0,1.616191895E0,-4.204902345E-1,-5.925556648E-1,1.772007476E0
6.197308417E0,1.428481654E0,-5.121389079E-1,-5.565227830E-1,1.616342694E0
6.207276417E0,1.219123121E0,-4.419278812E-1,-6.145131290E-1,1.434987046E0
6.217244417E0,1.086204654E0,-2.672399747E-1,-7.296635163E-1,1.335539816E0
6.227211417E0,9.899093440E-1,7.227743268E-3,-8.955841076E-1,1.334932074E0
6.237179417E0,8.344793884E-1,3.083464855E-1,-9.805038053E-1,1.323941508E0
6.247146417E0,5.642359914E-1,5.350816280E-1,-8.776641458E-1,1.172590702E0
6.257115167E0,2.172578292E-1,5.921317416E-1,-5.611426681E-1,8.442168310E-1
6.267082167E0,-6.485877782E-3,4.931646931E-1,-1.603745073E-1,5.186265166E-1
6.277050167E0,-2.914923249E-1,3.178458720E-1,3.630360782E-2,4.327952470E-1
6.287018167E0,-4.736436175E-1,1.599739730E-2,1.699832368E-1,5.034764085E-1
6.296985167E0,-6.470865056E-1,-1.702299893E-1,1.788400143E-1,6.925914710E-1
6.306953167E0,-9.689934151E-1,-4.238699251E-1,2.664447534E-1,1.090690955E0
6.316920167E0,-1.038389048E0,-5.182948565E-1,4.378880399E-1,1.240414168E0
6.326888167E0,-1.159809258E0,-4.679643631E-1,3.834411067E-1,1.308118971E0
6.336856167E0,-1.473824911E0,-4.682707572E-1,3.224154711E-1,1.579680065E0
6.346823167E0,-1.785616869E0,-6.516371012E-1,5.690106815E-1,1.984145073E0
6.356791167E0,-1.994462601E0,-9.683807731E-1,1.025625014E0,2.442856741E0
6.366758167E0,-2.119189558E0,-1.303384715E0,1.428734985E0,2.868982355E0
6.376726167E0,-2.218751999E0,-1.511095941E0,1.567768325E0,3.108724642E0
6.386693167E0,-2.351720315E0,-1.269620553E0,1.335638541E0,2.987717373E0
6.396661167E0,-2.437258063E0,-6.143909222E-1,8.410149676E-1,2.650473400E0
6.406629167E0,-2.719134788E0,-3.189188361E-2,4.809703249E-1,2.761529203E0
6.416596167E0,-3.168571079E0,2.895465177E-1,5.672705501E-1,3.231946123E0
6.426564167E0,-3.271174218E0,4.880986655E-1,9.034912974E-1,3.428573697E0
6.436531167E0,-3.057513450E0,6.548483920E-1,8.673689532E-1,3.244925857E0
6.446499167E0,-3.016017515E0,6.715527177E-1,4.206030858E-1,3.118373239E0
6.456466167E0,-3.020263470E0,5.110291064E-1,4.918268502E-2,3.063586316E0
6.466434167E0,-2.882347241E0,2.176924235E-1,-3.802678227E-2,2.890806401E0
6.476402167E0,-2.658352104E0,-1.125512999E-1,4.654968381E-2,2.661140841E0
6.486369167E0,-2.390656631E0,-5.012016910E-1,2.213504416E-1,2.452639044E0
6.496337167E0,-2.054132414E0,-8.486432451E-1,3.018116373E-1,2.242932365E0
6.506304167E0,-1.528466557E0,-9.181906128E-1,2.672148317E-1,1.802966384E0
6.516272167E0,-8.781695645E-1,-7.131164807E-1,9.743273914E-2,1.135433854E0
6.526240167E0,-3.370418059E-1,-5.283789647E-1,6.886850595E-3,6.267606704E-1
6.536207167E0,1.606021833E-1,-4.436311752E-1,-1.535367733E-1,4.961604797E-1
6.546175167E0,4.638827508E-1,-5.692235202E-1,-2.304528022E-1,7.696175130E-1
6.556142167E0,6.546135532E-1,-6.593156648E-1,-2.714967477E-1,9.679496546E-1
6.566110167E0,7.060261470E-1,-6.679829925E-1,-3.864109075E-1,1.045938616E0
6.576077167E0,6.996670076E-1,-4.830519336E-1,-3.567245936E-1,9.220225203E-1
6.586045167E0,5.643173408E-1,-2.394148296E-1,-2.629218060E-1,6.670092936E-1
6.596013167E0,4.458156218E-1,1.558142638E-1,-9.264094591E-2,4.812608423E-1
6.605980167E0,4.332404171E-1,7.322099787E-1,-4.800914884E-2,8.521347254E-1
6.615948167E0,4.184517855E-1,1.339704695E0,-3.734616637E-2,1.404031802E0
6.625915167E0,4.883915379E-1,1.992531120E0,-2.177432942E-1,2.063036282E0
6.635883167E0,5.298567388E-1,2.667529601E0,-3.812957633E-1,2.746242669E0
6.645850167E0,5.223755918E-1,3.339273523E0,-5.613385499E-1,3.426182261E0
6.655818167E0,5.924793952E-1,3.961327221E0,-7.560689574E-1,4.076123827E0
6.665786167E0,5.006676575E-1,4.329881902E0,-6.527135736E-1,4.407332571E0
6.675753167E0,4.157495679E-1,4.388867444E0,-2.221526796E-1,4.414108852E0
6.685721167E0,3.965882056E-1,4.343773717E0,1.078770357E-1,4.363174276E0
6.695688167E0,2.582936617E-1,4.197550056E0,3.815542102E-1,4.222762805E0
6.705656167E0,-1.865763192E-1,3.614822391E0,6.933891445E-1,3.685449789E0
6.715623167E0,-4.592158321E-1,2.911836212E0,1.132229696E0,3.157786153E0
6.725591167E0,-7.296176156E-1,2.198855386E0,1.748429162E0,2.902466436E0
6.735559167E0,-7.450920526E-1,1.261023976E0,2.736754203E0,3.104056572E0
6.745526167E0,-4.803512875E-1,-1.105123758E-2,3.678912553E0,3.710155935E0
6.755494167E0,-1.827112366E-2,-1.423640306E0,4.507322677E0,4.726842844E0
6.765461167E0,7.721102820E-1,-2.672282803E0,5.030218708E0,5.748073583E0
6.775429167E0,1.566739361E0,-3.501613280E0,5.070808325E0,6.358385397E0
6.785396167E0,1.998497034E0,-3.980246472E0,4.584911721E0,6.392008124E0
6.795364167E0,2.227083697E0,-4.261774703E0,3.286464980E0,5.824386446E0
6.805332167E0,2.421132465E0,-4.045488535E0,1.661153621E0,4.998728964E0
6.815299167E0,2.185784813E0,-3.058383223E0,4.784390652E-1,3.789494310E0
6.825267167E0,1.502873879E0,-1.950475021E0,3.961921299E-1,2.493982940E0
6.835234167E0,8.662121547E-1,-9.625054908E-1,8.032729447E-1,1.523806989E0
6.845202167E0,5.091474724E-1,-1.696587163E-1,7.601204932E-1,9.304828815E-1
6.855169167E0,2.984509501E-1,6.368530011E-1,5.566408968E-1,8.969413596E-1
6.865137167E0,-1.449477252E-1,1.344376620E0,4.945785499E-1,1.439779942E0
6.875105167E0,-4.094007707E-1,2.005828273E0,4.049231923E-1,2.086844230E0
6.885072167E0,-6.692837787E-1,2.534789035E0,4.380669647E-1,2.658006564E0
6.895040167E0,-9.251027526E-1,2.914630011E0,5.387063169E-1,3.105010097E0
6.905007167E0,-1.063692508E0,3.125285311E0,6.990340465E-1,3.374536801E0
6.914975167E0,-1.191237092E0,3.254045677E0,9.147150278E-1,3.583931174E0
6.924942167E0,-1.264612120E0,3.215380964E0,1.228060298E0,3.666885688E0
6.934910167E0,-1.226972570E0,3.202850965E0,1.571679527E0,3.772783128E0
6.944878167E0,-1.296290434E0,3.063226472E0,1.911189333E0,3.836192119E0
6.954845167E0,-1.111643915E0,2.915339279E0,2.070268098E0,3.744457945E0
6.964813167E0,-8.508074458E-1,2.767856712E0,2.112959204E0,3.584620020E0
6.974780167E0,-6.029688250E-1,2.563856129E0,1.999986320E0,3.307094636E0
6.984748167E0,-1.991552880E-1,2.355894642E0,1.726392760E0,2.927513340E0
6.994715167E0,2.562887976E-1,2.141909938E0,1.256049165E0,2.496221472E0
7.004683167E0,7.116904179E-1,1.927099022E0,8.092961615E-1,2.207979658E0
7.014651167E0,9.472484972E-1,1.778231251E0,3.182195091E-1,2.039767083E0
7.024618167E0,1.216868435E0,1.667786118E0,-2.112248182E-1,2.075306061E0
7.034586167E0,1.270783856E0,1.562984717E0,-5.253729111E-1,2.081785179E0
7.044553167E0,1.247922412E0,1.368361314E0,-8.169688779E-1,2.024144555E0
7.054521167E0,1.268654593E0,1.041954533E0,-8.281160098E-1,1.838730500E0
7.064488167E0,1.242372235E0,6.696810240E-1,-6.996871805E-1,1.575285243E0
7.074456167E0,1.161132044E0,3.119659120E-1,-3.454040918E-1,1.250941382E0
7.084424167E0,9.716483434E-1,-1.561808842E-1,3.768132877E-1,1.053793730E0
7.094391167E0,9.694949600E-1,-5.835556304E-1,1.322892780E0,1.740833984E0
7.104359167E0,9.430401099E-1,-7.707916617E-1,2.210483159E0,2.523822544E0
7.114326167E0,8.613927334E-1,-8.640442264E-1,3.336441717E0,3.552522089E0
7.124294167E0,8.246557007E-1,-7.825925124E-1,4.458007553E0,4.600689014E0
7.134261167E0,6.604542638E-1,-6.933137155E-1,5.548825221E0,5.630838754E0
7.144229167E0,4.358852224E-1,-4.226133585E-1,6.500858349E0,6.529146747E0
7.154196167E0,1.984249708E-1,-7.491978943E-2,7.116916312E0,7.120076070E0
7.164164167E0,-3.723897229E-1,2.052565652E-1,7.494288009E0,7.506341127E0
7.174132167E0,-1.082001894E0,5.439033222E-1,7.754990212E0,7.848976501E0
7.184099167E0,-1.878077574E0,9.784303826E-1,6.735276732E0,7.060343763E0
7.194067167E0,-2.584860789E0,1.314397361E0,5.977487524E0,6.643756680E0
7.204034167E0,-3.218754515E0,1.428267792E0,5.548894218E0,6.571952264E0
7.214002167E0,-3.815307044E0,1.700897731E0,5.169406414E0,6.646230782E0
7.223969167E0,-4.018819385E0,1.991120186E0,4.692047914E0,6.490822943E0
7.233937167E0,-4.217827030E0,2.062266768E0,4.712500598E0,6.652117780E0
7.243905167E0,-4.288421634E0,1.590398803E0,5.295574710E0,6.997359500E0
7.253871167E0,-4.411482427E0,9.787467170E-1,6.091278434E0,7.584378373E0
7.263839167E0,-4.285697124E0,2.982343107E-1,5.995660670E0,7.375912853E0
7.273806167E0,-3.927565983E0,-3.186691600E-1,4.849012325E0,6.248219356E0
7.283774167E0,-3.472373108E0,-7.517618984E-1,3.568230900E0,5.035354278E0
7.293741167E0,-2.916178062E0,-1.083506017E0,2.612374570E0,4.062336849E0
7.303709167E0,-2.040019720E0,-1.114440127E0,1.657253528E0,2.854846145E0
7.313677167E0,-1.059391954E0,-1.026614948E0,6.275851643E-1,1.603157104E0
7.323644167E0,-1.919221361E-1,-1.030802139E0,-4.595502198E-1,1.144802848E0
7.333612167E0,6.276993312E-1,-8.985246724E-1,-9.116160035E-1,1.425621540E0
7.343579167E0,1.452845248E0,-5.105899805E-1,-1.046893092E0,1.862108103E0
7.353547167E0,1.951289538E0,-4.786589205E-2,-1.896592344E0,2.721559208E0
7.363514167E0,1.897554357E0,3.971171594E-1,-2.785675810E0,3.393877472E0
7.373482167E0,1.982803545E0,7.268673778E-1,-3.415973790E0,4.016058144E0
7.383450167E0,1.977547629E0,1.054839458E0,-3.588371927E0,4.230814814E0
7.393417167E0,1.813922216E0,1.364849476E0,-3.621374781E0,4.274047637E0
7.403385167E0,1.230749140E0,1.386575391E0,-3.813270459E0,4.240090371E0
7.413352167E0,5.210173202E-1,1.208326530E0,-3.964242058E0,4.176927956E0
7.423320167E0,-3.933655858E-1,1.052296504E0,-3.926612010E0,4.084157966E0
7.433287167E0,-1.363573906E0,1.015705213E0,-3.608657672E0,3.989160447E0
7.443255167E0,-2.198571504E0,9.051928371E-1,-2.894136690E0,3.745546410E0
7.453223167E0,-2.660891550E0,8.102182674E-1,-2.139039540E0,3.508886951E0
7.463190167E0,-2.929294536E0,8.646704632E-1,-1.659930676E0,3.476174814E0
7.473158167E0,-2.841174657E0,1.040314389E0,-1.382229740E0,3.326422480E0
7.483125167E0,-2.320608303E0,1.284490607E0,-1.002198145E0,2.835408284E0
7.493093167E0,-1.390759366E0,1.681618291E0,-6.604371607E-1,2.279962485E0
7.503060167E0,-2.916082460E-1,1.888476409E0,-4.531720769E-1,1.963859325E0
7.513028167E0,7.588859998E-1,2.083330193E0,-3.916231155E-2,2.217590210E0
7.522995167E0,1.701000057E0,2.386781389E0,4.494129020E-1,2.965147307E0
7.532963167E0,2.275918473E0,2.741239602E0,6.893808782E-1,3.628973057E0
7.542931167E0,2.514222039E0,3.081632338E0,7.728288317E-1,4.051547202E0
7.552898167E0,2.728216099E0,3.289881508E0,7.433825460E-1,4.338098780E0
7.562866167E0,2.733334751E0,3.317990243E0,5.861629039E-1,4.338636314E0
7.572833167E0,2.356658727E0,3.344840072E0,6.199545479E-1,4.138373969E0
7.582801167E0,1.908528119E0,3.263714633E0,1.076367152E0,3.931015013E0
7.592768167E0,1.359986932E0,3.170887161E0,1.730950373E0,3.860087957E0
7.602736167E0,8.439102164E-1,3.080580423E0,2.550533541E0,4.087466396E0
7.612704167E0,3.445553684E-1,2.876911377E0,3.474276377E0,4.523929024E0
7.622671167E0,-3.041259652E-1,2.702830412E0,4.554918428E0,5.305192430E0
7.632639167E0,-1.049133745E0,2.739445676E0,5.604293078E0,6.325610258E0
7.642606167E0,-1.892993821E0,2.901366772E0,6.247915986E0,7.144075092E0
7.652574167E0,-2.857590423E0,3.137624105E0,7.057447205E0,8.235172682E0
7.662541167E0,-3.861955253E0,3.259962475E0,7.765560808E0,9.265311024E0
7.672509167E0,-4.971310934E0,3.126091057E0,8.292078019E0,1.016095151E1
7.682477167E0,-6.172866973E0,2.396930986E0,8.875533078E0,1.107360159E1
7.692444167E0,-7.312765292E0,9.414648700E-1,9.774326137E0,1.224337959E1
7.702412167E0,-7.139321673E0,-5.034195399E-1,1.039583955E1,1.262128461E1
7.712379167E0,-6.132411842E0,-1.899321240E0,1.032665413E1,1.215950993E1
7.722347167E0,-4.385838586E0,-3.128234062E0,8.570639958E0,1.012310712E1
7.732314167E0,-2.519106803E0,-4.366633991E0,6.580956432E0,8.289896203E0
7.742282167E0,-1.336247967E0,-5.371949871E0,4.788946803E0,7.319659523E0
7.752249167E0,-5.086753097E-1,-5.964996702E0,2.786887645E0,6.603535339E0
7.762217167E0,2.057252195E-1,-6.000531401E0,6.142552668E-1,6.035396382E0
7.772185167E0,5.415429474E-1,-6.003895304E0,-1.400775354E0,6.188877053E0
7.782152167E0,3.934970020E-1,-6.298095036E0,-3.458887090E0,7.196161538E0
7.792120167E0,1.303021603E0,-7.933935476E0,-1.121418311E1,1.379866299E1
7.802087167E0,3.407992340E0,-1.165190918E1,-1.795042346E1,2.167023539E1
7.812055167E0,3.528244423E0,-1.518873440E1,-1.790671319E1,2.374440015E1
7.822022167E0,3.228921361E0,-1.518668787E1,-1.627031960E1,2.248965810E1
7.831990167E0,3.257948694E0,-1.099497801E1,-1.316471017E1,1.745890504E1
7.841957167E0,2.748566163E0,-5.774343558E0,-8.344142797E0,1.051296240E1
7.851925167E0,1.943171410E0,-3.110307083E0,-4.609779929E0,5.890670274E0
7.861893167E0,1.232097947E0,-1.564235437E-1,-2.530803865E0,2.819131405E0
7.871860167E0,9.471854934E-1,1.976551264E0,-1.432122277E0,2.618184385E0
7.881828167E0,6.657492100E-1,3.203423408E0,-1.316913710E0,3.526954105E0
7.891795167E0,7.193594067E-1,4.179761657E0,-2.517151786E0,4.931930512E0
7.901763167E0,7.501936752E-1,5.043474931E0,-3.349015277E0,6.100437136E0
7.911730167E0,1.214827757E0,5.697227554E0,-2.001703647E-1,5.828745702E0
7.921698167E0,1.628844685E0,6.325787449E0,4.030547730E0,7.675547985E0
7.931666167E0,1.610778835E0,7.092962608E0,4.126758401E0,8.362706614E0
7.941633167E0,1.490723218E0,7.705463710E0,2.569184989E0,8.258155860E0
7.951601167E0,1.450243237E0,7.763016685E0,1.014695984E0,7.962238469E0
7.961568167E0,1.413649022E0,7.594860703E0,2.656039238E-1,7.729867922E0
7.971536167E0,1.340294386E0,7.201952369E0,7.653423491E-1,7.365477302E0
7.981503167E0,1.839828452E0,6.517759725E0,1.881095468E0,7.028846330E0
7.991471167E0,2.074501774E0,5.658412567E0,2.877202276E0,6.678284460E0
8.001438167E0,2.592871767E0,4.939402678E0,3.685720466E0,6.686196091E0
8.011406167E0,2.248378672E0,4.242743186E0,4.964115935E0,6.906411761E0
8.021374167E0,1.774866617E0,3.872705067E0,6.344351774E0,7.641910460E0
8.031341167E0,1.137416030E0,3.584101705E0,7.484423756E0,8.375923783E0
8.041309167E0,7.281350541E-1,3.257817131E0,8.477291499E0,9.110873958E0
8.051276167E0,2.957429583E-1,3.134910412E0,9.570542486E0,1.007523750E1
8.061244167E0,3.207314730E-2,3.241485858E0,9.968539066E0,1.048236759E1
8.071211167E0,2.634030318E-1,3.403540270E0,9.416325096E0,1.001601946E1
8.081179167E0,6.255001934E-1,3.574809895E0,7.431424009E0,8.270222432E0
8.091146167E0,1.109297208E0,3.204143785E0,6.824932090E0,7.620812012E0
8.101114167E0,1.014466480E0,2.030553809E0,7.389184892E0,7.729964061E0
8.111082167E0,8.678437471E-2,1.216645364E0,6.017488326E0,6.139863453E0
8.121049167E0,-6.347316313E-1,3.752994436E-1,4.725137308E0,4.782327518E0
8.131017167E0,-1.309647667E0,-7.709068519E-1,3.639464312E0,3.944004927E0
8.140984167E0,-1.497749671E0,-1.929309270E0,2.709538922E0,3.647888363E0
8.150952167E0,-1.740456191E0,-3.041708719E0,1.145128069E0,3.686800507E0
8.160919167E0,-1.683959224E0,-4.363184718E0,-2.714452922E-1,4.684739278E0
8.170887167E0,-2.079426591E0,-6.031558481E0,-3.284848809E-1,6.388396902E0
8.180854167E0,-1.466294575E0,-7.928667135E0,-1.118865885E0,8.140371194E0
8.190822167E0,3.341520023E-1,-1.007195994E1,-2.848999109E0,1.047247967E1
8.200790167E0,6.174858534E-1,-1.227133280E1,-1.671872737E0,1.240008290E1
8.210757167E0,-3.005229110E-1,-1.363638050E1,-2.023302092E0,1.378894262E1
8.220725167E0,-1.298522463E0,-1.394742080E1,-3.696826667E0,1.448734741E1
8.230692167E0,-3.020446488E0,-1.302466819E1,-6.113698997E0,1.470178200E1
8.240660167E0,-4.915321505E0,-1.016055695E1,-7.967461656E0,1.381585134E1
8.250627167E0,-5.397927881E0,-6.835326101E0,-9.148199269E0,1.263126511E1
8.260595917E0,-4.881831870E0,-4.319344050E0,-9.377059874E0,1.142008176E1
8.270562917E0,-4.028119673E0,-2.403375787E0,-9.026285992E0,1.017230564E1
8.280530917E0,-2.912158393E0,-7.988249677E-1,-7.819917110E0,8.382713847E0
8.290498917E0,-1.525780638E0,6.551214570E-1,-6.275375095E0,6.491342177E0
8.300465917E0,-2.921692863E-1,2.029781976E0,-5.151867691E0,5.545008428E0
8.310433917E0,9.026399428E-1,3.364368019E0,-4.185145773E0,5.445105708E0
8.320400917E0,1.522411473E0,4.573648814E0,-3.828839840E0,6.155973902E0
8.330368917E0,1.665668549E0,5.213600255E0,-3.828022399E0,6.679059426E0
8.340335917E0,1.629894991E0,5.349784831E0,-3.658161954E0,6.682731799E0
8.350303917E0,1.709005187E0,5.507852612E0,-3.049906515E0,6.523731208E0
8.360270917E0,1.871927911E0,5.411001086E0,-2.175398111E0,6.124981943E0
8.370238917E0,2.107819647E0,5.269224817E0,-9.097443098E-1,5.747631560E0
8.380206917E0,2.585851600E0,5.138015637E0,1.437035108E-1,5.753823414E0
8.390173917E0,2.204465936E0,4.765067943E0,6.656797743E-1,5.292321998E0
8.400141917E0,1.703428990E0,4.437291745E0,4.475189888E-1,4.774044575E0
8.410108917E0,1.089683308E0,4.028911679E0,3.682342529E-1,4.189884902E0
8.420076917E0,3.058720900E-1,3.575242589E0,8.789464402E-1,3.694382783E0
8.430043917E0,1.713409603E-1,3.096518179E0,1.928430433E0,3.651934624E0
8.440011917E0,1.551773559E-1,2.641219470E0,3.494667372E0,4.383243131E0
8.449978917E0,-4.858689760E-1,2.743848045E0,4.799304560E0,5.549603141E0
8.459946917E0,-5.946761575E-1,3.494946284E0,5.533575098E0,6.571814257E0
8.469914917E0,-3.615484004E-1,3.985614801E0,5.898823178E0,7.128250660E0
8.479881917E0,-2.601579733E-1,4.225147160E0,6.278379979E0,7.572159920E0
8.489849917E0,-2.347193693E-1,4.580117589E0,6.892408374E0,8.278759780E0
8.499816917E0,-1.634728007E-1,4.635290161E0,7.458600698E0,8.783129431E0
8.509784917E0,-1.020473617E-1,4.347879632E0,8.020843227E0,9.124055953E0
8.519751917E0,-6.250840178E-1,3.528229805E0,8.935450081E0,9.627118143E0
8.529719917E0,-1.582255386E0,2.378251471E0,9.908289356E0,1.031182865E1
8.539686917E0,-2.400646892E0,1.075286002E0,1.011316410E1,1.044966189E1
8.549654917E0,-2.408928595E0,-2.729778475E-1,9.035619317E0,9.355205520E0
8.559621917E0,-1.792464835E0,-1.531783390E0,7.235045271E0,7.609544705E0
8.569589917E0,-1.107806753E0,-2.828403461E0,5.699146610E0,6.458124653E0
8.579557917E0,-7.427346745E-1,-3.975059992E0,4.539741395E0,6.079638860E0
8.589524917E0,-3.069598183E-1,-5.073439572E0,3.101773072E0,5.954410937E0
8.599492917E0,-3.566547194E-1,-6.379034534E0,1.275744342E0,6.515121472E0
8.609459917E0,-4.642817867E-1,-7.634195507E0,-4.943247807E-1,7.664258321E0
8.619427917E0,-2.694981694E-2,-1.011943348E1,-5.108414108E0,1.133576442E1
8.629394917E0,2.040662183E0,-1.391721759E1,-1.144749169E1,1.813555386E1
8.639362917E0,1.153479647E0,-1.663209736E1,-1.377849357E1,2.162877858E1
8.649329917E0,-1.116837193E0,-1.791889996E1,-1.705915694E1,2.476588655E1
8.659297917E0,3.690897006E-1,-1.516120337E1,-1.796755347E1,2.351236467E1
8.669265917E0,1.341339284E0,-9.454873450E0,-1.275140675E1,1.593085676E1
8.679232917E0,1.452065375E0,-6.116762938E0,-8.525775442E0,1.059302268E1
8.689200917E0,1.278560361E0,-3.034887357E0,-6.014993320E0,6.857507018E0
8.699167917E0,1.448445949E-1,-6.633818185E-1,-4.101096141E0,4.156927345E0
8.709135917E0,-4.330681801E-2,9.870450854E-1,-2.199951739E0,2.411622097E0
8.719102917E0,-1.049467036E-1,2.351005200E0,-1.132882830E0,2.611831305E0
8.729070917E0,-7.920989156E-2,3.186824332E0,-7.459129286E-1,3.273913503E0
8.739037917E0,2.511364505E-1,3.850869225E0,1.585589468E-1,3.862305560E0
8.749005917E0,1.408180560E0,4.954256360E0,3.043040714E0,5.982284293E0
8.758973917E0,1.405834073E0,6.098169962E0,3.063965560E0,6.967921590E0
8.768940917E0,1.089928599E0,7.072010280E0,5.100321561E-1,7.173660611E0
8.778908917E0,1.550365841E0,7.655793368E0,-1.104420338E0,7.888887793E0
8.788875917E0,2.027209201E0,7.520613928E0,-1.096262303E0,7.865812230E0
8.798843917E0,2.419885985E0,6.900449465E0,1.779132307E-1,7.314622623E0
8.808810917E0,2.197295934E0,5.618424629E0,1.746133545E0,6.280428894E0
8.818778917E0,2.423356308E0,5.353293160E0,2.717451375E0,6.474175270E0
8.828745917E0,3.084926074E0,4.726609052E0,3.586527130E0,6.687359633E0
8.838713917E0,3.376707105E0,4.361456282E0,4.618761252E0,7.194262108E0
8.848680917E0,3.846874115E0,3.982178977E0,5.927108499E0,8.110906547E0
8.858648917E0,4.260075795E0,3.596712980E0,7.243559402E0,9.140773646E0
8.868616917E0,4.932738022E0,3.581695576E0,8.251514130E0,1.025904153E1
8.878583917E0,5.620734279E0,3.894737375E0,8.607865087E0,1.099349691E1
8.888551917E0,6.155133537E0,4.381067258E0,8.256725169E0,1.119164553E1
8.898518917E0,6.832956809E0,4.394629875E0,8.053637336E0,1.143954303E1
8.908486917E0,6.572090299E0,3.444505278E0,8.775563232E0,1.149206237E1
8.918453917E0,5.676022627E0,2.160486542E0,8.972110369E0,1.083437582E1
8.928421917E0,4.691082247E0,1.341196319E0,7.942526205E0,9.321415275E0
8.938388917E0,3.748748188E0,8.446975440E-1,6.919564598E0,7.914985858E0
8.948356917E0,2.785027938E0,6.575439584E-1,5.231499166E0,5.962996579E0
8.958323917E0,8.872521177E-1,2.336956680E-2,3.587357435E0,3.695523755E0
8.968291917E0,-1.376822820E0,-1.102677868E0,2.170422131E0,2.796832455E0
8.978259917E0,-3.409011802E0,-2.597307465E0,1.723023595E0,4.619110071E0
8.988226917E0,-4.642993868E0,-4.446250264E0,1.517179384E0,6.605177269E0
8.998194917E0,-5.196686014E0,-6.770254776E0,-2.476289982E-1,8.538337976E0
9.008161917E0,-5.378633823E0,-9.729512492E0,-1.179886842E0,1.117968014E1
9.018129917E0,-5.480415722E0,-1.296577269E1,-2.094690163E0,1.423144212E1
9.028096917E0,-5.612534144E0,-1.604674313E1,-3.993304474E0,1.746267405E1
9.038064917E0,-6.363895508E0,-1.642706240E1,-6.474593825E0,1.876880152E1
9.048031917E0,-7.396069404E0,-1.369677522E1,-9.400731157E0,1.818453300E1
9.057999917E0,-8.020905207E0,-9.948824594E0,-1.023277357E1,1.637142896E1
9.067967917E0,-7.602287836E0,-7.013616477E0,-1.020852049E1,1.453270405E1
9.077934917E0,-6.363214892E0,-4.518780296E0,-1.005038839E1,1.272478628E1
9.087902917E0,-4.854356096E0,-2.417562886E0,-9.015835848E0,1.052115390E1
9.097869917E0,-3.193950918E0,-5.749397582E-1,-7.322439510E0,8.009369424E0
9.107837917E0,-1.815366040E0,7.832292742E-1,-5.973006803E0,6.291725695E0
9.117804917E0,-5.866008604E-1,1.981318499E0,-5.224671373E0,5.618444137E0
9.127772917E0,2.773819703E-1,2.877352257E0,-4.630849786E0,5.459016991E0
9.137739917E0,1.000318850E0,3.597498845E0,-4.011423241E0,5.480342340E0
9.147707917E0,1.561759141E0,4.122889298E0,-3.092322217E0,5.385142939E0
9.157674917E0,1.986409377E0,4.248379317E0,-2.127581921E0,5.149869305E0
9.167642917E0,2.506030382E0,4.489667594E0,-1.033922798E0,5.244644863E0
9.177609917E0,2.912517120E0,5.217701492E0,-6.094435930E-1,6.006545290E0
9.187577917E0,3.591489954E0,5.511021218E0,-4.192862928E-1,6.591354637E0
9.197545917E0,3.363838553E0,5.568106999E0,2.046841228E-1,6.508542153E0
9.207512917E0,2.857710291E0,5.625088701E0,4.037753838E-1,6.322275346E0
9.217480917E0,2.617556958E0,5.440436554E0,3.701182258E-1,6.048714064E0
9.227447917E0,2.436560198E0,4.941229933E0,9.655483818E-1,5.593287274E0
9.237415917E0,1.980142916E0,4.472011927E0,1.693277054E0,5.175620139E0
9.247382917E0,1.649876535E0,3.948828798E0,2.431661693E0,4.922227143E0
9.257350583E0,1.373865006E0,3.608677552E0,3.237847720E0,5.039217855E0
9.267317583E0,1.307445752E0,3.706814881E0,3.686610412E0,5.388969037E0
9.277285583E0,1.111547363E0,3.964577104E0,4.057218634E0,5.780521793E0
9.287252583E0,9.986870380E-1,4.206179962E0,4.247180053E0,6.060351811E0
9.297220583E0,1.027156692E0,4.009068568E0,4.838487337E0,6.366996259E0
9.307188583E0,9.696586820E-1,3.418770513E0,6.107713788E0,7.066285976E0
9.317155583E0,8.193475252E-1,2.791745512E0,7.789705131E0,8.315327979E0
9.327123583E0,4.825549203E-1,2.156133290E0,9.363204896E0,9.620362568E0
9.337090583E0,2.342014521E-2,1.487200125E0,1.045646816E1,1.056172520E1
9.347058583E0,-7.506297313E-1,8.681805468E-1,1.076670739E1,1.082770384E1
9.357025583E0,-1.172565982E0,1.047821045E-2,9.979901376E0,1.004855473E1
9.366993583E0,-1.194545081E0,-1.222487317E0,8.464690164E0,8.635530833E0
9.376960583E0,-1.795502610E0,-2.492821814E0,7.925483326E0,8.500075068E0
9.386928583E0,-2.321197118E0,-3.315699888E0,6.893845035E0,7.994180457E0
9.396895583E0,-3.026794810E0,-4.661238935E0,5.546898564E0,7.852179246E0
9.406863583E0,-3.164237123E0,-6.155493141E0,3.565204673E0,7.785446470E0
9.416830583E0,-3.224704057E0,-8.011524519E0,9.876350695E-1,8.692448700E0
9.426798583E0,-2.844671584E0,-1.053914311E1,-3.628566856E0,1.150357299E1
9.436766583E0,-1.488813956E0,-1.508489018E1,-1.185086771E1,1.924093408E1
9.446733583E0,-1.662724183E0,-2.032917370E1,-2.219732168E1,3.014566378E1
9.456701583E0,-1.203214894E0,-2.288011743E1,-2.401596479E1,3.319207834E1
9.466668583E0,1.313541621E0,-1.653925878E1,-1.888503774E1,2.513796179E1
9.476636583E0,7.024581760E-1,-9.733577476E0,-1.392909913E1,1.700752130E1
9.486603583E0,-5.185310841E-2,-6.296181827E0,-1.074224381E1,1.245152185E1
9.496571583E0,1.078653413E-1,-2.712695249E0,-7.198903046E0,7.693799810E0
9.506538583E0,-1.024835640E-1,-7.202132463E-2,-3.476797696E0,3.479053344E0
9.516506583E0,-1.315608904E-1,1.573445971E0,-1.307685342E0,2.050141811E0
9.526473583E0,2.867971569E-2,2.743458620E0,-2.737847632E-1,2.757235177E0
9.536441583E0,3.802936967E-1,3.767028338E0,1.749528438E0,4.170848302E0
9.546409583E0,3.097625349E-1,5.110392805E0,5.801383422E0,7.737449002E0
9.556376583E0,7.850936589E-1,7.101438732E0,3.006088066E0,7.751346307E0
9.566344583E0,1.792152009E0,8.420231445E0,1.107484279E0,8.679782707E0
9.576311583E0,2.142156690E0,8.797200853E0,6.457331675E-1,9.077254511E0
9.586279583E0,2.026819777E0,8.528520709E0,8.425486922E-2,8.766456683E0
9.596246583E0,2.151864238E0,7.796269215E0,4.878729630E-1,8.102490568E0
9.606214583E0,2.539107496E0,6.865761443E0,1.692215785E0,7.513277669E0
9.616181583E0,2.822466783E0,5.609588317E0,2.466066710E0,6.746501674E0
9.626149583E0,2.704651819E0,5.170624974E0,3.101374292E0,6.608254428E0
9.636116583E0,2.766700718E0,4.849629207E0,3.788710399E0,6.747433793E0
9.646084583E0,3.523321360E0,4.836449583E0,4.223110574E0,7.323912950E0
9.656051583E0,4.141828722E0,4.667716480E0,4.947199355E0,7.963485654E0
9.666019583E0,4.564213454E0,4.613659557E0,5.608562715E0,8.577521477E0
9.675987583E0,4.980858852E0,4.497863637E0,6.080948743E0,9.056360738E0
9.685954583E0,5.539677252E0,4.312228573E0,6.215342317E0,9.376236955E0
9.695922583E0,5.899936488E0,4.323645262E0,6.158576378E0,9.561967470E0
9.705889583E0,6.044473227E0,3.922954284E0,5.998239877E0,9.375719094E0
9.715857583E0,5.419270218E0,3.134439712E0,5.592565318E0,8.394640483E0
9.725824583E0,4.749654098E0,2.396056827E0,6.193253875E0,8.164355206E0
9.735792583E0,4.618499589E0,1.582486351E0,6.879585430E0,8.435845968E0
9.745759583E0,4.679671113E0,6.589648318E-1,7.336375764E0,8.726738550E0
9.755727583E0,4.775759285E0,-6.089582741E-2,6.681353710E0,8.212921066E0
9.765694583E0,3.998655846E0,-2.531440920E-1,4.367064346E0,5.926599490E0
9.775662583E0,2.669840713E0,-5.166406792E-1,2.755200999E0,3.871188393E0
9.785629583E0,5.107116026E-1,-1.659080783E0,1.962632552E0,2.620172116E0
9.795597583E0,-2.130145048E0,-3.210146536E0,2.201192518E0,4.437094456E0
9.805564583E0,-5.093722394E0,-5.487325376E0,2.271450908E0,7.824080574E0
9.815532583E0,-6.624405338E0,-8.507891732E0,2.286565375E0,1.102249287E1
9.825500583E0,-6.524635466E0,-1.247193674E1,3.106609304E0,1.441426708E1
9.835467583E0,-8.833330799E0,-1.595214102E1,-9.858405590E-2,1.823480888E1
9.845435583E0,-1.220327706E1,-1.543171076E1,-6.534665780E0,2.073064218E1
9.855402583E0,-1.330710742E1,-1.170985860E1,-1.025242256E1,2.047711074E1
9.865370583E0,-1.249529169E1,-8.708894448E0,-1.146118119E1,1.906137013E1
9.875337583E0,-1.101094793E1,-6.476278408E0,-1.146232374E1,1.716298406E1
9.885305583E0,-8.716137979E0,-4.301824037E0,-1.101111282E1,1.468745577E1
9.895272583E0,-6.303680881E0,-2.360789931E0,-9.738325415E0,1.183827283E1
9.905240583E0,-4.229009246E0,-7.918860769E-1,-8.158358629E0,9.223362634E0
9.915207583E0,-2.657215405E0,2.911147410E-1,-6.824620433E0,7.329460114E0
9.925175583E0,-1.470333539E0,9.776854473E-1,-5.573840779E0,5.846832525E0
9.935142583E0,-2.641146380E-1,1.598129992E0,-4.148727559E0,4.453730613E0
9.945110583E0,5.348024234E-1,2.245543649E0,-2.890743551E0,3.699307799E0
9.955078583E0,1.279472819E0,2.784614248E0,-1.958840632E0,3.637057028E0
9.965045583E0,1.903884407E0,2.926104003E0,-1.378912615E0,3.753433157E0
9.975013583E0,2.566749916E0,3.148674758E0,-9.547421426E-1,4.172995378E0
9.984980583E0,3.591403708E0,3.424655151E0,-6.874588984E-1,5.009894533E0
9.994948583E0,3.913007878E0,3.649588181E0,4.148956186E-1,5.366867142E0
1.000491558E1,4.138922364E0,3.622035517E0,1.244662297E0,5.639060547E0
1.001488358E1,3.778347963E0,4.204626356E0,1.507768875E0,5.850484006E0
1.002485058E1,4.434691196E0,4.246539198E0,1.657365210E0,6.359751615E0
1.003481858E1,4.186874794E0,4.211461167E0,1.931578574E0,6.244783542E0
1.004478558E1,3.594366784E0,4.039330832E0,2.166603899E0,5.824932498E0
1.005475358E1,2.480219311E0,3.704057334E0,2.550281818E0,5.135705006E0
1.006472058E1,1.964625575E0,3.622649474E0,2.841676641E0,5.005843485E0
1.007468858E1,1.610724602E0,3.756830209E0,2.835537064E0,4.974784157E0
1.008465558E1,1.710968682E0,3.744455162E0,2.839338339E0,5.001019946E0
1.009462358E1,1.568124420E0,3.911096131E0,2.803023037E0,5.060891748E0
1.010459158E1,1.186305331E0,3.997127384E0,2.759187046E0,4.999746075E0
1.011455858E1,9.461329946E-1,4.120118303E0,2.500238423E0,4.911388260E0
1.012452658E1,6.938490281E-1,4.026640620E0,2.373171410E0,4.725167055E0
1.013449358E1,3.915801385E-1,3.602888224E0,3.014487591E0,4.713944632E0
1.014446158E1,-1.798124063E-1,2.851330394E0,4.153471990E0,5.041204924E0
1.015442858E1,-1.393399384E0,1.717524288E0,5.900072728E0,6.300976886E0
1.016439658E1,-2.715022149E0,4.023474938E-1,7.539681698E0,8.023716650E0
1.017436358E1,-3.071235403E0,-1.022877408E0,7.898231792E0,8.535855583E0
1.018433158E1,-2.082445801E0,-2.734120617E0,7.643385576E0,8.380533344E0
1.019429858E1,-1.016614163E0,-4.616144038E0,7.595105701E0,8.945832591E0
1.020426658E1,-6.384402278E-1,-5.384009169E0,6.472730902E0,8.443423831E0
1.021423358E1,-7.565873131E-1,-5.902499907E0,4.129290245E0,7.243132433E0
1.022420158E1,-1.466509168E0,-6.325922520E0,7.829749203E-1,6.540718202E0
1.023416858E1,-2.795608767E0,-7.266615558E0,-3.061190472E0,8.366003654E0
1.024413658E1,-3.201578026E0,-8.674027501E0,-6.399875765E0,1.124487727E1
1.025410467E1,-2.637041927E0,-9.735411748E0,-8.871167547E0,1.343241771E1
1.026407167E1,-2.894750648E0,-1.032533266E1,-1.016002018E1,1.477220653E1
1.027403967E1,-2.660633395E0,-9.999889498E0,-1.256474959E1,1.627727534E1
1.028400667E1,-1.868848768E0,-8.699904354E0,-1.262465081E1,1.544547635E1
1.029397467E1,-1.134086187E0,-6.523569519E0,-1.062438616E1,1.251881353E1
1.030394167E1,-9.190498611E-1,-4.668837392E0,-8.189393896E0,9.471476528E0
1.031390967E1,-8.172156304E-1,-2.629278871E0,-6.314570736E0,6.888740984E0
1.032387667E1,-8.346131435E-1,-8.679337943E-1,-4.427333937E0,4.588155834E0
1.033384467E1,-9.192974907E-1,3.962447548E-1,-2.694109290E0,2.874081183E0
1.034381167E1,-7.247498086E-1,1.430041253E0,-1.457106260E0,2.166434611E0
1.035377967E1,-1.929744887E-1,2.137899333E0,-4.464185429E-1,2.192519607E0
1.036374667E1,5.931731308E-1,2.861438475E0,1.518469865E0,3.293240842E0
1.037371467E1,1.068480135E0,3.911424744E0,2.515706062E0,4.771757571E0
1.038368167E1,1.652497695E0,4.787004942E0,1.445774356E0,5.266538563E0
1.039364967E1,2.372268600E0,5.041360577E0,1.054530140E0,5.670538651E0
1.040361667E1,2.545648484E0,5.031778160E0,7.042667198E-1,5.682878608E0
1.041358467E1,2.883395647E0,5.075559772E0,6.945509863E-1,5.878577935E0
1.042355267E1,2.970120673E0,4.490773888E0,9.781877232E-1,5.472249824E0
1.043351967E1,3.532313208E0,3.978532653E0,1.116394851E0,5.436202364E0
1.044348767E1,3.267326166E0,3.498389125E0,1.491066889E0,5.013723886E0
1.045345467E1,3.419264310E0,3.539566972E0,1.287701313E0,5.087049974E0
1.046342267E1,3.540000250E0,3.219916064E0,1.512112772E0,5.018560179E0
1.047338967E1,3.785946712E0,3.047627855E0,1.981089288E0,5.248441942E0
1.048335767E1,4.055267126E0,2.931101618E0,2.299367269E0,5.506690294E0
1.049332467E1,4.264472316E0,2.708472975E0,2.723673397E0,5.739333303E0
1.050329267E1,4.459264997E0,2.480908697E0,3.134595248E0,5.988792837E0
1.051325967E1,4.597145558E0,2.331322888E0,3.313173307E0,6.127473463E0
1.052322767E1,4.792805380E0,2.207587618E0,3.363071691E0,6.257369871E0
1.053319467E1,4.726988828E0,2.005023111E0,3.310643216E0,6.109410738E0
1.054316267E1,4.244235688E0,1.930020291E0,2.998128251E0,5.543219994E0
1.055312967E1,3.409884207E0,1.896870672E0,2.841647404E0,4.827047609E0
1.056309767E1,2.331397147E0,1.448626043E0,3.873960464E0,4.747788932E0
1.057306467E1,1.108831770E0,8.147679859E-1,5.165824994E0,5.345942633E0
1.058303267E1,6.947983235E-2,1.536993259E-1,5.848355860E0,5.850787741E0
1.059300067E1,-7.820276713E-1,-4.653512424E-1,5.936184547E0,6.005531286E0
1.060296767E1,-1.434734521E0,-1.025347272E0,5.230423279E0,5.519703601E0
1.061293567E1,-2.122839536E0,-1.513027861E0,3.676681255E0,4.507070674E0
1.062290267E1,-3.174407477E0,-2.397860109E0,2.163554576E0,4.528527833E0
1.063287067E1,-4.056374881E0,-4.053437240E0,1.233480082E0,5.865663113E0
1.064283767E1,-4.682786802E0,-5.687625257E0,6.040173769E-2,7.367579091E0
1.065280567E1,-4.809905270E0,-6.938766854E0,-1.241052811E0,8.533574060E0
1.066277267E1,-3.857058795E0,-8.236489710E0,-1.816501277E0,9.274499565E0
1.067274067E1,-4.074382551E0,-9.905835865E0,-3.168845898E0,1.116994905E1
1.068270767E1,-4.631435092E0,-9.977777667E0,-5.488870795E0,1.229365449E1
1.069267567E1,-5.219612947E0,-7.886493507E0,-6.821437794E0,1.166075267E1
1.070264267E1,-4.955764942E0,-5.801995625E0,-7.063223670E0,1.039768667E1
1.071261067E1,-4.674140524E0,-4.974510530E0,-6.761855251E0,9.608123183E0
1.072257767E1,-4.605744181E0,-4.271994467E0,-6.283374671E0,8.885021859E0
1.073254567E1,-4.409740542E0,-3.167564188E0,-5.789556259E0,7.937142824E0
1.074251267E1,-3.765863865E0,-2.013983969E0,-5.291665846E0,6.799969817E0
1.075248067E1,-2.958030385E0,-9.753576708E-1,-4.297808170E0,5.307769909E0
1.076244867E1,-2.034249541E0,-1.684524357E-1,-3.229736463E0,3.820699548E0
1.077241567E1,-1.087664265E0,5.559982878E-1,-2.681493337E0,2.946617411E0
1.078238367E1,-2.641140532E-1,1.082810199E0,-2.397594645E0,2.643992103E0
1.079235067E1,6.146534622E-1,1.475392842E0,-1.907960501E0,2.488954839E0
1.080231867E1,1.342875055E0,1.677212999E0,-1.418644445E0,2.574666759E0
1.081228567E1,2.024713902E0,2.002714046E0,-1.103535655E0,3.054197255E0
1.082225367E1,2.659509268E0,2.188670706E0,-1.070729851E0,3.606900528E0
1.083222067E1,3.194858406E0,2.291034987E0,-1.100348922E0,4.082490575E0
1.084218867E1,3.740325859E0,2.337514504E0,-1.169502187E0,4.563085245E0
1.085215567E1,3.858034695E0,2.233673217E0,-9.585434175E-1,4.559883028E0
1.086212367E1,3.827935568E0,2.249990457E0,-8.875061792E-1,4.528047591E0
1.087209067E1,3.698455701E0,2.306640621E0,-9.042993826E-1,4.451620256E0
1.088205867E1,3.265211813E0,2.120561754E0,-1.003575164E0,4.020640924E0
1.089202567E1,2.556368477E0,2.274633547E0,-1.230056537E0,3.636209104E0
1.090199367E1,2.121520551E0,2.323627367E0,-1.238307543E0,3.381345762E0
1.091196067E1,1.743942155E0,2.335162754E0,-8.550079393E-1,3.037327428E0
1.092192867E1,1.346834936E0,2.359280764E0,-3.898940939E-1,2.744483098E0
1.093189567E1,9.715417778E-1,2.478814809E0,-3.651059926E-2,2.662658316E0
1.094186367E1,5.576279068E-1,2.583188778E0,6.772046363E-1,2.728079776E0
1.095183067E1,1.939604755E-1,2.762532238E0,1.123134352E0,2.988416939E0
1.096179867E1,-7.798972383E-2,2.945819060E0,1.397427238E0,3.261400806E0
1.097176667E1,-3.022718132E-1,3.143407001E0,1.728052785E0,3.599797529E0
1.098173367E1,-4.680832078E-1,3.343354295E0,2.020735164E0,3.934525440E0
1.099170167E1,-5.401432702E-1,3.505236214E0,2.348517210E0,4.253700596E0
1.100166867E1,-6.414300554E-1,3.518068514E0,2.793678017E0,4.537937356E0
1.101163667E1,-7.682832062E-1,3.200971085E0,3.721717095E0,4.968667136E0
1.102160367E1,-1.025531751E0,2.374463645E0,5.067637964E0,5.689529639E0
1.103157167E1,-1.113969865E0,1.305442935E0,6.198119928E0,6.431314077E0
1.104153867E1,-1.144374363E0,5.125493824E-2,6.844733686E0,6.939927880E0
1.105150667E1,-1.126618854E0,-1.390767260E0,7.025876918E0,7.250272415E0
1.106147367E1,-1.362260914E0,-2.648957675E0,6.213285266E0,6.890402409E0
1.107144167E1,-2.802635659E0,-3.398393551E0,4.850134991E0,6.551919932E0
1.108140867E1,-4.776830787E0,-3.510702192E0,2.165987018E0,6.311469085E0
1.109137667E1,-6.577552768E0,-4.077288033E0,-3.814928144E-1,7.748162033E0
1.110134367E1,-8.048439746E0,-5.605118705E0,-2.859824644E0,1.021632689E1
1.111131167E1,-7.754565704E0,-7.478880011E0,-6.072078516E0,1.236677294E1
1.112127867E1,-6.364351591E0,-8.861652372E0,-8.199577991E0,1.364796443E1
1.113124667E1,-5.417589144E0,-9.814967794E0,-8.869071904E0,1.429490473E1
1.114121367E1,-4.623942762E0,-9.797909127E0,-8.182518155E0,1.357694639E1
1.115118167E1,-3.388601804E0,-9.245474718E0,-7.101623504E0,1.214061289E1
1.116114967E1,-2.325648019E0,-8.243322766E0,-5.644780954E0,1.025790237E1
1.117111667E1,-1.127515232E0,-6.934051659E0,-4.435037059E0,8.307942990E0
1.118108467E1,-5.271149428E-1,-5.645882569E0,-3.347094174E0,6.584594107E0
1.119105167E1,-5.842824394E-1,-4.190224079E0,-2.700374581E0,5.019102179E0
1.120101967E1,2.314751878E-2,-2.868027703E0,-2.175307480E0,3.599733510E0
1.121098667E1,6.477465101E-1,-1.909392484E0,-1.266717995E0,2.381161413E0
1.122095467E1,1.453092147E0,-1.173383569E0,-2.928607196E-1,1.890521935E0
1.123092167E1,2.205442567E0,-3.579098243E-1,3.010386354E-1,2.254484557E0
1.124088967E1,2.719710154E0,4.127239627E-1,3.033167106E-1,2.767519723E0
1.125085667E1,2.989980741E0,1.020723293E0,1.347771513E-1,3.162281732E0
1.126082471E1,2.942664487E0,1.404102420E0,6.621270061E-2,3.261159611E0
1.127079171E1,2.840781432E0,2.045604542E0,-7.632370591E-2,3.501480029E0
1.128075971E1,2.740168392E0,2.529138286E0,-2.853335989E-1,3.739850070E0
1.129072671E1,2.784211959E0,2.960493232E0,-6.367658776E-1,4.113614857E0
1.130069471E1,2.842727970E0,3.348380561E0,-6.277313447E-1,4.436981106E0
1.131066171E1,3.069462820E0,3.847856154E0,-5.599773180E-1,4.953904883E0
1.132062971E1,3.266768634E0,4.177751384E0,-4.601863968E-1,5.323265488E0
1.133059671E1,3.585335467E0,4.484681674E0,-4.864778173E-1,5.762261778E0
1.134056471E1,4.072255919E0,4.607236975E0,-4.423798710E-1,6.164868268E0
1.135053171E1,4.468307716E0,4.577327882E0,-4.675591511E-1,6.413759891E0
1.136049971E1,4.738626249E0,4.258202055E0,-3.798421454E-1,6.382095543E0
1.137046671E1,4.829317734E0,3.460764631E0,3.155625343E-2,5.941396923E0
1.138043471E1,4.867866088E0,2.460468585E0,6.586783183E-1,5.493986079E0
1.139040271E1,4.891912762E0,1.471344815E0,1.549940749E0,5.338350153E0
1.140036971E1,4.734403390E0,1.299982220E-1,2.772624532E0,5.488070863E0
1.141033771E1,4.290709942E0,-1.371083778E0,4.063599701E0,6.066539793E0
1.142030471E1,3.621156680E0,-2.802568123E0,5.330353364E0,7.027078395E0
1.143027271E1,2.278138076E0,-3.881908000E0,6.361655440E0,7.792931588E0
1.144023971E1,2.328340808E-1,-4.270146162E0,6.576101489E0,7.844327297E0
1.145020771E1,-2.088129002E0,-4.356618295E0,6.146727580E0,7.818098595E0
1.146017471E1,-4.412467976E0,-4.426107776E0,5.250710194E0,8.162736135E0
1.147014271E1,-7.388689048E0,-5.076633321E0,3.925455723E0,9.786426026E0
1.148010971E1,-1.041237080E1,-6.205003855E0,2.484390714E0,1.237302452E1
1.149007771E1,-1.294120737E1,-6.830228498E0,3.167922038E-1,1.463650323E1
1.150004471E1,-1.312120572E1,-7.007077535E0,-2.236855856E0,1.504223053E1
1.151001271E1,-1.148531265E1,-5.289447412E0,-5.040106934E0,1.361224958E1
1.151997971E1,-9.017300575E0,-2.859042286E0,-5.628994641E0,1.100778875E1
1.152994771E1,-6.416285976E0,-1.319128343E0,-4.275022155E0,7.822061092E0
1.153991471E1,-3.683973318E0,-4.162129962E-1,-3.201127206E0,4.898173951E0
1.154988271E1,-1.318756314E0,7.890817523E-3,-2.914333557E0,3.198831125E0
1.155984971E1,5.340801461E-1,9.853026152E-2,-1.976277030E0,2.049541586E0
1.156981771E1,1.624290289E0,6.253901196E-1,-5.312335753E-1,1.819791432E0
1.157978471E1,2.796398141E0,1.060352213E0,2.026516306E-1,2.997541837E0
1.158975271E1,3.961490943E0,1.362007729E0,7.095186889E-1,4.248751854E0
1.159971971E1,4.689601439E0,1.450115914E0,1.266705716E0,5.069491216E0
1.160968771E1,5.196676074E0,1.398656323E0,2.006548065E0,5.743510848E0
1.161965571E1,5.497598934E0,1.529039876E0,2.595227610E0,6.268713053E0
1.162962271E1,5.369664195E0,2.028920681E0,3.272140471E0,6.607322904E0
1.163959071E1,4.642869322E0,2.683101321E0,4.028438054E0,6.706980051E0
1.164955771E1,3.789141046E0,3.577544053E0,4.215577607E0,6.702798361E0
1.165952571E1,2.984974062E0,4.285355939E0,4.407066903E0,6.833489911E0
1.166949271E1,2.447149798E0,4.781835419E0,4.656323181E0,7.108856284E0
1.167946071E1,2.434091796E0,5.013469943E0,5.162089793E0,7.596502799E0
1.168942771E1,1.986658322E0,5.455578504E0,5.381267409E0,7.916324086E0
1.169939571E1,1.902658246E0,5.879925562E0,5.291124979E0,8.135701356E0
1.170936271E1,1.676360913E0,6.007287274E0,5.084034727E0,8.046433707E0
1.171933071E1,1.347482222E0,6.312309617E0,4.868951331E0,8.085026166E0
1.172929771E1,1.092112973E0,6.542734938E0,4.402963327E0,7.961543648E0
1.173926571E1,8.414849375E-1,6.609777943E0,4.049089835E0,7.796947470E0
1.174923271E1,5.399381791E-1,6.652756147E0,3.847767277E0,7.704285211E0
1.175920071E1,4.258328354E-1,6.752597355E0,3.535822999E0,7.634196023E0
1.176916771E1,1.858737762E-1,6.728771705E0,3.389421583E0,7.536517524E0
1.177913571E1,-1.250826140E-1,6.599680386E0,3.639501150E0,7.537731454E0
1.178910271E1,-3.888898346E-1,6.217749615E0,4.134062743E0,7.476772054E0
1.179907071E1,-1.039508936E0,5.448170666E0,4.813853602E0,7.344135684E0
1.180903771E1,-1.294725135E0,5.297278004E0,5.725326934E0,7.906758876E0
1.181900571E1,-1.056519801E0,4.640535114E0,6.441652951E0,8.009100635E0
1.182897271E1,3.650329024E-2,4.105880333E0,5.773443671E0,7.084648024E0
1.183894071E1,7.194229952E-1,3.649484101E0,5.406905111E0,6.562844393E0
1.184890771E1,1.150074521E0,3.367824308E0,4.922799509E0,6.074443759E0
1.185887571E1,9.224219504E-1,3.302776957E0,4.116295393E0,5.357526075E0
1.186884371E1,3.504581326E-1,3.088664199E0,3.326012623E0,4.552474866E0
1.187881071E1,-1.273485562E-1,2.812541134E0,2.685144339E0,3.890579058E0
1.188877871E1,-6.526454535E-1,2.349620579E0,2.237654001E0,3.309646263E0
1.189874571E1,-1.329381143E0,1.769527085E0,2.220783030E0,3.135340108E0
1.190871371E1,-1.739914154E0,1.494941838E0,2.169539786E0,3.157381074E0
1.191868071E1,-1.341742157E0,6.543063551E-1,2.080189653E0,2.560386263E0
1.192864871E1,-1.384857186E0,-3.193684870E-1,2.935896335E0,3.261795969E0
1.193861571E1,-1.320204815E0,-8.797749907E-1,3.486742641E0,3.830707380E0
1.194858371E1,-1.091528690E0,-1.390151548E0,3.333942617E0,3.773477120E0
1.195855071E1,-1.225023254E0,-1.921837113E0,2.472774051E0,3.362848698E0
1.196851871E1,-2.037010597E0,-1.979616959E0,1.324354584E0,3.134040609E0
1.197848571E1,-2.800359630E0,-1.425807284E0,2.380214381E-1,3.151443268E0
1.198845371E1,-2.868885197E0,-6.682572269E-1,-5.661537319E-1,2.999599980E0
1.199842071E1,-2.687274187E0,3.484244710E-1,-1.314664578E0,3.011840819E0
1.200838871E1,-2.652869170E0,1.170876868E0,-1.749891551E0,3.386855165E0
1.201835571E1,-2.129279660E0,1.846108069E0,-1.476472238E0,3.181496054E0
1.202832371E1,-1.518180428E0,2.367996624E0,-6.193207097E-1,2.880249636E0
1.203829071E1,-1.029321916E0,2.914863315E0,1.485444206E-1,3.094833953E0
1.204825871E1,-5.688481289E-1,3.510986366E0,6.679163343E-1,3.618939857E0
1.205822571E1,-2.124372384E-1,4.024744368E0,1.082004452E0,4.173060082E0
1.206819371E1,-7.121382415E-2,4.485038354E0,1.313964082E0,4.674092645E0
1.207816071E1,1.190861481E-1,4.849342108E0,1.490272252E0,5.074565181E0
1.208812871E1,3.846172741E-1,5.045522625E0,1.709413615E0,5.341097633E0
1.209809571E1,6.360142180E-1,5.021405784E0,2.092955294E0,5.477179201E0
1.210806371E1,9.280899489E-1,4.794492302E0,2.629308692E0,5.546329559E0
1.211803071E1,1.299744238E0,4.482838631E0,3.221262093E0,5.671129231E0
1.212799871E1,1.553167535E0,4.170931191E0,4.015427999E0,5.994385574E0
1.213796671E1,1.725984917E0,3.807322671E0,4.802659693E0,6.367124153E0
1.214793371E1,2.228524451E0,3.769485338E0,5.450022479E0,6.991286432E0
1.215790171E1,2.487216089E0,3.966842315E0,6.026685997E0,7.631711861E0
1.216786871E1,2.408949353E0,4.065661429E0,6.544997225E0,8.072770808E0
1.217783671E1,2.238966701E0,4.303717951E0,6.199267151E0,7.871840528E0
1.218780371E1,1.785172480E0,4.373924299E0,5.391329883E0,7.168297738E0
1.219777171E1,1.396401344E0,4.264161537E0,4.662192616E0,6.470629823E0
1.220773871E1,1.170540653E0,4.299622561E0,4.214792910E0,6.133628523E0
1.221770671E1,1.163094224E0,4.444401374E0,3.996202354E0,6.088934637E0
1.222767371E1,1.160609742E0,4.480499160E0,4.035704389E0,6.140748946E0
1.223764171E1,1.232393377E0,4.429872798E0,4.366139901E0,6.340799956E0
1.224760871E1,1.104215393E0,4.178557130E0,5.080323499E0,6.670031348E0
1.225757642E1,9.339134833E-1,3.704903426E0,6.339478120E0,7.401856972E0
1.226754342E1,4.543307027E-1,2.959605040E0,7.300254589E0,7.890462309E0
1.227751142E1,-8.110848248E-2,2.019768620E0,7.680546386E0,7.942092712E0
1.228747842E1,-7.666062248E-1,9.604425931E-1,7.538076053E0,7.637586376E0
1.229744642E1,-1.689318489E0,2.379816771E-2,6.962348675E0,7.164402444E0
1.230741342E1,-2.508108483E0,-9.784140104E-1,6.400247648E0,6.943419337E0
1.231738142E1,-2.933123877E0,-1.986776290E0,4.909390674E0,6.054140112E0
1.232734842E1,-3.348570596E0,-2.874633887E0,2.855574303E0,5.256495945E0
1.233731642E1,-3.559025336E0,-3.758538181E0,7.534499896E-1,5.230770258E0
1.234728342E1,-3.382314000E0,-4.612987127E0,-1.500418341E0,5.913624390E0
1.235725142E1,-3.279525796E0,-6.405832908E0,-2.968899189E0,7.784879388E0
1.236721842E1,-3.793400450E0,-8.494951259E0,-4.597898971E0,1.037760853E1
1.237718642E1,-4.679194565E0,-8.924455562E0,-6.791834511E0,1.215194572E1
1.238715342E1,-5.660431026E0,-7.209561936E0,-7.715047882E0,1.198082746E1
1.239712142E1,-6.382805403E0,-4.713896036E0,-7.313383927E0,1.079104282E1
1.240708842E1,-6.481668956E0,-3.007495490E0,-5.936272255E0,9.289585021E0
1.241705642E1,-6.447351063E0,-1.861823046E0,-5.076274887E0,8.414468938E0
1.242702342E1,-5.892825689E0,-6.388509947E-1,-4.389108349E0,7.375486241E0
1.243699142E1,-4.926604292E0,5.283304328E-1,-3.317869790E0,5.963121904E0
1.244695942E1,-3.759028763E0,1.349357863E0,-2.033455782E0,4.481741436E0
1.245692642E1,-2.415380413E0,2.146479537E0,-7.047122777E-1,3.307273248E0
1.246689442E1,-1.169045227E0,2.867741774E0,2.106248939E-1,3.104025205E0
1.247686142E1,7.288408130E-2,3.241444927E0,7.364188045E-1,3.324844352E0
1.248682942E1,1.194675328E0,3.531714161E0,1.073771573E0,3.879850441E0
1.249679642E1,2.006962633E0,3.629021770E0,1.082854638E0,4.286055550E0
1.250676442E1,2.484755580E0,3.788691103E0,9.749863726E-1,4.634521442E0
1.251673142E1,2.826822374E0,4.015123360E0,6.497162908E-1,4.953208211E0
1.252669942E1,3.036778346E0,4.196715074E0,2.924590158E-1,5.188446050E0
1.253666642E1,3.060603119E0,4.261269504E0,-2.974010825E-2,5.246579239E0
1.254663442E1,3.299715647E0,4.245347536E0,-2.199055946E-1,5.381399216E0
1.255660142E1,3.509552629E0,3.840602099E0,-1.858098954E-1,5.205930220E0
1.256656942E1,3.247966619E0,3.639057346E0,-1.378989798E-1,4.879655895E0
1.257653642E1,3.325350426E0,3.575215107E0,2.510794401E-2,4.882698938E0
1.258650442E1,2.850329058E0,3.325136125E0,3.145158827E-2,4.379714054E0
1.259647142E1,2.630962284E0,3.275703179E0,3.827102047E-1,4.218845928E0
1.260643942E1,2.297733557E0,3.548109754E0,7.461789769E-1,4.292487087E0
1.261640642E1,2.185869305E0,3.721272706E0,9.442259252E-1,4.417856694E0
1.262637442E1,2.060441852E0,3.773602363E0,1.416614876E0,4.526841407E0
1.263634142E1,1.981024384E0,3.688935265E0,1.917716580E0,4.605468258E0
1.264630942E1,1.964104588E0,3.521575089E0,2.586771952E0,4.790677100E0
1.265627642E1,1.798177565E0,3.176850151E0,3.410375665E0,4.995646266E0
1.266624442E1,1.424836354E0,2.930370716E0,4.298650169E0,5.394036007E0
1.267621142E1,8.578172341E-1,2.904455271E0,5.077247279E0,5.911865252E0
1.268617942E1,2.763709867E-1,2.829429063E0,5.586840894E0,6.268559716E0
1.269614642E1,-5.602345955E-1,2.489050945E0,6.407537372E0,6.896794370E0
1.270611442E1,-1.816201900E0,1.763754129E0,7.528246298E0,7.942538026E0
1.271608142E1,-2.866278800E0,9.483920664E-1,8.117983021E0,8.661215272E0
1.272604942E1,-3.410199957E0,1.562802869E-1,7.898419488E0,8.604587014E0
1.273601642E1,-3.237029695E0,-8.546682161E-1,7.623219114E0,8.326000761E0
1.274598442E1,-2.350140105E0,-1.993689453E0,7.549207397E0,8.154047367E0
1.275595142E1,-8.875903791E-1,-3.197960354E0,6.750505806E0,7.522240075E0
1.276591942E1,3.951168269E-1,-4.213561487E0,5.401384755E0,6.861863812E0
1.277588642E1,1.151949431E0,-5.202883478E0,3.820749632E0,6.557065786E0
1.278585442E1,8.230406266E-1,-6.166018714E0,1.919459050E0,6.510107964E0
1.279582142E1,-2.901622295E-2,-6.676057302E0,-9.153389257E-1,6.738577623E0
1.280578942E1,-1.223004795E0,-7.087698360E0,-3.748918927E0,8.110832380E0
1.281575642E1,-2.164393651E0,-7.548097011E0,-6.766554658E0,1.036555017E1
1.282572442E1,-3.608526109E0,-8.743865476E0,-9.370987540E0,1.331510614E1
1.283569142E1,-4.129627337E0,-9.116103902E0,-1.157264316E1,1.529977915E1
1.284565942E1,-3.789357101E0,-8.410446129E0,-1.235455856E1,1.541849372E1
1.285562742E1,-2.521189581E0,-6.898876564E0,-1.145164322E1,1.360481632E1
1.286559442E1,-1.378410631E0,-5.263066530E0,-9.050965335E0,1.056029633E1
1.287556242E1,-1.074995980E0,-3.715712589E0,-6.630238520E0,7.676079679E0
1.288552942E1,-6.816482279E-1,-1.798577807E0,-4.534109942E0,4.925208564E0
1.289549742E1,-5.309011611E-1,-4.598992985E-1,-2.481361856E0,2.578860227E0
1.290546442E1,-3.036780685E-2,6.634484768E-1,-4.286260504E-1,7.904469470E-1
1.291543242E1,6.760334390E-1,1.732198461E0,1.002990443E0,2.112705030E0
1.292539942E1,1.334660009E0,2.742937633E0,1.943350773E0,3.616854494E0
1.293536742E1,2.246792030E0,3.832207836E0,2.848155355E0,5.276919580E0
1.294533442E1,2.739366154E0,4.782300857E0,2.165808093E0,5.921592110E0
1.295530242E1,3.291451778E0,5.311307228E0,1.460360236E0,6.416875509E0
1.296526942E1,3.446147177E0,5.266705252E0,1.208209586E0,6.408891088E0
1.297523742E1,3.219005360E0,4.643568649E0,9.128942049E-1,5.723469327E0
1.298520442E1,2.872842008E0,4.147142379E0,6.142505890E-1,5.082254903E0
1.299517242E1,3.170369390E0,4.269614650E0,5.950974494E-1,5.351167378E0
1.300513942E1,2.875814440E0,3.635817989E0,8.946836364E-1,4.721222294E0
1.301510742E1,2.918963383E0,3.062455809E0,1.170258232E0,4.389588494E0
1.302507442E1,2.560180277E0,2.826492591E0,1.359303392E0,4.048615705E0
1.303504242E1,2.909372487E0,2.560195772E0,1.700127068E0,4.231959677E0
1.304500942E1,3.118134166E0,2.169242747E0,1.903506092E0,4.248730424E0
1.305497742E1,3.651761007E0,2.058400004E0,2.348937040E0,4.805192425E0
1.306494442E1,4.178490179E0,1.942104732E0,3.111870044E0,5.560151629E0
1.307491242E1,4.752022220E0,1.811441681E0,3.358864034E0,6.094670110E0
1.308487942E1,5.233811156E0,1.720246752E0,3.489517729E0,6.521407983E0
1.309484742E1,5.662792132E0,1.794007623E0,3.790309612E0,7.046426402E0
1.310481442E1,5.962521576E0,1.913108974E0,3.894249718E0,7.374064710E0
1.311478242E1,5.730906347E0,1.988058000E0,3.976308957E0,7.253047297E0
1.312474942E1,5.201047452E0,1.822908656E0,4.582392740E0,7.167441231E0
1.313471742E1,3.580155127E0,8.171688527E-1,5.797376325E0,6.862568610E0
1.314468442E1,2.339762174E0,-1.480134934E-1,6.627537106E0,7.029981730E0
1.315465242E1,9.486885202E-1,-6.155931097E-1,6.920306609E0,7.012104417E0
1.316461942E1,-6.738734776E-1,-1.092691993E0,6.403243176E0,6.530666461E0
1.317458742E1,-1.776442003E0,-1.380963233E0,5.611864053E0,6.046141231E0
1.318455442E1,-2.985897045E0,-2.177577369E0,4.341803790E0,5.701638756E0
1.319452242E1,-3.710022079E0,-3.184574323E0,1.740742412E0,5.189986666E0
1.320448942E1,-4.233179480E0,-4.890256830E0,-6.335762215E-1,6.498910617E0
1.321445742E1,-4.030281974E0,-7.444684324E0,-9.567740500E-1,8.519501984E0
1.322442442E1,-3.039495255E0,-1.009247899E1,-1.439815459E0,1.063812634E1
1.323439242E1,-3.539296246E0,-1.132423707E1,-4.210092334E0,1.258927482E1
1.324435942E1,-4.419208061E0,-1.012285177E1,-6.601015890E0,1.286759257E1
1.325432742E1,-4.593120042E0,-7.179062274E0,-6.662166656E0,1.081758529E1
1.326429467E1,-4.413500886E0,-5.429216917E0,-6.032428547E0,9.238267185E0
1.327426267E1,-4.536627168E0,-4.269837429E0,-5.965334086E0,8.625410628E0
1.328422967E1,-4.768067273E0,-3.145231918E0,-6.083994557E0,8.345174600E0
1.329419767E1,-4.894006065E0,-2.207668310E0,-5.519252343E0,7.699820852E0
1.330416467E1,-4.178672905E0,-1.055879093E0,-4.666096802E0,6.352058506E0
1.331413267E1,-3.162134464E0,-4.050073922E-2,-3.632309074E0,4.816056882E0
1.332409967E1,-2.112601646E0,7.992985922E-1,-2.953668362E0,3.718349197E0
1.333406767E1,-1.108584433E0,1.413036380E0,-2.488874359E0,3.069222513E0
1.334403467E1,-2.641906518E-1,1.935437737E0,-2.210913514E0,2.950229568E0
1.335400267E1,4.891111109E-1,2.372477930E0,-2.057110108E0,3.177984142E0
1.336396967E1,1.261773882E0,2.608475062E0,-1.799186502E0,3.410760553E0
1.337393767E1,2.012917729E0,2.737161754E0,-1.618400534E0,3.763391096E0
1.338390467E1,2.704077915E0,2.761451088E0,-1.509700211E0,4.149318523E0
1.339387267E1,3.244500682E0,2.732687464E0,-1.380610061E0,4.460991997E0
1.340383967E1,3.793046986E0,2.493992427E0,-1.227513583E0,4.702551782E0
1.341380767E1,3.862810408E0,2.416096405E0,-1.095895683E0,4.686129900E0
1.342377467E1,3.923455975E0,2.230092967E0,-1.233473065E0,4.678490914E0
1.343374267E1,3.945951091E0,1.756870787E0,-1.168319880E0,4.474605716E0
1.344370967E1,3.558393544E0,1.409591786E0,-4.574820596E-1,3.854659966E0
1.345367767E1,3.126300972E0,1.325628108E0,1.920599842E-1,3.401166665E0
1.346364467E1,2.747988751E0,1.431518260E0,7.657648104E-1,3.191720922E0
1.347361267E1,2.421886318E0,1.714077355E0,1.532015525E0,3.339261308E0
1.348357967E1,2.070916846E0,2.208296301E0,2.116167571E0,3.693701981E0
1.349354767E1,1.857498737E0,2.717966514E0,2.672185739E0,4.240073131E0
1.350351567E1,1.658798947E0,3.089138408E0,3.244996526E0,4.777488096E0
1.351348267E1,1.509230095E0,3.543098105E0,3.572897855E0,5.253276953E0
1.352344967E1,1.300138341E0,3.997344900E0,3.825285902E0,5.683479409E0
1.353341767E1,1.182997853E0,4.334112362E0,3.873524262E0,5.931964607E0
1.354338567E1,1.013412812E0,4.473640376E0,3.738599761E0,5.917566384E0
1.355335267E1,8.175348884E-1,4.399059141E0,3.711303204E0,5.813248325E0
1.356332067E1,4.875194988E-1,3.845612578E0,4.194360400E0,5.711310754E0
1.357328767E1,-4.494804373E-1,2.801684024E0,5.150324026E0,5.880246900E0
1.358325567E1,-1.256909875E0,1.788212448E0,5.979872019E0,6.366819893E0
1.359322267E1,-1.710617557E0,5.941478616E-1,6.744690165E0,6.983557083E0
1.360319067E1,-1.706050005E0,-8.328370517E-1,7.108108651E0,7.357270742E0
1.361315767E1,-1.513713740E0,-2.439632033E0,6.742268833E0,7.328118637E0
1.362312567E1,-1.147599687E0,-4.067773443E0,5.924207695E0,7.277362341E0
1.363309267E1,-8.200860286E-1,-5.325145833E0,4.996761525E0,7.348288575E0
1.364306067E1,-1.104173586E0,-6.330691509E0,3.250414556E0,7.201531023E0
1.365302767E1,-2.095446208E0,-6.879040470E0,7.178006852E-1,7.226847889E0
1.366299567E1,-3.254176362E0,-7.561247399E0,-2.324764066E0,8.553750872E0
1.367296267E1,-4.146680742E0,-7.774988274E0,-4.845774722E0,1.005618896E1
1.368293067E1,-4.359855899E0,-8.051342304E0,-7.138120070E0,1.160970346E1
1.369289767E1,-4.312145835E0,-8.477924168E0,-8.411309763E0,1.269724111E1
1.370286567E1,-4.253487445E0,-7.877668889E0,-9.103003800E0,1.276771322E1
1.371283267E1,-3.818837008E0,-6.564736256E0,-9.292964634E0,1.200160280E1
1.372280067E1,-2.924821123E0,-5.289776611E0,-8.417732345E0,1.036313336E1
1.373276767E1,-1.939205390E0,-4.274350895E0,-6.891301496E0,8.337903179E0
1.374273567E1,-1.335882662E0,-2.952808821E0,-5.165481763E0,6.098021340E0
1.375270267E1,-8.655539775E-1,-1.436532247E0,-3.476552698E0,3.859951716E0
1.376267067E1,-3.696986881E-1,-1.612837493E-1,-1.820614793E0,1.864759447E0
1.377263767E1,2.048940378E-1,9.402088881E-1,-6.660311919E-1,1.170287088E0
1.378260567E1,9.119358462E-1,1.951701182E0,4.963818312E-1,2.210692067E0
1.379257267E1,1.555631551E0,2.940746600E0,1.037037610E0,3.484742041E0
1.380254067E1,1.996299358E0,3.683945251E0,7.459626299E-1,4.255951596E0
1.381250767E1,2.146002112E0,4.164402190E0,5.145403594E-1,4.712995061E0
1.382247567E1,2.135454319E0,4.404543244E0,1.516089463E-1,4.897259602E0
1.383244267E1,2.023719583E0,4.171276762E0,-3.589687550E-1,4.650145088E0
1.384241067E1,1.677767900E0,3.966253501E0,-5.940706784E-1,4.347297083E0
1.385237767E1,2.075049073E0,4.137120252E0,-3.592353880E-1,4.642266978E0
1.386234567E1,2.442368822E0,3.460680431E0,8.294333875E-2,4.236549788E0
1.387231267E1,2.127406504E0,3.273815698E0,2.827462059E-1,3.914546344E0
1.388228067E1,2.680587019E0,3.568255166E0,5.640300232E-1,4.498457687E0
1.389224767E1,2.482899674E0,3.185071337E0,1.124167555E0,4.192042808E0
1.390221567E1,2.843492493E0,3.047582247E0,1.265415820E0,4.355971110E0
1.391218267E1,3.219106809E0,2.781857870E0,2.002197737E0,4.702146067E0
1.392215067E1,3.674028958E0,2.458835458E0,2.826747530E0,5.247367168E0
1.393211767E1,4.114194196E0,2.237283872E0,3.376469416E0,5.773437341E0
1.394208567E1,4.635407690E0,1.919003552E0,3.831917229E0,6.312936618E0
1.395205267E1,5.177177364E0,1.642484631E0,4.249853985E0,6.896533920E0
1.396202067E1,5.641760867E0,1.491441110E0,4.633172300E0,7.451184323E0
1.397198767E1,5.820460548E0,1.503433750E0,4.691484827E0,7.625490405E0
1.398195567E1,5.362817105E0,1.429534299E0,4.605432524E0,7.212030529E0
1.399192267E1,4.076285820E0,8.411623174E-1,4.930271666E0,6.452227432E0
1.400189067E1,2.597667654E0,2.408579224E-1,5.716282461E0,6.283452470E0
1.401185767E1,1.342027501E0,-3.072168034E-1,6.182289176E0,6.333728715E0
1.402182567E1,1.947763082E-1,-1.040173472E0,6.446847618E0,6.533126577E0
1.403179267E1,-9.284548151E-1,-1.550738894E0,6.257307783E0,6.513119080E0
1.404176067E1,-1.970427767E0,-1.946618782E0,4.778915319E0,5.523580533E0
1.405172767E1,-2.861820591E0,-2.598951117E0,2.470987726E0,4.588065426E0
1.406169567E1,-3.654842197E0,-3.685956693E0,4.367507565E-1,5.209116955E0
1.407166267E1,-3.534256823E0,-5.530866083E0,-5.755461144E-1,6.588831782E0
1.408163067E1,-3.142661481E0,-7.714682431E0,-1.667589067E0,8.495498778E0
1.409159767E1,-4.231564479E0,-9.364800602E0,-4.978173226E0,1.141874936E1
1.410156567E1,-5.598010830E0,-8.402531338E0,-7.534047906E0,1.259770360E1
1.411153267E1,-5.466552558E0,-5.491582734E0,-7.857739239E0,1.103561252E1
1.412150067E1,-5.008328487E0,-3.798110383E0,-6.999149880E0,9.407289501E0
1.413146767E1,-4.651346031E0,-3.237042559E0,-6.423979157E0,8.566269470E0
1.414143567E1,-4.462204977E0,-2.671919691E0,-5.995465958E0,7.937004482E0
1.415140267E1,-3.875522548E0,-2.052962093E0,-5.292404349E0,6.873417794E0
1.416137067E1,-3.393995275E0,-1.440118344E0,-3.965114463E0,5.414358455E0
1.417133767E1,-2.740319835E0,-5.273241270E-1,-2.726416910E0,3.901380871E0
1.418130567E1,-2.111834492E0,3.186486948E-1,-2.047683812E0,2.958781997E0
1.419127267E1,-1.445461238E0,1.044122096E0,-1.607931679E0,2.401040072E0
1.420124067E1,-8.680109775E-1,1.683294103E0,-1.081426163E0,2.180918302E0
1.421120767E1,-2.228341725E-1,2.144925347E0,-7.894068575E-1,2.296415250E0
1.422117567E1,6.526565632E-1,2.404223049E0,-6.481024593E-1,2.574157310E0
1.423114267E1,1.442927932E0,2.499357832E0,-4.520201755E-1,2.921156077E0
1.424111067E1,2.150329636E0,2.588921388E0,-4.878466505E-1,3.400650798E0
1.425107767E1,2.756262268E0,2.490063683E0,-4.678731465E-1,3.743835482E0
1.426104571E1,3.130865309E0,2.246114337E0,-7.424244797E-1,3.924097515E0
1.427101271E1,3.090441753E0,1.861790301E0,-1.182484176E0,3.796756797E0
1.428098071E1,3.161879525E0,1.182605213E0,-1.188183457E0,3.578801077E0
1.429094771E1,2.827085791E0,1.382642553E0,-1.143110195E0,3.348255578E0
1.430091571E1,3.050695889E0,1.321694686E0,-1.197778153E0,3.533878146E0
1.431088271E1,2.572100411E0,1.060876708E0,-1.134940465E0,3.004871008E0
1.432085071E1,2.302662468E0,8.984539211E-1,-6.008528638E-1,2.543717369E0
1.433081771E1,1.928420493E0,1.053494014E0,-1.524205399E-1,2.202699992E0
1.434078571E1,1.579015736E0,1.353891794E0,3.784037304E-1,2.114119928E0
1.435075271E1,1.307493846E0,1.697640831E0,8.173442692E-1,2.293376594E0
1.436072071E1,1.206136163E0,2.062088428E0,1.299706816E0,2.719597568E0
1.437068771E1,9.655074513E-1,2.446760958E0,1.932598329E0,3.264012886E0
1.438065571E1,8.214510611E-1,2.971204746E0,2.606933151E0,4.037194564E0
1.439062271E1,8.195934007E-1,3.488171700E0,3.079730823E0,4.724808683E0
1.440059071E1,6.873431236E-1,3.928407982E0,3.422509807E0,5.255321420E0
1.441055771E1,4.510416439E-1,4.358833805E0,3.755330983E0,5.771081485E0
1.442052471E1,3.355509487E-1,4.608784148E0,3.882755846E0,6.035667214E0
1.443049271E1,-2.815814406E-2,4.280830194E0,4.606671549E0,6.288698021E0
1.444045971E1,-1.173969752E0,3.193417068E0,5.926977521E0,6.834118823E0
1.445042771E1,-1.946566450E0,1.734343804E0,6.973736127E0,7.445137000E0
1.446039571E1,-2.120820785E0,1.855508637E-1,7.536151734E0,7.831085039E0
1.447036271E1,-2.076343939E0,-1.563239071E0,7.598972465E0,8.031145813E0
1.448032971E1,-1.338745751E0,-2.829313288E0,6.507663923E0,7.221284069E0
1.449029771E1,-5.299723309E-1,-3.879657406E0,5.202920315E0,6.511757986E0
1.450026471E1,-4.525049096E-1,-4.469073116E0,4.044057137E0,6.044151995E0
1.451023271E1,-1.570787242E0,-5.069195078E0,1.849821635E0,5.620138022E0
1.452019971E1,-3.824945302E0,-5.339209557E0,-1.062819738E0,6.653341344E0
1.453016771E1,-5.198230848E0,-5.474167972E0,-4.815793709E0,8.954327891E0
1.454013471E1,-5.941942885E0,-6.716224750E0,-7.384021216E0,1.161628725E1
1.455010271E1,-5.195960959E0,-7.762126154E0,-8.563802224E0,1.267230529E1
1.456006971E1,-3.707068650E0,-7.384555652E0,-9.774186974E0,1.279877928E1
1.457003771E1,-2.241912528E0,-6.433174489E0,-9.547516735E0,1.172889516E1
1.458000471E1,-1.603812316E0,-5.376033567E0,-8.600754873E0,1.026873581E1
1.458997271E1,-1.161396485E0,-4.134320605E0,-7.760335736E0,8.869287423E0
1.459993971E1,-7.075180641E-1,-2.840991347E0,-6.205006778E0,6.861043854E0
1.460990771E1,-4.535386974E-1,-1.502467205E0,-4.439982634E0,4.709198535E0
1.461987471E1,-1.588770354E-1,-2.030890024E-1,-2.631680907E0,2.644282786E0
1.462984271E1,3.800181466E-1,9.097320306E-1,-9.756804371E-1,1.387075512E0
1.463980971E1,7.330633798E-1,1.938375962E0,6.519382328E-1,2.172488608E0
1.464977771E1,1.242732424E0,3.120066086E0,1.751781371E0,3.787866712E0
1.465974471E1,1.551593757E0,4.005722206E0,1.482015399E0,4.544185650E0
1.466971271E1,1.719364407E0,4.463446341E0,1.025704536E0,4.891895031E0
1.467967971E1,1.820294074E0,4.547457966E0,7.536458713E-1,4.955888070E0
1.468964771E1,1.646387355E0,3.972957918E0,6.632093257E-1,4.351417304E0
1.469961471E1,1.301854791E0,3.550152771E0,3.758531749E-1,3.799957395E0
1.470958271E1,1.340240884E0,3.521955743E0,3.899589980E-1,3.788467487E0
1.471954971E1,1.536141905E0,3.390209203E0,5.334221882E-1,3.760025216E0
1.472951771E1,1.679071244E0,3.025846977E0,6.243674415E-1,3.516370980E0
1.473948471E1,1.972209706E0,2.528937142E0,9.553087378E-1,3.346303778E0
1.474945271E1,1.938739074E0,2.591956678E0,1.274542154E0,3.478707565E0
1.475941971E1,2.547415805E0,2.569354266E0,1.376986542E0,3.871304763E0
1.476938771E1,2.654650817E0,2.120009776E0,1.424856527E0,3.683996272E0
1.477935471E1,3.137880506E0,1.910392942E0,1.692380676E0,4.044755569E0
1.478932271E1,3.553163502E0,1.677424083E0,2.017030368E0,4.416688119E0
1.479928971E1,4.054088035E0,1.421352875E0,2.330404875E0,4.887398150E0
1.480925771E1,4.659385075E0,1.098732167E0,2.479091967E0,5.391009056E0
1.481922471E1,5.218976769E0,8.135751539E-1,2.460472094E0,5.826967134E0
1.482919271E1,5.752964383E0,5.918616003E-1,2.670690022E0,6.370202865E0
1.483915971E1,5.862442971E0,5.178662556E-1,2.850576103E0,6.539281854E0
1.484912771E1,4.938129154E0,4.990481615E-1,3.228291616E0,5.920813742E0
1.485909471E1,3.192976187E0,2.566951060E-1,3.982007654E0,5.110516047E0
1.486906271E1,1.770943866E0,-2.136607683E-1,4.773376837E0,5.095784486E0
1.487902971E1,7.265449038E-1,-6.066047698E-1,5.261091925E0,5.345551897E0
1.488899771E1,-3.282892916E-1,-9.050805706E-1,5.460255107E0,5.544486498E0
1.489896471E1,-1.398004651E0,-9.539761573E-1,5.035600485E0,5.312415624E0
1.490893271E1,-2.283335081E0,-1.305769794E0,3.873179861E0,4.681898769E0
1.491889971E1,-2.904025501E0,-2.056583859E0,2.604034102E0,4.409523204E0
1.492886771E1,-3.142559155E0,-3.085782691E0,1.603919320E0,4.687247598E0
1.493883471E1,-2.941775710E0,-4.391760646E0,7.418561304E-1,5.337785722E0
1.494880271E1,-2.237718028E0,-6.274661150E0,-6.698511779E-2,6.662074866E0
1.495876971E1,-2.953788230E0,-7.969337443E0,-2.079401448E0,8.749806545E0
1.496873771E1,-4.458160165E0,-7.906407369E0,-4.695742185E0,1.021941604E1
1.497870471E1,-4.950964962E0,-5.693758986E0,-6.092298188E0,9.697785451E0
1.498867271E1,-4.840554620E0,-4.193116112E0,-6.050860140E0,8.810567530E0
1.499863971E1,-4.949454042E0,-3.761547743E0,-5.675395221E0,8.417627198E0
1.500860771E1,-5.100270106E0,-3.332053381E0,-5.450179185E0,8.174337162E0
1.501857471E1,-5.067406415E0,-2.731417449E0,-5.151703969E0,7.725238044E0
1.502854271E1,-4.827379089E0,-1.839590178E0,-4.525391743E0,6.867812703E0
1.503850971E1,-4.109629860E0,-8.452033281E-1,-3.992355471E0,5.791573919E0
1.504847771E1,-3.355914114E0,-7.141146004E-2,-3.511760538E0,4.857954427E0
1.505844471E1,-2.274233305E0,5.299740851E-1,-3.027559626E0,3.823496691E0
1.506841271E1,-1.207363201E0,8.210993510E-1,-2.351138517E0,2.767631184E0
1.507837971E1,-1.858572578E-1,1.009426473E0,-1.736458157E0,2.017119644E0
1.508834671E1,9.044531643E-1,1.238654283E0,-1.256118747E0,1.982456624E0
1.509831471E1,1.798895311E0,1.448186917E0,-1.124762802E0,2.568727515E0
1.510828171E1,2.472097236E0,1.605360659E0,-1.256373101E0,3.204203638E0
1.511824971E1,2.910382594E0,1.647357116E0,-1.334407117E0,3.600660309E0
1.512821671E1,3.187593825E0,1.739706870E0,-1.413876625E0,3.896970811E0
1.513818471E1,3.036569308E0,1.547183202E0,-1.414046195E0,3.689722979E0
1.514815171E1,2.893186517E0,1.406762318E0,-1.155436710E0,3.418265998E0
1.515811971E1,2.820488962E0,1.206429108E0,-9.741543138E-1,3.218634152E0
1.516808671E1,2.856247610E0,1.063544793E0,-4.893277502E-1,3.086862417E0
1.517805471E1,2.407724946E0,1.374819564E0,-1.627993476E-1,2.777367796E0
1.518802171E1,2.192713763E0,1.590648479E0,1.171249920E-1,2.711434030E0
1.519798971E1,1.871151693E0,1.696976588E0,4.709435195E-1,2.569577008E0
1.520795671E1,1.561506249E0,2.014000341E0,7.621810520E-1,2.659965995E0
1.521792471E1,1.340235037E0,2.453827903E0,1.149462610E0,3.023039137E0
1.522789171E1,1.130682815E0,2.832337468E0,1.719098943E0,3.500839947E0
1.523785971E1,9.290898228E-1,3.317924169E0,2.131955053E0,4.051797261E0
1.524782671E1,8.827787054E-1,3.787733329E0,2.469229469E0,4.606877053E0
1.525779471E1,7.600813168E-1,4.173253706E0,2.716312922E0,5.037075142E0
1.526776192E1,5.302910042E-1,4.362424580E0,3.027183650E0,5.336271884E0
1.527772992E1,2.420335051E-1,4.405484646E0,3.319443276E0,5.521374724E0
1.528769692E1,-4.513494998E-2,4.292193673E0,3.793519734E0,5.728503789E0
1.529766492E1,-6.029508448E-1,3.692167606E0,4.660857697E0,5.976558024E0
1.530763192E1,-1.424791038E0,2.922440722E0,5.422393801E0,6.322423887E0
1.531759992E1,-1.722122246E0,2.024423003E0,6.004077737E0,6.566044700E0
1.532756692E1,-1.908101711E0,6.677233762E-1,6.594130209E0,6.897047184E0
1.533753492E1,-1.786084354E0,-7.641445470E-1,6.509986437E0,6.793668936E0
1.534750192E1,-1.229517424E0,-1.990275264E0,5.804105886E0,6.257839392E0
1.535746992E1,-7.029320928E-1,-3.341696025E0,5.399261631E0,6.388510938E0
1.536743692E1,-8.426825935E-1,-4.287662666E0,4.910488197E0,6.573207696E0
1.537740492E1,-1.957293752E0,-4.961225072E0,3.434875499E0,6.343746743E0
1.538737192E1,-3.749630240E0,-5.740648393E0,1.010845592E0,6.930842642E0
1.539733992E1,-5.193592837E0,-6.042776949E0,-2.035869513E0,8.223948230E0
1.540730692E1,-5.683064429E0,-6.355260340E0,-4.841817327E0,9.804578028E0
1.541727492E1,-4.920435480E0,-6.848396966E0,-7.216345875E0,1.109895824E1
1.542724192E1,-3.995413273E0,-6.826020257E0,-8.409783640E0,1.154479712E1
1.543720992E1,-3.433976782E0,-6.530016659E0,-9.285837463E0,1.186002072E1
1.544717692E1,-2.435395432E0,-5.607539452E0,-8.997032372E0,1.087760273E1
1.545714392E1,-1.399809102E0,-4.609276484E0,-7.710882910E0,9.091898068E0
1.546711192E1,-8.414131629E-1,-3.685491255E0,-6.350733426E0,7.390712885E0
1.547707892E1,-6.235055619E-1,-2.408885034E0,-4.643008486E0,5.267733297E0
1.548704692E1,-3.230937481E-1,-9.657670677E-1,-2.982298084E0,3.151380247E0
1.549701392E1,3.395478129E-3,3.870546860E-1,-1.595974708E0,1.642241800E0
1.550698192E1,4.277495527E-1,1.630289093E0,-7.780673522E-1,1.856394627E0
1.551694892E1,1.059026941E0,2.806968738E0,5.626190901E-2,3.000629427E0
1.552691692E1,1.436101015E0,3.746159041E0,-2.847477078E-2,4.012094777E0
1.553688392E1,1.510242540E0,4.206985123E0,-3.818693751E-1,4.486132028E0
1.554685192E1,1.263050329E0,4.342679703E0,-4.809346569E-1,4.548127227E0
1.555681892E1,1.204210967E0,4.044797394E0,-6.236458951E-1,4.266080662E0
1.556678692E1,1.118396353E0,3.570029796E0,-3.474760526E-1,3.757214760E0
1.557675392E1,1.024580117E0,3.144256602E0,-1.005457968E-1,3.308507738E0
1.558672192E1,1.491325920E0,3.238562250E0,2.153833580E-1,3.571936231E0
1.559668892E1,1.920417117E0,2.700144201E0,7.770616311E-1,3.403322698E0
1.560665692E1,1.899921749E0,2.745284706E0,9.309194165E-1,3.465963319E0
1.561662392E1,2.483006678E0,2.666209300E0,1.311467321E0,3.872201019E0
1.562659192E1,2.566848149E0,2.457613975E0,1.617431066E0,3.904440949E0
1.563655892E1,3.132909495E0,2.398297480E0,1.809965844E0,4.340844280E0
1.564652692E1,3.668143443E0,2.246329515E0,2.396598279E0,4.923916726E0
1.565649392E1,4.315049562E0,2.006906499E0,2.905938710E0,5.576002709E0
1.566646192E1,5.056563338E0,1.710374313E0,3.354264615E0,6.304387693E0
1.567642892E1,5.850390691E0,1.209736878E0,3.606935667E0,6.978575747E0
1.568639692E1,6.299400719E0,9.811873448E-1,3.668595725E0,7.355526672E0
1.569636392E1,6.462391271E0,8.018251741E-1,3.768014764E0,7.523520440E0
1.570633192E1,6.220354550E0,7.908862031E-1,3.400144792E0,7.132972474E0
1.571629892E1,5.166299204E0,2.733450526E-1,3.372246557E0,6.175549516E0
1.572626692E1,3.504469644E0,-5.321071494E-1,4.318257637E0,5.586751697E0
1.573623392E1,2.164648590E0,-1.006924449E0,4.665664108E0,5.240994365E0
1.574620092E1,7.978280175E-1,-1.389630561E0,4.851909621E0,5.109660420E0
1.575616892E1,-4.743922073E-1,-1.632589388E0,4.689850531E0,4.988496174E0
1.576613592E1,-1.573959357E0,-1.815071633E0,3.920410745E0,4.597983634E0
1.577610392E1,-2.557080668E0,-2.081167307E0,2.268125011E0,4.001788347E0
1.578607092E1,-3.187436828E0,-2.736371210E0,5.076289505E-1,4.231449879E0
1.579603892E1,-3.748242404E0,-3.812465882E0,-1.039156056E0,5.446472485E0
1.580600592E1,-3.327508048E0,-5.085417593E0,-2.048846238E0,6.413388559E0
1.581597392E1,-3.015819587E0,-6.819580718E0,-2.552799629E0,7.881537597E0
1.582594092E1,-3.762611936E0,-7.834148063E0,-4.548122794E0,9.809003283E0
1.583590892E1,-5.247990654E0,-7.362574798E0,-6.081332905E0,1.089639956E1
1.584587592E1,-5.422092669E0,-5.111422500E0,-6.514067793E0,9.897414213E0
1.585584392E1,-5.226766430E0,-3.998088666E0,-5.382502341E0,8.501478210E0
1.586581092E1,-5.452123969E0,-3.624028248E0,-4.305912995E0,7.835823073E0
1.587577892E1,-5.475965990E0,-3.013602322E0,-4.066768892E0,7.456984089E0
1.588574592E1,-5.227500840E0,-2.368337517E0,-3.552523232E0,6.749533980E0
1.589571392E1,-4.674406572E0,-1.633094003E0,-2.587278321E0,5.586687922E0
1.590568092E1,-3.830082958E0,-8.358676636E-1,-2.033375090E0,4.416200230E0
1.591564892E1,-2.848109747E0,-2.921467745E-1,-1.504926544E0,3.234483386E0
1.592561592E1,-1.780932664E0,-1.536648273E-2,-9.652244461E-1,2.025738264E0
1.593558392E1,-6.513070258E-1,4.329629302E-2,-5.819850683E-1,8.745181706E-1
1.594555092E1,4.661800852E-1,2.166791010E-1,-2.251604873E-1,5.612227274E-1
1.595551892E1,1.322377056E0,3.673665261E-1,-2.855657333E-1,1.401851287E0
1.596548592E1,1.971613875E0,6.734261656E-1,-6.997643638E-1,2.197824888E0
1.597545392E1,2.445448258E0,9.327209437E-1,-1.138100300E0,2.854024848E0
1.598542092E1,2.686540654E0,9.500058979E-1,-1.422672007E0,3.184965860E0
1.599538892E1,2.598264654E0,1.028523479E0,-1.456316301E0,3.151142163E0
1.600535592E1,2.492762173E0,1.133224307E0,-1.631269087E0,3.187334217E0
1.601532292E1,2.608960381E0,1.423787071E0,-1.485449468E0,3.322710342E0
1.602529092E1,2.522990524E0,1.516733242E0,-1.524011271E0,3.314901396E0
1.603525792E1,2.159968771E0,1.875996696E0,-1.502053807E0,3.231252750E0
1.604522592E1,2.039438945E0,2.048350394E0,-1.338468009E0,3.185364525E0
1.605519292E1,1.732061928E0,2.141517005E0,-1.172023507E0,2.993287942E0
1.606516092E1,1.546542639E0,2.265047037E0,-6.572369796E-1,2.820317830E0
1.607512792E1,1.233270752E0,2.561480405E0,-2.385985583E-1,2.852905166E0
1.608509592E1,1.030061297E0,2.944363688E0,1.325277275E-1,3.122157491E0
1.609506292E1,8.310419565E-1,3.261205008E0,4.695290780E-1,3.398020952E0
1.610503092E1,6.472516894E-1,3.543203355E0,7.560958546E-1,3.680340433E0
1.611499792E1,4.650673601E-1,3.867544314E0,1.104366544E0,4.048927282E0
1.612496592E1,2.758274880E-1,4.067776952E0,1.581420988E0,4.373074716E0
1.613493292E1,2.577598840E-2,4.229328504E0,2.107748165E0,4.725514397E0
1.614490092E1,-2.277730232E-1,4.255303005E0,2.858893182E0,5.131545035E0
1.615486792E1,-8.816639337E-1,3.769966564E0,4.139219402E0,5.667725862E0
1.616483592E1,-1.818562713E0,3.014895142E0,5.605029827E0,6.619148164E0
1.617480292E1,-2.330416277E0,2.204197987E0,6.942812542E0,7.648004628E0
1.618477092E1,-2.015114236E0,1.247604032E0,7.780826134E0,8.133784884E0
1.619473792E1,-1.097735217E0,2.754091197E-1,7.893687336E0,7.974407348E0
1.620470592E1,-3.067463949E-1,-4.159761840E-1,7.233278827E0,7.251720632E0
1.621467292E1,-3.294286215E-1,-1.030845993E0,6.140545903E0,6.235180083E0
1.622463992E1,-1.082557014E0,-1.464018838E0,4.620824735E0,4.966618777E0
1.623460792E1,-2.507164742E0,-1.652005652E0,2.871372310E0,4.154488736E0
1.624457492E1,-4.108893403E0,-2.260832364E0,8.340445018E-1,4.763401957E0
1.625454292E1,-5.721212833E0,-3.300964905E0,-1.235879779E0,6.719824731E0
1.626450979E1,-6.508976623E0,-4.290795019E0,-3.738025564E0,8.645839097E0
1.627447779E1,-6.455385722E0,-5.291512649E0,-6.491432637E0,1.057406301E1
1.628444479E1,-5.553832777E0,-6.432552930E0,-7.817636111E0,1.154721742E1
1.629441279E1,-4.169340456E0,-7.421269149E0,-8.069138305E0,1.172900800E1
1.630437979E1,-2.816913682E0,-8.266510484E0,-8.574039529E0,1.223864176E1
1.631434779E1,-1.226448805E0,-8.206271884E0,-8.415224474E0,1.181791343E1
1.632431479E1,8.306876153E-2,-7.166710031E0,-7.157556215E0,1.012912849E1
1.633428279E1,4.706853649E-1,-5.929414641E0,-5.351531394E0,8.001149352E0
1.634424979E1,2.702849123E-1,-4.354623225E0,-3.715592136E0,5.730743607E0
1.635421779E1,1.884928903E-1,-2.567072098E0,-2.495105737E0,3.584820967E0
1.636418479E1,2.121320137E-1,-1.023440495E0,-1.574187983E0,1.889576207E0
1.637415279E1,3.099758121E-1,3.954273140E-1,-6.915542883E-1,8.548070533E-1
1.638411979E1,8.015994716E-1,1.705430492E0,4.859819734E-1,1.946081539E0
1.639408779E1,1.185308381E0,2.872560464E0,5.935590470E-1,3.163680123E0
1.640405479E1,1.497623664E0,3.577207253E0,3.927457809E-2,3.878251006E0
1.641402279E1,1.472926779E0,3.644014615E0,-2.022937810E-1,3.935642081E0
1.642398979E1,1.656809432E0,3.525787423E0,-4.660581708E-2,3.895942319E0
1.643395779E1,1.340125110E0,3.126523166E0,7.722242296E-2,3.402505800E0
1.644392479E1,1.771333583E0,3.020775102E0,5.170271802E-1,3.539777109E0
1.645389179E1,1.915233852E0,2.590620005E0,7.234701455E-1,3.301945149E0
1.646385979E1,2.156955701E0,2.257997634E0,6.305356693E-1,3.185684611E0
1.647382679E1,2.342384358E0,1.909088429E0,5.036464119E-1,3.063501724E0
1.648379479E1,2.750697181E0,1.550427822E0,6.182676262E-1,3.217517097E0
1.649376179E1,3.169454008E0,1.306810014E0,6.222922647E-1,3.484313244E0
