"Time (s)","Linear Acceleration x (m/s^2)","Linear Acceleration y (m/s^2)","Linear Acceleration z (m/s^2)","Absolute acceleration (m/s^2)"
5.858333316E-4,-9.135545382E-2,-2.500094910E-2,-2.834607357E-1,2.988659483E-1
1.055283332E-2,-3.110075533E-1,6.610740504E-2,-1.159923863E-1,3.384525387E-1
2.051983331E-2,-6.060485900E-1,2.376676633E-1,2.675814521E-1,7.038328247E-1
3.048683330E-2,-9.897735424E-1,3.125700755E-1,7.422777146E-1,1.276059530E0
4.045383330E-2,-1.217008110E0,2.603895413E-1,9.962439251E-1,1.594181110E0
5.042083329E-2,-1.082185424E0,2.425586947E-1,1.188005117E0,1.625212653E0
6.038783333E-2,-6.755266316E-1,2.277745216E-1,1.296996047E0,1.480005476E0
7.035483333E-2,-3.185927077E-1,3.044256716E-1,1.329939260E0,1.401040591E0
8.032083331E-2,-1.384500799E-1,4.831389475E-1,1.350662962E0,1.441139169E0
9.028783330E-2,-3.983288852E-1,3.978258419E-1,1.318894454E0,1.434020182E0
1.002548333E-1,-8.936523338E-1,4.253837327E-1,1.180221303E0,1.540288330E0
1.102218333E-1,-4.414210738E-1,2.880202848E-1,5.229363763E-1,7.424760620E-1
1.201888333E-1,4.857793674E-3,3.809079101E-2,1.470416862E-1,1.519729055E-1
1.301558333E-1,8.100856818E-2,-1.912938528E-2,-5.583506227E-3,8.342360003E-2
1.401228333E-1,-2.933704506E-1,-1.771794051E-1,5.390606582E-2,3.469360558E-1
1.500898333E-1,-1.716109554E-1,-3.115416965E-1,-1.239656496E-1,3.766643479E-1
1.600568333E-1,2.082588181E-1,-3.042868368E-1,-5.067752570E-1,6.267243217E-1
1.700238333E-1,3.726018307E-1,-3.411857642E-1,-8.347046524E-1,9.756903744E-1
1.799908333E-1,2.003247312E-1,-3.350511579E-1,-2.225233930E-1,4.493394450E-1
1.899568333E-1,-3.796278450E-1,-1.653151122E-1,1.120459836E0,1.194519414E0
1.999238333E-1,-5.258770873E-1,-1.179273762E-1,1.743561355E0,1.824954732E0
2.098908333E-1,-8.363272548E-3,-3.216642500E-1,1.195839216E0,1.238373637E0
2.198578333E-1,5.292556085E-1,-3.656579697E-1,1.755252278E-1,6.668030860E-1
2.298248333E-1,8.154524025E-1,-1.833172274E-1,-4.239757597E-1,9.371890266E-1
2.397918333E-1,1.435611164E0,2.543991968E-1,-3.284088671E-1,1.494506859E0
2.497588333E-1,1.626732671E0,7.820025283E-1,1.782336581E-1,1.813712869E0
2.597258333E-1,1.035056573E0,1.297636902E0,7.581453037E-1,1.824825455E0
2.696928333E-1,8.076519245E-1,1.451736177E0,1.465939064E0,2.215585001E0
2.796598333E-1,6.073222232E-1,1.379673922E0,1.862727025E0,2.396266343E0
2.896268333E-1,7.968813533E-1,1.158198935E0,1.193358827E0,1.844058013E0
2.995938333E-1,3.373956283E0,7.479848894E-1,-5.081308170E0,6.145140772E0
3.095598333E-1,2.824904779E0,1.652254013E0,-5.876834139E0,6.726604629E0
3.195268333E-1,-7.295082727E-1,2.321442701E0,2.386915875E0,3.408613491E0
3.294938333E-1,-8.079475012E-1,2.238581077E0,4.238222119E0,4.860715084E0
3.394608333E-1,-3.818579730E-1,1.204090514E0,2.402840767E0,2.714644218E0
3.494278333E-1,-6.398511609E-1,5.464584093E-1,-6.270010275E-1,1.049360086E0
3.593948333E-1,-1.089549553E0,8.834433876E-1,-2.782455456E0,3.116030939E0
3.693618333E-1,-1.717012511E0,1.684773303E0,-2.876540664E0,3.749810560E0
3.793288333E-1,-1.650162756E0,1.782195663E0,-2.709637740E0,3.638872790E0
3.892958333E-1,-9.335755143E-1,1.376794168E0,-3.267251614E0,3.666341300E0
3.992628333E-1,5.601827015E-1,1.095964972E0,-4.021583948E0,4.205720073E0
4.092298333E-1,2.370433890E0,4.612874275E-1,-2.526045694E0,3.494660179E0
4.191968333E-1,1.987652788E0,-8.102134435E-1,2.729414778E0,3.472306792E0
4.291628333E-1,2.828086980E-1,-1.969512386E0,5.002605817E0,5.383774211E0
4.391298333E-1,-9.843765624E-2,-2.155563625E0,6.651201373E0,6.992469107E0
4.490968333E-1,-1.760660952E-1,-1.781472070E0,6.005207419E0,6.266351263E0
4.590638333E-1,-4.428056945E-1,-1.253635873E0,4.341051253E0,4.540088740E0
4.690308333E-1,-6.191495325E-1,-1.073543385E0,1.951548570E0,2.311792241E0
4.789978333E-1,-4.308418527E-2,-5.540482414E-1,-6.204755348E-1,8.329559353E-1
4.889648333E-1,1.764876795E-1,2.380467273E-1,-2.568240956E0,2.585280595E0
4.989318333E-1,3.621760259E-1,2.909565738E-1,-4.021203294E0,4.047950486E0
5.088988333E-1,4.878088629E-1,-1.224927360E-1,-5.048336306E0,5.073328435E0
5.188658333E-1,2.932098349E-1,-9.930552922E-2,-4.932252703E0,4.941958146E0
5.288328333E-1,3.169925897E-2,-7.692386413E-1,-4.692289989E0,4.755030838E0
5.387998333E-1,-7.654478183E-1,-2.267994911E0,-4.722265155E0,5.294289327E0
5.487658333E-1,-2.252432692E0,-4.167149505E0,-2.953961307E0,5.582515153E0
5.587328333E-1,-4.035037807E0,-5.747922329E0,-1.861852282E0,7.265441151E0
5.686998333E-1,-5.501287358E0,-7.116022273E0,-1.491680261E0,9.117403445E0
5.786668333E-1,-6.521206659E0,-7.508641169E0,-1.343125901E0,1.003542803E1
5.886336666E-1,-6.132860908E0,-7.665309711E0,-1.387791027E0,9.914379447E0
5.986006666E-1,-4.701215471E0,-7.665230774E0,-2.037234837E0,9.219952034E0
6.085676667E-1,-2.880185233E0,-7.437020379E0,-2.839227827E0,8.465574626E0
6.185346667E-1,-1.588156689E0,-7.375148651E0,-3.097878826E0,8.155483586E0
6.285016667E-1,-6.227547795E-1,-7.310219414E0,-2.652923841E0,7.801611135E0
6.384686666E-1,4.834372652E-1,-6.615170245E0,-1.542639331E0,6.809840311E0
6.484356666E-1,1.203534737E0,-6.261992573E0,-6.313139337E-1,6.407776847E0
6.584016666E-1,4.406297994E-1,-6.189912191E0,-2.265948093E-1,6.209711166E0
6.683686667E-1,-3.519941962E-1,-5.367159247E0,7.682457840E-1,5.433277085E0
6.783356667E-1,2.347078210E-1,-4.718370910E0,1.865296876E0,5.079118451E0
6.883026666E-1,1.495241801E0,-4.015374497E0,2.174455540E0,4.804918032E0
6.982696666E-1,2.922597427E0,-2.818343326E0,2.138651869E0,4.588950495E0
7.082366666E-1,4.386112821E0,-1.227103547E0,1.540349561E0,4.807956485E0
7.182036666E-1,5.146588824E0,4.423877648E-1,5.280094206E-1,5.192482779E0
7.281706667E-1,4.654826294E0,1.678874193E0,-5.999044454E-1,4.984567356E0
7.381376667E-1,4.519771107E0,2.782236185E0,-1.062544919E0,5.412778469E0
7.481046667E-1,4.761440915E0,3.696560034E0,-4.952667671E-1,6.048236507E0
7.580716666E-1,4.913039922E0,4.207168141E0,8.605920303E-1,6.525246637E0
7.680376666E-1,4.512588387E0,4.234687477E0,1.968756925E0,6.493999986E0
7.780046667E-1,3.944717621E0,3.686433241E0,2.303074989E0,5.869816143E0
7.879716667E-1,3.177718755E0,3.495690635E0,2.102533033E0,5.170918164E0
7.979386667E-1,2.720808261E0,3.989099449E0,1.027529452E0,4.936752858E0
8.079056666E-1,2.217729906E0,4.445880720E0,-1.631969583E-1,4.970997341E0
8.178726666E-1,1.783018366E0,4.784068471E0,-7.578792554E-1,5.161477171E0
8.278396666E-1,1.887854265E0,5.429975885E0,-7.275246048E-1,5.794646140E0
8.378066666E-1,2.160227803E0,5.623057378E0,-6.218706805E-1,6.055747813E0
8.477736667E-1,2.549056826E0,5.250585648E0,-2.720475554E-2,5.836701161E0
8.577406667E-1,3.252626558E0,4.667595443E0,7.743543702E-1,5.741572209E0
8.677076666E-1,2.916883821E0,3.917224597E0,7.547708756E-1,4.941916515E0
8.776736666E-1,2.291731098E0,3.569667853E0,7.018693614E-1,4.299672151E0
8.876406666E-1,1.301402216E0,3.151879617E0,2.380442423E-1,3.418282889E0
8.976076667E-1,-3.163054231E-1,1.895896964E0,-6.989451689E-1,2.045238071E0
9.075746667E-1,-2.527727938E0,-3.684330583E-3,-1.909777815E0,3.168070928E0
9.175416667E-1,-3.625203830E0,-1.243359830E0,-2.119294077E0,4.379435336E0
9.275086666E-1,-3.857426000E0,-2.511765039E0,-2.221369506E0,5.111084174E0
9.374756666E-1,-2.951992842E0,-3.040834560E0,-1.825043474E0,4.614295206E0
9.474426666E-1,-1.053223580E0,-2.665450332E0,-1.351095071E0,3.168495427E0
9.574096666E-1,1.040205631E0,-1.786287691E0,-8.526170129E-1,2.236024874E0
9.673766667E-1,1.184269038E0,-1.248186999E0,-2.188799345E0,2.784116828E0
9.773436667E-1,3.584851903E-1,-1.061918974E0,-3.366625628E0,3.548288554E0
9.873096666E-1,-1.554300433E0,-1.283787479E0,-4.088090179E0,4.558118190E0
9.972766666E-1,-3.053935246E0,-1.210855451E0,-3.478879305E0,4.784902573E0
1.007243667E0,-3.792235685E0,-1.467652591E0,-2.489342721E0,4.767796430E0
1.017210667E0,-3.500129256E0,-1.562424262E0,-1.323355880E0,4.055039478E0
1.027177667E0,-1.387895107E0,-8.219843271E-1,8.680864066E-1,1.831798316E0
1.037144667E0,1.584668532E0,2.369242081E-1,2.791660143E0,3.218800054E0
1.047111667E0,4.324357452E0,1.260621103E0,3.353568211E0,5.615661376E0
1.057078667E0,5.615423253E0,2.117489919E0,2.980235771E0,6.700637814E0
1.067045667E0,5.108213548E0,2.449999000E0,9.812645280E-1,5.749714847E0
1.077012667E0,3.742623230E0,2.346776640E0,-1.104661828E0,4.553555423E0
1.086979667E0,1.775847926E0,2.073866474E0,-2.881305560E0,3.969443253E0
1.096945667E0,2.534884930E-1,1.825107209E0,-3.976732880E0,4.382884569E0
1.106912667E0,-1.016628488E0,9.857515351E-1,-3.850474538E0,4.102608163E0
1.116879667E0,-1.889128373E0,-7.097154477E-1,-3.622886871E0,4.147024392E0
1.126846667E0,-1.653472134E0,-1.999075616E0,-3.417999265E0,4.291036284E0
1.136813667E0,-1.109768202E0,-2.791673006E0,-2.568178976E0,3.952286286E0
1.146780667E0,-1.683751940E0,-2.439722080E0,1.915136204E0,3.529165780E0
1.156747667E0,-1.643322537E0,-1.431986622E0,6.442514831E0,6.801256648E0
1.166714667E0,-5.059209788E-1,-2.854992505E0,4.530058991E0,5.378510268E0
1.176681667E0,-1.768373430E-2,-2.319342527E0,3.276116577E0,4.014050610E0
1.186648667E0,3.228896803E-1,-9.416253760E-1,1.935596781E0,2.176568628E0
1.196615667E0,8.948426807E-1,-3.943005556E-1,2.389271718E-1,1.006629299E0
1.206581667E0,1.181675506E-1,-4.991227135E-1,-9.763557905E-1,1.102886070E0
1.216548667E0,-2.399147666E-1,-2.518062490E-1,-1.593555715E0,1.631068760E0
1.226515667E0,-7.692643690E-1,-3.533946043E-1,-1.116131142E0,1.400858359E0
1.236482667E0,-1.009827007E0,-7.778270316E-1,-9.888822806E-1,1.613274199E0
1.246449667E0,-1.992128831E-1,-8.698434949E-2,-1.019405916E0,1.042324552E0
1.256416667E0,2.215901774E-1,-2.449398637E-2,-4.713478544E-1,5.214124682E-1
1.266383667E0,1.661527843E0,-7.849126875E-2,1.425597954E-1,1.669478645E0
1.276350667E0,1.479198210E0,1.428895783E-1,1.523462802E-1,1.493872205E0
1.286317667E0,4.487509972E-1,-6.830401576E-1,-4.206270593E-1,9.191563726E-1
1.296284667E0,-1.053093479E0,-1.537223639E0,-6.490526319E-1,1.973152734E0
1.306251667E0,-1.721457126E0,-1.736266369E0,3.410183877E-2,2.445239962E0
1.316217667E0,1.574579161E-1,-8.634179896E-1,5.950685057E-1,1.060372645E0
1.326184667E0,2.937857491E0,9.973081183E-1,1.199901862E0,3.326468788E0
1.336151667E0,2.522215183E0,2.319703301E0,1.244020273E0,3.645569814E0
1.346118667E0,1.290809108E0,1.873480639E0,5.293764997E-1,2.335884701E0
1.356085667E0,4.229320318E-1,1.377219261E0,1.612609452E-1,1.449692895E0
1.366052667E0,-7.062886870E-1,7.300552797E-1,-3.904893404E-1,1.088258400E0
1.376019667E0,-8.425457686E-1,2.346487641E-1,-4.462530667E-1,9.818784111E-1
1.385986667E0,-1.202210927E-1,2.637491870E-1,-3.334475590E-1,4.418189894E-1
1.395953667E0,8.895924658E-1,3.668116254E-1,-2.039608222E-1,9.836287616E-1
1.405920667E0,1.415744811E0,6.098727787E-1,5.887416722E-1,1.650119672E0
1.415886667E0,1.703278132E0,7.518724108E-1,7.395230913E-1,2.003337945E0
1.425853667E0,9.803593791E-1,5.351050168E-1,1.608282512E-1,1.128409331E0
1.435820667E0,4.287617058E-1,2.746688622E-1,-9.126056448E-2,5.173084910E-1
1.445787667E0,-5.900898939E-1,4.385575461E-1,-2.485710577E-1,7.760968850E-1
1.455754667E0,-1.738647355E0,4.843915308E-1,-5.359541056E-1,1.882757707E0
1.465721667E0,-2.198340247E0,5.985309345E-1,-1.170229069E0,2.561322938E0
1.475688667E0,-1.699960422E0,1.007508586E0,-1.515159171E0,2.490109697E0
1.485655667E0,-4.807083696E-1,1.548578932E0,-1.684948280E0,2.338424246E0
1.495622667E0,2.529745227E-1,2.285449727E0,-8.099867908E-1,2.437899744E0
1.505589667E0,1.487677842E-1,2.205598980E0,5.907354265E-1,2.288179857E0
1.515556667E0,1.308770585E-1,9.312895453E-1,2.175367121E0,2.369947496E0
1.525522667E0,-1.381792953E0,-5.357610744E-1,3.389332706E0,3.699184759E0
1.535489667E0,-3.135209790E0,-1.607324739E0,4.283760234E0,5.546497542E0
1.545456667E0,-2.312173256E0,-1.406588656E0,2.344558060E0,3.580724691E0
1.555423667E0,1.210607529E0,-5.741381049E-1,-1.643323560E0,2.120310703E0
1.565390667E0,2.638489990E0,5.439191097E-1,-3.025191504E0,4.050834612E0
1.575357667E0,2.503930062E0,1.089348555E0,-2.076175393E0,3.430284288E0
1.585324292E0,2.220786246E0,1.323160583E0,-1.001473529E0,2.772290516E0
1.595291292E0,1.232052777E0,1.326263700E0,1.011020131E-1,1.813050210E0
1.605258292E0,3.929252905E-1,9.356556612E-1,8.438116908E-1,1.319795427E0
1.615225292E0,1.571638012E-1,8.267799211E-1,9.432464435E-1,1.264112080E0
1.625192292E0,2.815451878E-1,5.186176229E-1,1.466176461E0,1.580476304E0
1.635158292E0,7.220890331E-1,4.042683041E-1,1.162038070E0,1.426596618E0
1.645125292E0,9.419270924E-1,1.110985007E0,-7.269691924E-1,1.627881611E0
1.655092292E0,1.048505462E0,1.381507024E0,-2.211687686E0,2.810602743E0
1.665059292E0,1.269355089E0,1.337641212E0,-1.974041639E0,2.701367570E0
1.675026292E0,2.632391344E0,1.109168277E0,-1.102890122E0,3.062042631E0
1.684993292E0,3.167809771E0,5.192269027E-1,-1.225656508E0,3.436109602E0
1.694960292E0,2.715389646E0,-2.551643050E-1,-5.115875520E-1,2.774918301E0
1.704927292E0,2.410871041E0,-1.703983891E-1,4.994516194E-2,2.417401354E0
1.714894292E0,1.041111219E0,-1.027120147E0,1.892868837E0,2.392036957E0
1.724861292E0,-1.043224256E0,-1.215658938E0,2.446672665E0,2.924440225E0
1.734827292E0,-2.154568575E0,-1.886595944E0,3.214550074E0,4.305199436E0
1.744794292E0,-1.446014677E0,-1.736386821E0,3.183509545E0,3.903937841E0
1.754761292E0,-1.208416285E-1,-1.544611012E0,2.811557633E0,3.210184138E0
1.764728292E0,1.254237844E0,-1.810107347E0,2.235915624E0,3.138298879E0
1.774695292E0,2.330882446E0,-1.915253148E0,1.187957169E0,3.242290831E0
1.784662292E0,2.979397865E0,-2.236501515E0,1.991251749E-1,3.730737393E0
1.794629292E0,3.454909814E0,-2.799276726E0,-9.479851002E-1,4.546540197E0
1.804596292E0,3.828003688E0,-2.915206547E0,-1.846754186E0,5.153886152E0
1.814563292E0,3.828784291E0,-2.125390969E0,-2.095844988E0,4.854836983E0
1.824530292E0,3.164785007E0,-8.041488576E-1,-1.942392415E0,3.799395717E0
1.834496292E0,1.750162715E0,-1.064713651E-1,-1.640364431E0,2.401083328E0
1.844463292E0,1.085361631E-1,2.305937201E-1,-1.705024988E0,1.723967451E0
1.854430292E0,-1.491177839E0,9.011436403E-1,-1.727532383E0,2.453576847E0
1.864397292E0,-2.465048125E0,2.141224644E0,-1.736755050E0,3.698327100E0
1.874364292E0,-2.799753858E0,3.942526669E0,-1.580905703E0,5.087376637E0
1.884331292E0,-2.817586404E0,5.825552303E0,-1.352538748E0,6.610991896E0
1.894298292E0,-2.923888200E0,7.010333850E0,-1.097111903E0,7.674474407E0
1.904265292E0,-3.044656885E0,7.387051828E0,-9.159932292E-1,8.042233138E0
1.914232292E0,-2.970300182E0,7.411390278E0,-9.271633114E-1,8.038098086E0
1.924199292E0,-3.007277097E0,7.368945340E0,-9.776741914E-1,8.018785306E0
1.934166292E0,-3.083743767E0,6.990364439E0,-9.869947994E-1,7.703819140E0
1.944132292E0,-2.757540762E0,6.337632154E0,-1.020738496E0,6.986524133E0
1.954099292E0,-1.963341527E0,4.116554425E0,-1.592663430E0,4.830870220E0
1.964066292E0,-7.514230523E-1,2.532327942E0,-2.350359668E0,3.535747725E0
1.974033292E0,-3.614514828E-1,7.876275498E-1,-1.977228956E0,2.158804919E0
1.984000292E0,-1.116285216E0,-1.970657271E0,5.675958015E-1,2.334897804E0
1.993967292E0,-1.232059209E0,-8.030611001E0,4.212564536E0,9.151742070E0
2.003934292E0,6.601980096E-1,-1.668731963E1,6.007664419E0,1.774808524E1
2.013901292E0,2.400965565E0,-2.249486310E1,6.381604970E0,2.350549688E1
2.023868292E0,1.905879769E0,-2.098161772E1,5.607969807E0,2.180160511E1
2.033835292E0,-6.262344575E-1,-1.268044260E1,3.617378209E0,1.320118250E1
2.043801292E0,-1.013845798E0,-3.263589503E0,3.527822547E-1,3.435601121E0
2.053768292E0,-8.897868857E-1,1.903521295E0,-1.811658613E0,2.774386590E0
2.063735292E0,-6.325582212E-1,4.591873416E0,-2.585855986E0,5.307737988E0
2.073702292E0,-1.599315807E-1,5.778984493E0,-3.752897957E0,6.892494683E0
2.083669292E0,9.937442404E-1,6.651111326E0,-4.932606459E0,8.339988967E0
2.093636292E0,2.963505133E0,3.192064607E0,-1.243568429E0,4.529691111E0
2.103603292E0,3.734505540E0,4.457390964E-2,2.145342253E0,4.307088558E0
2.113570292E0,2.978114986E0,-1.017835354E0,3.587979578E0,4.772709412E0
2.123537292E0,1.650370186E0,-3.954618126E-1,3.476372604E0,3.868498194E0
2.133504292E0,3.185595247E-1,3.110584241E-1,2.662393992E0,2.699366459E0
2.143471292E0,-6.432577488E-1,1.654112989E-1,1.582388118E0,1.716127497E0
2.153437292E0,-1.466367373E0,-1.734570676E-1,7.519034010E-1,1.657009158E0
2.163404292E0,-1.786473193E0,-5.435583365E-1,-9.755494595E-3,1.867361054E0
2.173371292E0,-2.102085721E0,-1.021841866E0,-5.865575910E-1,2.409766583E0
2.183338292E0,-2.311193555E0,-1.576800519E0,-1.047734068E0,2.987584677E0
2.193305292E0,-2.405415881E0,-1.978197840E0,-1.412365120E0,3.419658972E0
2.203272292E0,-2.227078142E0,-2.018710858E0,-1.761590221E0,3.484002108E0
2.213239292E0,-1.866092682E0,-1.574385619E0,-1.841451054E0,3.058093190E0
2.223206292E0,-1.648264896E0,-6.406390733E-1,-1.762966802E0,2.497047764E0
2.233173292E0,-1.147713415E0,4.024170756E-2,-1.303424183E0,1.737175892E0
2.243140292E0,-6.062431195E-1,2.855832750E-1,-9.868509579E-1,1.192880271E0
2.253106292E0,-3.394022173E-1,3.833656776E-1,-9.708472748E-1,1.097591700E0
2.263073292E0,-4.812319878E-1,8.001797676E-1,-5.317434525E-1,1.074533846E0
2.273040292E0,-5.872798683E-1,1.311517022E0,1.132015103E-1,1.441453823E0
2.283007292E0,-4.208245490E-1,1.878543159E0,3.105478160E-1,1.949989140E0
2.292974292E0,-3.407637414E-1,4.044098067E0,1.133150779E0,4.213653972E0
2.302941292E0,-1.866475090E-1,5.095384172E0,1.534772487E0,5.324782037E0
2.312908292E0,2.706923170E-1,4.773386192E0,2.108879601E0,5.225501243E0
2.322875292E0,5.523376384E-1,3.398582416E0,2.261244008E0,4.119303797E0
2.332842292E0,6.068792966E-1,3.602980610E0,2.554870713E0,4.458378194E0
2.342809292E0,7.284806246E-1,3.486211714E0,3.503244653E0,4.995706079E0
2.352775292E0,8.321198907E-1,1.391680010E0,4.316712218E0,4.611203870E0
2.362742292E0,4.006482929E-1,1.076484096E-1,4.768558731E0,4.786570756E0
2.372709292E0,4.498102203E-2,-1.093993583E0,4.752328030E0,4.876829601E0
2.382676292E0,-1.326338544E-2,-2.803279145E0,5.022469978E0,5.751847926E0
2.392643292E0,-3.004382725E-1,-4.028641537E0,3.758421237E0,5.517784518E0
2.402610292E0,1.585169638E0,-5.279990711E0,-2.059737262E0,5.885030355E0
2.412577292E0,4.745907202E0,-7.048651823E0,-1.162796367E1,1.440196746E1
2.422544292E0,5.200291407E0,-7.001036777E0,-1.128896432E1,1.426528171E1
2.432511292E0,3.842077644E0,-4.720218630E0,-4.210047310E0,7.400440722E0
2.442478292E0,2.160455259E0,-2.073637848E0,-6.217122209E-1,3.058441913E0
2.452444292E0,9.353483900E-1,-2.502994215E-1,2.262028997E-1,9.943310128E-1
2.462411292E0,-7.757910311E-2,9.371630734E-1,3.504177868E-1,1.003536630E0
2.472378292E0,-8.121203667E-1,1.389884915E0,5.107996032E-1,1.688856359E0
2.482345292E0,-9.065128461E-1,1.427310603E0,5.988805979E-1,1.793777876E0
2.492312292E0,-3.694589522E-1,1.205779483E0,5.200278251E-1,1.364123534E0
2.502279292E0,4.088273782E-1,7.890829217E-1,2.111131364E-1,9.134333248E-1
2.512246292E0,7.078419998E-1,5.693533283E-1,-1.923102450E-1,9.285401120E-1
2.522213292E0,8.281212723E-1,3.678734797E-1,-4.912780890E-1,1.030761805E0
2.532180292E0,7.937735581E-1,3.411324084E-2,-7.540157077E-1,1.095344632E0
2.542147292E0,5.748935652E-1,8.312928021E-2,-1.003813438E0,1.159764850E0
2.552113292E0,2.094016564E-1,4.172555548E-1,-1.118325894E0,1.211859751E0
2.562080292E0,-9.200184524E-2,6.869326490E-1,-9.496360615E-1,1.175648524E0
2.572047292E0,-4.003848758E-1,9.914620721E-1,-9.203564215E-1,1.410801556E0
2.582014292E0,-8.637957197E-1,1.006527423E0,-1.040990035E0,1.686090375E0
2.591980958E0,-1.121717864E0,4.566710508E-1,-5.168055707E-1,1.316771587E0
2.601947958E0,-8.889443019E-1,4.364525485E-1,-6.646003783E-2,9.925370198E-1
2.611914958E0,-2.364982384E-1,2.584720749E-1,6.933862209E-1,7.768678663E-1
2.621881958E0,4.362180752E-1,-7.419368219E-1,1.717380739E0,1.920977111E0
2.631848958E0,7.720324409E-1,-1.648008496E0,2.125756420E0,2.798357813E0
2.641815958E0,5.475016987E-1,-1.837114466E0,1.939176446E0,2.726747690E0
2.651781958E0,4.226013717E-1,-1.331905094E0,1.422169147E0,1.993772349E0
2.661748958E0,3.986231098E-1,-6.486602837E-1,7.343927443E-1,1.057824773E0
2.671715958E0,3.948344064E-1,3.485349834E-2,1.399677247E-1,4.203569183E-1
2.681682958E0,5.182590424E-1,3.027191252E-1,-1.100887451E-1,6.102055682E-1
2.691649958E0,4.521571465E-1,3.514638537E-1,-3.502578655E-1,6.713073051E-1
2.701616958E0,5.088785005E-1,2.012827975E-1,-7.186040926E-1,9.032518667E-1
2.711583958E0,5.374474114E-1,1.728670835E-2,-1.228420194E0,1.340956645E0
2.721550958E0,7.405685735E-1,-3.149111545E-1,-1.607507172E0,1.797690228E0
2.731517958E0,1.279781698E0,-6.337896448E-1,-1.642989246E0,2.176911613E0
2.741484958E0,1.497779638E0,-1.038667229E0,-1.657148278E0,2.463394786E0
2.751450958E0,1.627034972E0,-1.334537510E0,-1.829763639E0,2.788596088E0
2.761417958E0,1.622766358E0,-1.309126096E0,-2.331362064E0,3.127687782E0
2.771384958E0,1.193521526E0,-1.002086463E0,-2.678061606E0,3.098497197E0
2.781351958E0,6.452893639E-1,-5.043743902E-1,-2.385110255E0,2.521813398E0
2.791318958E0,1.756206836E-1,8.775793612E-2,-1.809210092E0,1.819831101E0
2.801285958E0,-1.002801870E-1,5.475835598E-1,-1.087391492E0,1.221607191E0
2.811252958E0,-1.299895974E-1,1.069012524E0,-4.935090941E-1,1.184582753E0
2.821219958E0,1.140370774E-1,1.839268581E0,-6.877027273E-2,1.844083164E0
2.831186958E0,-4.076327920E-2,2.672013246E0,-1.784041044E-1,2.678272663E0
2.841153958E0,-3.195102820E-1,3.027439758E0,-8.353934544E-1,3.156795928E0
2.851119958E0,-1.783525027E-1,2.134558818E0,-7.875684929E-1,2.282195236E0
2.861086958E0,2.238200131E-1,9.634012842E-1,-1.475807995E-1,1.000008762E0
2.871053958E0,5.315339760E-1,3.278101122E-1,2.363959122E-1,6.677356248E-1
2.881020958E0,7.321746030E-1,-8.781289995E-2,8.862493202E-1,1.152921772E0
2.890987958E0,9.944502917E-1,-5.843467587E-1,2.056226886E0,2.357638973E0
2.900954958E0,1.454693260E0,-1.459219444E0,3.356948487E0,3.938852245E0
2.910921958E0,1.157162077E0,-1.480579907E0,3.731793017E0,4.178207756E0
2.920888958E0,4.432531527E-1,-5.121909481E-1,3.420244596E0,3.486672629E0
2.930855958E0,-2.193178032E-1,7.167522794E-1,3.222534447E0,3.308558960E0
2.940822958E0,-6.812120256E-1,4.514570886E-1,3.818958630E0,3.905420380E0
2.950788958E0,-7.562967065E-1,-5.004731280E-1,3.634264091E0,3.745708684E0
2.960755958E0,-8.885667180E-1,-1.229461876E0,3.112531949E0,3.462511003E0
2.970722958E0,-9.573657882E-1,-1.038504092E0,2.690274101E0,3.038521802E0
2.980689958E0,-8.279091646E-1,-7.716254747E-1,2.121074554E0,2.404120780E0
2.990656958E0,-5.888653408E-1,-6.282745510E-1,1.319001458E0,1.575200352E0
3.000623958E0,-3.658632070E-1,-6.676567179E-1,1.246769195E0,1.460840445E0
3.010590958E0,-4.118378171E-1,-8.331545556E-1,8.888241416E-1,1.285988047E0
3.020557958E0,-7.545729473E-1,-9.298604858E-1,1.761507337E-1,1.210392472E0
3.030524958E0,-1.048596093E0,-8.843878591E-1,-7.311693205E-1,1.554446598E0
3.040491958E0,-1.272497967E0,-1.267345401E0,-1.667533080E0,2.450730914E0
3.050457958E0,-1.669905003E0,-1.352921156E0,6.156065583E-1,2.235609493E0
3.060424958E0,-2.046477239E0,-1.054686261E0,1.527120674E0,2.762703341E0
3.070391958E0,-2.459058822E0,1.460502908E0,-6.428465141E0,7.035993398E0
3.080358958E0,-2.029403515E0,2.526055634E0,-1.099450439E1,1.146204879E1
3.090325958E0,-9.461810879E-1,1.920367708E0,-7.057437265E0,7.374990951E0
3.100292958E0,-2.464341196E-1,1.338324167E0,-3.325502746E0,3.593161541E0
3.110259958E0,4.534046499E-1,1.058469409E0,-9.981167883E-1,1.523866920E0
3.120226958E0,1.101714832E0,8.597330743E-1,6.520892371E-1,1.542120910E0
3.130193958E0,1.452150599E0,6.103955197E-1,1.319635735E0,2.054936136E0
3.140160958E0,1.379503476E0,4.623603916E-1,1.037007204E0,1.786670343E0
3.150126958E0,9.459860833E-1,2.416186452E-1,4.934167081E-1,1.093951227E0
3.160093958E0,7.905336159E-1,-1.307642072E-1,9.500731409E-2,8.068885088E-1
3.170060958E0,6.982910116E-1,-2.501468092E-1,-2.313146818E-1,7.769750608E-1
3.180027958E0,4.836378247E-1,-2.734204817E-1,-6.762851617E-1,8.752290701E-1
3.189994958E0,2.624331249E-1,-2.064990985E-1,-1.190293424E0,1.236248947E0
3.199961958E0,7.699891314E-2,-4.898311955E-1,-1.630436151E0,1.704167091E0
3.209928958E0,5.237731129E-2,-7.785403919E-1,-1.710166737E0,1.879770941E0
3.219895958E0,2.619476599E-1,-1.117436825E0,-1.307066999E0,1.739455597E0
3.229862958E0,7.173484030E-1,-1.141234993E0,-8.085681832E-1,1.571874215E0
3.239828958E0,1.098000388E0,-6.801463705E-1,-2.143513244E-1,1.309255677E0
3.249795958E0,1.035008480E0,-1.700773770E-1,5.707996371E-1,1.194144503E0
3.259762958E0,6.715163188E-1,1.706737930E-1,1.461100493E0,1.617058552E0
3.269729958E0,3.155388531E-1,4.061037451E-1,2.146804934E0,2.207545344E0
3.279696958E0,1.127262779E-1,5.067828584E-1,2.716897351E0,2.766056271E0
3.289663958E0,2.790072039E-2,5.148835909E-1,3.194722751E0,3.236068142E0
3.299630958E0,-3.778134540E-2,5.279427624E-1,3.408697515E0,3.449546309E0
3.309597958E0,-6.810749084E-2,5.764670509E-1,3.243750485E0,3.295279973E0
3.319564958E0,-5.900776148E-2,6.789278108E-1,2.832221693E0,2.913057604E0
3.329531958E0,-1.116768488E-1,7.735609031E-1,2.295032436E0,2.424467379E0
3.339497958E0,-1.400928551E-1,8.377487129E-1,1.858458558E0,2.043359275E0
3.349464958E0,-2.634025933E-1,7.165844643E-1,1.594189407E0,1.767572937E0
3.359431958E0,-4.634413956E-1,5.435852337E-1,1.467737668E0,1.632334737E0
3.369398958E0,-6.188299821E-1,3.853128004E-1,1.533343281E0,1.697809800E0
3.379365958E0,-6.152520709E-1,1.955823469E-1,1.702627191E0,1.820913759E0
3.389332958E0,-6.376029065E-1,1.071204060E-1,1.872187820E0,1.980681570E0
3.399299958E0,-6.753257798E-1,1.912179852E-1,1.872647411E0,1.999859383E0
3.409266958E0,-6.893123196E-1,3.076576835E-1,1.771771832E0,1.925871270E0
3.419233958E0,-6.297902955E-1,4.504490286E-1,1.599807558E0,1.777336312E0
3.429200958E0,-5.026192023E-1,5.819950086E-1,1.394323536E0,1.592319810E0
3.439166958E0,-3.752212371E-1,6.088723201E-1,1.211046655E0,1.406467376E0
3.449133958E0,-2.981531806E-1,4.924022162E-1,1.074722038E0,1.219172965E0
3.459100958E0,-2.399331853E-1,3.067946345E-1,9.478336573E-1,1.024733879E0
3.469067958E0,-1.735541314E-1,1.276148969E-1,8.405267251E-1,8.676933640E-1
3.479034958E0,-1.210078356E-1,-1.279429257E-2,7.516869079E-1,7.614721253E-1
3.489001958E0,-2.989272058E-2,-1.450723439E-1,6.547861192E-1,6.713303371E-1
3.498968958E0,1.300318435E-2,-2.367444062E-1,4.863474244E-1,5.410645192E-1
3.508935958E0,6.532567799E-2,-2.283179837E-1,3.196646485E-1,3.982235972E-1
3.518902958E0,9.092683464E-2,-7.628511429E-2,1.683810997E-1,2.060080160E-1
3.528868958E0,1.261636180E-1,1.445922875E-1,7.516127944E-2,2.060907714E-1
3.538835958E0,1.012166186E-1,3.407915157E-1,2.152535498E-2,3.561558675E-1
3.548802958E0,4.692989901E-2,4.373483419E-1,-3.837352216E-2,4.415297440E-1
3.558769958E0,4.269154474E-2,4.674778748E-1,-6.543648273E-2,4.739620920E-1
3.568736958E0,6.725672096E-2,4.025831366E-1,-9.194805086E-2,4.183910759E-1
3.578703958E0,1.439189807E-1,2.610770094E-1,-1.050048834E-1,3.160694598E-1
3.588671917E0,2.004115623E-1,4.455519855E-2,-1.237858477E-1,2.397350540E-1
3.598638917E0,2.613591376E-1,-1.975616294E-1,-1.309723681E-1,3.528355955E-1
3.608605917E0,3.437592700E-1,-4.368332022E-1,-1.316480139E-1,5.712485290E-1
3.618572917E0,4.098773919E-1,-6.096733886E-1,-1.452313882E-1,7.488613178E-1
3.628538917E0,4.298475337E-1,-6.978628492E-1,-1.889352322E-1,8.411171027E-1
3.638505917E0,4.142085707E-1,-7.055478448E-1,-2.217433745E-1,8.476653971E-1
3.648472917E0,3.583169366E-1,-6.182910150E-1,-3.077521160E-1,7.780656600E-1
3.658439917E0,2.510839717E-1,-4.431277299E-1,-4.253112638E-1,6.635472982E-1
3.668406917E0,1.768839745E-1,-2.396206516E-1,-5.553086087E-1,6.301378008E-1
3.678373917E0,1.011726183E-1,-6.180390000E-2,-7.071587527E-1,7.170279787E-1
3.688340917E0,2.986699283E-2,7.863861859E-2,-8.537306151E-1,8.578648103E-1
3.698307917E0,-7.060147449E-2,1.077004498E-1,-9.736625630E-1,9.821419152E-1
3.708274917E0,-2.167827429E-1,4.799043775E-2,-1.066263455E0,1.089135252E0
3.718241917E0,-4.097262414E-1,-2.148267031E-3,-1.158069127E0,1.228415365E0
3.728207917E0,-5.453886612E-1,-5.419608772E-2,-1.206599555E0,1.325242805E0
3.738174917E0,-6.078838482E-1,-1.381451476E-1,-1.186702942E0,1.340474068E0
3.748141917E0,-6.124271348E-1,-2.989617044E-1,-1.054452957E0,1.255514291E0
3.758108917E0,-6.213833150E-1,-5.142339653E-1,-8.409784225E-1,1.165246112E0
3.768075917E0,-6.612946549E-1,-6.987510413E-1,-6.137755027E-1,1.141176588E0
3.778042917E0,-7.303667901E-1,-7.659560144E-1,-3.915839392E-1,1.128477845E0
3.788009917E0,-7.826400210E-1,-6.615066165E-1,-2.019365162E-1,1.044459077E0
3.797976917E0,-7.348000029E-1,-4.608354378E-1,-6.335048854E-2,8.696629401E-1
3.807943917E0,-6.745260268E-1,-2.624288857E-1,2.481412143E-2,7.242030251E-1
3.817909917E0,-5.740799251E-1,-1.064164013E-1,3.381766409E-2,5.848383070E-1
3.827876917E0,-4.610735656E-1,-7.094426751E-3,-2.040678263E-4,4.611281877E-1
3.837843917E0,-3.512263106E-1,4.471892059E-2,-4.827139646E-2,3.573371389E-1
3.847810917E0,-2.009598850E-1,8.016357243E-2,-7.483968258E-2,2.289367856E-1
3.857777917E0,-7.687407508E-2,1.076940179E-1,-8.501442254E-2,1.572738915E-1
3.867744917E0,1.327507988E-2,1.437789398E-1,-1.031220800E-1,1.774338600E-1
3.877711917E0,1.672164805E-1,1.702691656E-1,-8.062433302E-2,2.518992322E-1
3.887678917E0,3.470008202E-1,2.027013320E-1,-2.560671151E-2,4.026823846E-1
3.897645917E0,5.298955862E-1,2.142893440E-1,6.408782244E-2,5.751665013E-1
3.907612917E0,7.056108485E-1,2.320093310E-1,1.908607203E-1,7.669046967E-1
3.917578917E0,8.649879670E-1,2.219491965E-1,2.903858855E-1,9.390365229E-1
3.927545917E0,1.005333276E0,2.388359553E-1,4.155315033E-1,1.113734277E0
3.937512917E0,1.162660945E0,2.736935467E-1,5.276451391E-1,1.305794020E0
3.947479917E0,1.234698350E0,3.465890300E-1,6.323757881E-1,1.429861220E0
3.957446917E0,1.219208344E0,4.246008271E-1,6.713740852E-1,1.455162538E0
3.967413917E0,1.180129063E0,5.301746446E-1,6.889490613E-1,1.465755972E0
3.977380917E0,1.074602024E0,6.337943226E-1,7.187508577E-1,1.439815109E0
3.987347917E0,9.410909405E-1,6.983142543E-1,7.605660510E-1,1.397052495E0
3.997314917E0,7.550993429E-1,6.797972918E-1,7.565718180E-1,1.266767655E0
4.007281917E0,5.954417042E-1,5.819423836E-1,7.196109831E-1,1.100476137E0
4.017247917E0,4.644592497E-1,4.630146950E-1,6.821312079E-1,9.462599998E-1
4.027214917E0,2.935772958E-1,4.246867812E-1,6.013913924E-1,7.926021054E-1
4.037181917E0,1.042082003E-1,5.170084691E-1,4.876346889E-1,7.182929040E-1
4.047148917E0,-9.132561475E-2,6.969179392E-1,3.054214159E-1,7.663662461E-1
4.057115917E0,-2.899564075E-1,9.113961482E-1,1.616483232E-1,9.699731118E-1
4.067082917E0,-4.788333137E-1,1.135217623E0,6.774584055E-2,1.233932694E0
4.077049917E0,-6.792135935E-1,1.412184441E0,-8.251181424E-2,1.569204958E0
4.087016917E0,-7.744403243E-1,1.790042042E0,-2.332311067E-1,1.964282331E0
4.096983917E0,-4.619696514E-1,2.344192609E0,-3.336275071E-1,2.412459795E0
4.106950917E0,-4.157383485E-1,3.398494123E0,-5.017475286E-1,3.460397558E0
4.116916917E0,-1.750322490E0,4.358434440E0,-4.707008600E-1,4.720290128E0
4.126883917E0,-2.769950893E0,5.938846784E0,1.278459789E0,6.676600071E0
4.136850917E0,-1.584471335E0,7.237845502E0,2.062690983E0,7.691011053E0
4.146817917E0,9.038842303E-1,7.585372426E0,2.622759518E0,8.076741238E0
4.156784917E0,3.473217446E0,7.368460606E0,3.254405281E0,8.772035389E0
4.166751917E0,4.187051088E0,6.869986641E0,4.088388387E0,9.024579373E0
4.176718917E0,4.319137643E0,6.034642888E0,3.630506963E0,8.261503832E0
4.186685917E0,3.434310366E0,4.207720703E0,2.334773622E0,5.911900631E0
4.196652917E0,1.620066406E0,2.170237359E0,1.264920853E0,2.989075128E0
4.206618917E0,2.019350544E-1,6.955876976E-1,3.019183490E-1,7.847131328E-1
4.216585917E0,-9.002975482E-1,-8.565282154E-1,-1.634793788E-2,1.242756418E0
4.226552917E0,-1.391335317E0,-2.457171925E0,4.135092437E-2,2.824042799E0
4.236519917E0,-1.159951930E0,-3.924769260E0,1.551988444E-1,4.095532798E0
4.246486917E0,2.701577353E-1,-5.024392542E0,5.163082650E-1,5.058070763E0
4.256453917E0,2.209301437E0,-5.745973452E0,1.004528260E0,6.237491546E0
4.266420917E0,4.122940169E0,-5.850850282E0,1.378840986E0,7.289189744E0
4.276387917E0,4.655085910E0,-5.587740780E0,1.617674018E0,7.450472541E0
4.286354917E0,2.746522269E0,-5.269962736E0,1.285317403E-1,5.944107353E0
4.296320917E0,-7.130913377E-2,-5.011589479E0,-2.706548656E0,5.696184664E0
4.306287917E0,-1.756767145E0,-4.909741507E0,-4.336555914E0,6.782146391E0
4.316254917E0,-2.119325652E0,-5.011510541E0,-4.826048555E0,7.273068389E0
4.326221917E0,-1.867791299E0,-5.490596893E0,-5.177598948E0,7.774498662E0
4.336188917E0,-1.533800533E0,-6.509406978E0,-4.982545189E0,8.339705021E0
4.346155917E0,-1.279249747E0,-8.133448321E0,-4.309732397E0,9.293183246E0
4.356122917E0,-7.144579782E-1,-9.848114491E0,-2.708742532E0,1.023880341E1
4.366089917E0,-6.575194001E-4,-1.170814653E1,-4.644724059E-1,1.171735594E1
4.376056917E0,7.095185427E-1,-1.400544038E1,1.776385285E0,1.413546326E1
4.386023917E0,1.520864007E0,-1.646851449E1,3.658953667E0,1.693850462E1
4.395989917E0,1.996095875E0,-1.860452341E1,4.878543688E0,1.933682701E1
4.405956917E0,2.032506779E0,-1.962117880E1,5.407193964E0,2.045383797E1
4.415923917E0,2.538672171E0,-1.853855279E1,5.209044689E0,1.942310332E1
4.425890917E0,3.265902076E0,-1.564654682E1,4.223856094E0,1.653243794E1
4.435857917E0,3.335030783E0,-1.222261146E1,2.600623421E0,1.293359592E1
4.445824917E0,2.971256787E0,-8.670892809E0,8.936328918E-1,9.209306637E0
4.455791917E0,2.719886447E0,-5.718741215E0,7.380063236E-2,6.333026915E0
4.465758917E0,2.801501006E0,-3.268621616E0,3.140574610E-1,4.316355783E0
4.475725917E0,2.728372512E0,-1.549865320E0,7.713155723E-1,3.231257771E0
4.485691917E0,2.487127796E0,1.166016662E-1,1.107373767E0,2.725009593E0
4.495658917E0,2.280020294E0,1.460792930E0,9.170524523E-1,2.858914781E0
4.505625917E0,2.603893184E0,2.839894994E0,8.959138906E-1,3.955745820E0
4.515592917E0,2.481463598E0,4.201629074E0,7.274094146E-1,4.933606482E0
4.525559917E0,1.602222897E0,5.441701307E0,4.100971010E-1,5.687478435E0
4.535526917E0,1.144667747E0,6.526153404E0,4.218176986E-1,6.639192170E0
4.545493917E0,7.195548499E-1,7.553687534E0,3.720361125E-1,7.596997131E0
4.555460917E0,4.338658865E-1,8.756353959E0,4.959871441E-2,8.767236411E0
4.565427917E0,-1.230546534E-1,9.818718199E0,-2.001314807E-1,9.821528502E0
4.575393917E0,-8.706435402E-1,1.074399681E1,-4.107733315E-1,1.078703955E1
4.585360542E0,-1.290277742E0,1.163826061E1,-6.033053322E-1,1.172509719E1
4.595327542E0,-1.732004041E0,1.237027120E1,-8.784384634E-1,1.252178509E1
4.605294542E0,-2.032707631E0,1.313248383E1,-1.008847745E0,1.332710792E1
4.615261542E0,-2.182804633E0,1.426914747E1,-7.415643543E-1,1.445417321E1
4.625228542E0,-1.724189529E0,1.546031183E1,-2.427658689E-1,1.555805280E1
4.635195542E0,-5.936020240E-1,1.605480761E1,6.609535430E-1,1.607936784E1
4.645162542E0,4.014334278E-1,1.567151093E1,1.881877826E0,1.578920098E1
4.655129542E0,1.187974711E0,1.508527142E1,2.721072555E0,1.537468483E1
4.665096542E0,1.192614623E0,1.451982930E1,3.405831794E0,1.496153276E1
4.675062542E0,6.673495929E-1,1.369000648E1,3.908898747E0,1.425275842E1
4.685029542E0,4.840705186E-2,1.321698779E1,4.202869853E0,1.386921860E1
4.694996542E0,-5.310330158E-1,1.292601864E1,4.211059463E0,1.360503494E1
4.704963542E0,-7.345226987E-1,1.250437826E1,4.153594197E0,1.319664139E1
4.714930542E0,-8.549212544E-1,1.202332081E1,4.106163923E0,1.273388063E1
4.724897542E0,-1.040066906E0,1.154597986E1,3.857714560E0,1.221774740E1
4.734864542E0,-1.244659374E0,1.108059061E1,3.509944392E0,1.168966957E1
4.744831542E0,-1.387201774E0,1.062806289E1,3.339375265E0,1.122637416E1
4.754798542E0,-1.430560778E0,1.013944499E1,3.151027093E0,1.071372114E1
4.764764542E0,-1.536407661E0,9.580356452E0,2.717726194E0,1.007620037E1
4.774731542E0,-1.750377016E0,9.028475189E0,2.271260873E0,9.472898706E0
4.784698542E0,-1.883164506E0,8.493119327E0,1.944124360E0,8.913978011E0
4.794665542E0,-2.165943895E0,7.752280027E0,1.895807648E0,8.269416256E0
4.804632542E0,-2.554074322E0,6.322989557E0,2.207154340E0,7.167637188E0
4.814599542E0,-2.380460841E0,2.556535415E0,3.072419465E0,4.652120862E0
4.824566542E0,-4.649998248E-3,-4.191864808E0,5.429828535E0,6.859649416E0
4.834533542E0,7.460412165E0,-1.488527326E1,1.136103710E1,2.015694108E1
4.844500542E0,1.849309653E1,-2.707321658E1,1.991796475E1,3.836246858E1
4.854467542E0,2.570115573E1,-4.018781027E1,2.610071235E1,5.437698673E1
4.864433542E0,2.249498472E1,-4.703763629E1,1.955091398E1,5.568484357E1
4.874400542E0,9.449563594E0,-3.713935269E1,8.549651377E0,3.926477186E1
4.884367542E0,3.706713432E0,-1.978497100E1,2.435369997E0,2.027599145E1
4.894334542E0,8.974277347E-1,-1.130553767E1,-1.172878370E-1,1.134170688E1
4.904301542E0,9.211604136E-1,-7.803242020E0,-1.751212144E0,8.050209097E0
4.914268542E0,2.074097731E0,-7.433727227E0,-2.612772181E0,8.147929820E0
4.924235542E0,1.726326248E0,-9.451123046E0,-7.514165618E0,1.219699201E1
4.934202542E0,9.819433898E-1,-1.306333933E1,-2.430222108E1,2.760820525E1
4.944169542E0,6.096132208E0,-9.972853142E0,-2.039212717E1,2.350445656E1
4.954135542E0,7.222702968E0,-6.646089737E0,-1.106960720E1,1.479439591E1
4.964102542E0,5.326867254E0,-7.236289558E0,-1.125505047E1,1.440192912E1
4.974069542E0,1.175545139E0,-7.885780147E0,-1.466522148E1,1.669239815E1
4.984036542E0,-2.796155701E-1,-3.493487989E0,-1.345550156E1,1.390442971E1
4.994003542E0,-8.810255639E-3,-6.622685087E-1,-1.046902330E1,1.048995358E1
5.003970542E0,1.028160806E0,-2.099612349E-1,-7.236704126E0,7.312392561E0
5.013937542E0,2.383203185E0,-8.670251369E-3,-3.679344954E0,4.383755455E0
5.023904542E0,3.129331584E0,2.627972603E-1,-1.730821441E0,3.585738616E0
5.033871542E0,3.364850706E0,5.389478070E-1,-9.631735352E-1,3.541241064E0
5.043837542E0,3.110259721E0,1.206004601E0,-9.670575482E-1,3.473235225E0
5.053804542E0,2.666202284E0,1.858270862E0,-1.079647440E0,3.424535561E0
5.063771542E0,2.085654461E0,2.508217533E0,-9.792203414E-1,3.405874660E0
5.073738542E0,1.435370405E0,3.248715355E0,-1.078545240E0,3.711832363E0
5.083705542E0,9.313050404E-1,3.890070128E0,-1.064835273E0,4.139305357E0
5.093672542E0,5.956918189E-1,4.539678245E0,-9.404629496E-1,4.674184193E0
5.103639542E0,3.878042990E-1,5.257668380E0,-9.117583832E-1,5.350212362E0
5.113606542E0,4.203968252E-1,5.970683704E0,-1.001625702E0,6.068694376E0
5.123573542E0,9.392943835E-1,6.599205008E0,-9.885226768E-1,6.738616902E0
5.133540542E0,1.850688047E0,7.147076835E0,-7.639664993E-1,7.422223275E0
5.143506542E0,3.263860521E0,7.440312361E0,-3.970388067E-1,8.134412907E0
5.153473542E0,5.714597878E0,7.572981007E0,5.053716329E-1,9.500635280E0
5.163440542E0,8.805112136E0,7.352895902E0,2.016307068E0,1.164734185E1
5.173407542E0,1.155956060E1,6.804028879E0,2.748584290E0,1.369207675E1
5.183374542E0,1.307924142E1,6.003126395E0,3.341793088E0,1.477401989E1
5.193341542E0,1.147467423E1,4.627046172E0,3.615562064E0,1.288991831E1
5.203308542E0,8.079879055E0,3.483883352E0,4.025198697E0,9.675955421E0
5.213275542E0,5.058310486E0,2.978373433E0,4.617711677E0,7.468632700E0
5.223242542E0,3.436754209E0,2.566331255E0,5.466412809E0,6.948309479E0
5.233208542E0,2.506739065E0,1.859562512E0,5.880459412E0,6.657440678E0
5.243175542E0,1.462190414E0,1.166204942E0,5.940700936E0,6.228158828E0
5.253142542E0,4.335154921E-1,5.976994604E-1,5.863604813E0,5.909910467E0
5.263109542E0,-6.715804920E-1,-6.305169582E-2,5.341979967E0,5.384398374E0
5.273076542E0,-1.543694461E0,-5.102116656E-1,4.724254963E0,4.996187895E0
5.283043542E0,-1.539689995E0,-5.930760670E-1,4.107409379E0,4.426420259E0
5.293010542E0,-1.212885604E0,-2.810154301E-1,3.449915122E0,3.667693487E0
5.302977542E0,-1.291359623E0,1.019894743E-1,2.532474707E0,2.844545600E0
5.312944542E0,-1.474769237E0,3.616122812E-1,1.213370192E0,1.943701357E0
5.322910542E0,-2.166919941E0,4.043519193E-1,-1.248909715E-1,2.207858750E0
5.332877542E0,-2.833593450E0,3.714946604E-1,-1.374321088E0,3.171122605E0
5.342844542E0,-3.325091979E0,1.624467605E-1,-2.477852065E0,4.149985117E0
5.352811542E0,-3.417485295E0,-1.902298057E-1,-3.493635631E0,4.890897979E0
5.362778542E0,-3.442249715E0,-7.183281040E-1,-4.226875597E0,5.498322988E0
5.372745542E0,-3.314985943E0,-1.695900115E0,-4.602292569E0,5.919992052E0
5.382712542E0,-2.439681734E0,-3.214575802E0,-4.433292542E0,5.994966832E0
5.392679542E0,-1.214723969E0,-5.173638629E0,-3.995554191E0,6.648800213E0
5.402646542E0,-3.944499519E-1,-7.475099201E0,-3.431436167E0,8.234528098E0
5.412613542E0,-3.324114324E-1,-9.908360692E0,-2.712354649E0,1.027827693E1
5.422579542E0,-4.253643273E-1,-1.223691960E1,-1.599146823E0,1.234829570E1
5.432546542E0,-6.435420696E-1,-1.468516166E1,-7.495680231E-1,1.471835492E1
5.442513542E0,-8.288037886E-1,-1.668591396E1,1.652326664E-1,1.670730207E1
5.452480542E0,-7.949940182E-1,-1.791451922E1,8.802149937E-1,1.795374036E1
5.462447542E0,-3.944227624E-1,-1.824923490E1,1.149660246E0,1.828966545E1
5.472414542E0,2.795644435E-1,-1.773329998E1,1.302298594E0,1.778325240E1
5.482381542E0,1.171185016E0,-1.682491865E1,1.387666189E0,1.692262330E1
5.492348542E0,2.042146206E0,-1.583246606E1,1.449063123E0,1.602925846E1
5.502315542E0,2.585908318E0,-1.470014924E1,1.307626285E0,1.498303027E1
5.512281542E0,3.278760104E0,-1.319517300E1,1.222425921E0,1.365127039E1
5.522248542E0,3.754997107E0,-1.106664617E1,1.123558275E0,1.174023185E1
5.532215542E0,3.348290514E0,-8.307915203E0,8.695280376E-1,8.999365722E0
5.542182542E0,2.389526803E0,-5.301662246E0,4.817193532E-1,5.835196179E0
5.552149542E0,1.842838452E0,-2.778868774E0,6.579240274E-1,3.398680516E0
5.562116542E0,2.416509657E0,-6.277898169E-1,1.195436051E0,2.768159375E0
5.572083542E0,2.848749725E0,1.168585344E0,1.237781294E0,3.318594467E0
5.582050542E0,2.137963944E0,2.413983806E0,8.957256103E-1,3.346719590E0
5.592017083E0,1.788824944E0,3.557845953E0,7.589832097E-1,4.053913913E0
5.601983083E0,1.333386924E0,4.958278660E0,6.121268803E-1,5.170797547E0
5.611950083E0,9.329782212E-1,6.382138821E0,3.907144582E-1,6.461795577E0
5.621917083E0,8.183825885E-1,7.658087230E0,5.213107042E-1,7.719314409E0
5.631884083E0,5.551814318E-1,8.687595381E0,9.543708444E-1,8.757474729E0
5.641851083E0,2.009980381E-2,9.591623452E0,9.072479872E-1,9.634456049E0
5.651818083E0,-4.330896686E-1,1.047871565E1,3.620515533E-1,1.049390917E1
5.661785083E0,-1.145813655E0,1.090752472E1,1.419440836E-1,1.096846081E1
5.671752083E0,-1.392209475E0,1.112306946E1,1.450150412E-1,1.121079617E1
5.681719083E0,-1.446008537E0,1.123114004E1,-2.235630280E-1,1.132605084E1
5.691686083E0,-1.417859164E0,1.143101658E1,-4.960298288E-1,1.152928923E1
5.701652083E0,-1.244238959E0,1.204689328E1,-3.410043544E-1,1.211577700E1
5.711619083E0,-7.897522818E-1,1.316368340E1,-6.857910533E-2,1.318753095E1
5.721586083E0,-4.032046956E-1,1.466617107E1,3.344583964E-1,1.467552419E1
5.731553083E0,1.260903816E-1,1.593318552E1,1.006156125E0,1.596542044E1
5.741520083E0,8.023052305E-2,1.595112478E1,2.303220584E0,1.611675041E1
5.751487083E0,-4.338943917E-1,1.535362471E1,4.781727830E0,1.608685728E1
5.761454083E0,-4.316079842E-1,1.523261658E1,6.571106797E0,1.659512994E1
5.771421083E0,-2.724005811E-1,1.505369997E1,6.651977298E0,1.646016059E1
5.781388083E0,-9.979369864E-2,1.456761508E1,6.494083765E0,1.594987435E1
5.791354083E0,-7.211371064E-3,1.393310565E1,6.035326427E0,1.518409200E1
5.801321083E0,-2.153433046E-1,1.306598461E1,5.181900744E0,1.405768196E1
5.811288083E0,-6.621930796E-1,1.213663634E1,4.430959210E0,1.293714965E1
5.821255083E0,-1.143124959E0,1.137511954E1,3.723729122E0,1.202357009E1
5.831222083E0,-1.564773088E0,1.078564886E1,3.022147443E0,1.130982367E1
5.841189083E0,-1.926491204E0,1.018818621E1,2.444801264E0,1.065305402E1
5.851156083E0,-2.215005835E0,9.651315338E0,2.023098024E0,1.010678308E1
5.861123083E0,-2.409933732E0,9.264489863E0,1.795448377E0,9.739722167E0
5.871090083E0,-2.529885560E0,9.005312029E0,1.687050208E0,9.504846348E0
5.881057083E0,-2.694973216E0,8.728682595E0,1.604119295E0,9.275019094E0
5.891023083E0,-2.741282579E0,8.266649063E0,1.642128682E0,8.862770646E0
5.900990083E0,-2.660559136E0,6.618987892E0,2.037043780E0,7.418835690E0
5.910957083E0,-1.561974903E0,-6.569112897E-1,2.633783566E0,3.131790847E0
5.920924083E0,6.641982068E0,-1.963064661E1,6.885911533E0,2.183790260E1
5.930891083E0,1.964394084E1,-3.485035955E1,1.501285132E1,4.272958785E1
5.940858083E0,2.788885639E1,-5.124253747E1,1.908023183E1,6.138111439E1
5.950825083E0,2.555763700E1,-5.920112188E1,1.542650323E1,6.630190527E1
5.960792083E0,1.393121583E1,-4.312507251E1,5.635019027E0,4.566841461E1
5.970759083E0,5.797348258E0,-2.246892953E1,1.063122477E0,2.322912547E1
5.980725083E0,1.984938218E0,-1.220537270E1,-8.477714252E-1,1.239474965E1
5.990692083E0,1.165348033E0,-6.348990371E0,-2.315558502E0,6.857807663E0
6.000659083E0,1.480529329E0,-2.733590274E0,-2.956674123E0,4.290268611E0
6.010626083E0,1.612981335E0,-6.843739074E-1,-3.692366119E0,4.087009174E0
6.020593083E0,1.375151101E0,-3.662345052E-2,-5.398633055E0,5.571141776E0
6.030560083E0,-1.108517336E0,-2.285415813E0,-2.084948936E1,2.100364594E1
6.040527083E0,-1.011185900E0,-5.255281547E0,-2.948019952E1,2.996202003E1
6.050494083E0,4.123247440E-1,-4.895884776E0,-1.628572351E1,1.701071690E1
6.060461083E0,1.513771042E-2,-4.464294187E0,-7.920045415E0,9.091604430E0
6.070427083E0,4.142864849E-1,-3.402043383E0,-4.195490374E0,5.417349163E0
6.080394083E0,1.491822056E-2,-1.196288867E0,-5.601673526E0,5.728008021E0
6.090361083E0,-6.915526803E-1,7.955464339E-1,-4.636895514E0,4.755201284E0
6.100328083E0,-8.444541536E-1,1.933440912E0,-3.780609666E0,4.329469486E0
6.110295083E0,-7.435904145E-1,2.054261929E0,-2.902586501E0,3.632895151E0
6.120262083E0,-1.393047966E-1,2.656312888E0,-2.053357073E0,3.360309398E0
6.130229083E0,3.536466193E-1,3.563822976E0,-1.674274773E0,3.953365168E0
6.140196083E0,6.653477986E-1,4.215722618E0,-1.575638092E0,4.549465933E0
6.150163083E0,6.494481960E-1,4.683273582E0,-1.516802824E0,4.965433034E0
6.160130083E0,5.063109881E-1,5.090038648E0,-1.417429101E0,5.307913857E0
6.170096083E0,3.787095398E-1,5.479460286E0,-1.410395778E0,5.670725015E0
6.180063083E0,3.559198706E-1,5.690540679E0,-1.462150945E0,5.886154734E0
6.190030083E0,6.199482621E-1,5.537095122E0,-1.403967934E0,5.745858003E0
6.199997083E0,1.075705539E0,4.886815159E0,-1.078521266E0,5.118721806E0
6.209964083E0,1.631923390E0,3.940735082E0,-6.045564902E-1,4.307906160E0
6.219931083E0,2.084632514E0,2.859155138E0,-1.900350934E-1,3.543525667E0
6.229898083E0,2.424252686E0,1.740809655E0,8.592395693E-2,2.985766613E0
6.239865083E0,3.027594709E0,7.389915794E-1,2.478383285E-1,3.126317661E0
6.249832083E0,4.108480589E0,1.009983712E-1,6.574699911E-1,4.161980324E0
6.259798083E0,5.225771234E0,-2.809891176E-1,1.111510526E0,5.350055656E0
6.269765083E0,5.851111068E0,-7.189414769E-1,1.497550720E0,6.082354456E0
6.279732083E0,6.245795785E0,-7.833234143E-1,1.860301454E0,6.563861825E0
6.289699083E0,6.204757687E0,-1.320424086E-1,2.289699483E0,6.615071948E0
6.299666083E0,5.542642375E0,9.608033663E-1,2.610384763E0,6.201462426E0
6.309633083E0,4.607779304E0,2.168358648E0,3.032290024E0,5.926904093E0
6.319600083E0,3.640214218E0,2.948388326E0,3.448937468E0,5.817157633E0
6.329567083E0,2.715839590E0,3.445068950E0,3.648583045E0,5.705825355E0
6.339534083E0,2.189309222E0,3.574956075E0,3.751456034E0,5.625549589E0
6.349500083E0,2.497399892E0,3.306073617E0,3.948357512E0,5.723343082E0
6.359467083E0,2.458491934E0,2.790201847E0,3.912110038E0,5.397593342E0
6.369434083E0,1.792480038E0,2.297643510E0,3.418820214E0,4.492269142E0
6.379401083E0,1.128388952E0,2.123483607E0,2.831925824E0,3.715137700E0
6.389368083E0,1.003752919E0,2.212475891E0,2.490222142E0,3.479048118E0
6.399335083E0,1.162009565E0,2.355084218E0,2.242108995E0,3.453076982E0
6.409302083E0,1.374948787E0,2.436158786E0,2.038070989E0,3.461081790E0
6.419269083E0,1.452975495E0,2.390274516E0,1.932899022E0,3.400095392E0
6.429236083E0,1.512128267E0,2.198066597E0,1.919450279E0,3.286688004E0
6.439202083E0,1.252832319E0,1.990672874E0,1.702337461E0,2.903501360E0
6.449169083E0,5.900776148E-2,1.817528633E0,1.073519996E0,2.111714334E0
6.459136083E0,-1.483021997E0,1.696205925E0,2.380155909E-1,2.265639028E0
6.469103083E0,-2.551657375E0,1.695172722E0,-4.360835892E-1,3.094306839E0
6.479070083E0,-3.150942016E0,1.722227204E0,-9.515969253E-1,3.714840352E0
6.489037083E0,-3.449817766E0,1.503286400E0,-1.334669657E0,3.992800485E0
6.499004083E0,-3.350577360E0,6.123853272E-1,-1.467087457E0,3.708602168E0
6.508971083E0,-2.702139856E0,-9.430196446E-1,-1.397045415E0,3.184742021E0
6.518938083E0,-1.845987031E0,-3.030753960E0,-1.274477250E0,3.770600741E0
6.528904083E0,-1.270108503E0,-5.423485476E0,-1.045871583E0,5.667558353E0
6.538871083E0,-1.101906913E0,-7.767127277E0,-7.354393959E-1,7.879297944E0
6.548838083E0,-1.027984658E0,-9.485534495E0,-5.681356457E-1,9.557975477E0
6.558805083E0,-7.893062854E-1,-9.976453857E0,-6.015396193E-1,1.002569129E1
6.568772083E0,-9.662272435E-1,-9.274158819E0,-8.465341544E-1,9.362704575E0
6.578739083E0,-1.696834500E0,-8.268947019E0,-1.468496051E0,8.568034359E0
6.588706458E0,-2.095841480E0,-8.057205892E0,-2.029642813E0,8.569163800E0
6.598673458E0,-1.897877270E0,-8.837295796E0,-2.328695149E0,9.333946443E0
6.608640458E0,-1.537481209E0,-9.962902350E0,-2.387269632E0,1.035964903E1
6.618607458E0,-9.006358096E-1,-1.092010325E1,-2.282504192E0,1.119239140E1
6.628573458E0,-2.211405265E-1,-1.182389100E1,-2.001661547E0,1.199416318E1
6.638540458E0,3.657396846E-1,-1.261163023E1,-1.558317470E0,1.271280205E1
6.648507458E0,8.481032547E-1,-1.295222353E1,-1.126043342E0,1.302871241E1
6.658474458E0,1.329993639E0,-1.266400023E1,-7.171802956E-1,1.275382815E1
6.668441458E0,1.882223542E0,-1.179828487E1,-4.931413043E-1,1.195765360E1
6.678408458E0,2.185362790E0,-1.091228669E1,-5.317940310E-1,1.114166129E1
6.688375458E0,2.758376622E0,-1.005495390E1,-3.181850106E-1,1.043129815E1
6.698342458E0,2.851035694E0,-9.336590125E0,-2.243021160E-2,9.762214032E0
6.708309458E0,2.547311140E0,-8.218342291E0,4.024384180E-1,8.613472049E0
6.718275458E0,2.128441315E0,-6.656652732E0,9.997870454E-1,7.059806099E0
6.728242458E0,2.074591967E0,-4.515598826E0,1.325100104E0,5.143000571E0
6.738209458E0,1.874938935E0,-2.339524192E0,1.370808228E0,3.296647487E0
6.748176458E0,1.567091656E0,-6.118538153E-1,1.288782902E0,2.119222196E0
6.758143458E0,1.648565150E0,7.323655146E-1,1.379199713E0,2.270752772E0
6.768110458E0,1.424278530E0,2.171361778E0,1.410917788E0,2.955346055E0
6.778077458E0,8.047063896E-1,3.738425514E0,1.136646025E0,3.989403700E0
6.788044458E0,5.692444240E-1,5.228225310E0,9.105727141E-1,5.337370306E0
6.798011458E0,4.457256478E-1,6.488108495E0,8.637950619E-1,6.560515613E0
6.807977458E0,-6.919770420E-2,7.527635264E0,9.256866702E-1,7.584654033E0
6.817944458E0,-5.445767753E-1,8.596663576E0,9.887641668E-1,8.670458066E0
6.827911458E0,-9.538146280E-1,9.609999497E0,1.034418057E0,9.712459698E0
6.837878458E0,-1.387438732E0,1.043501122E1,1.181667904E0,1.059295919E1
6.847845458E0,-1.688857583E0,1.098073887E1,1.230183422E0,1.117775547E1
6.857812458E0,-1.917276285E0,1.121127354E1,1.070704708E0,1.142431666E1
6.867779458E0,-2.112457220E0,1.132586727E1,6.884581876E-1,1.154173815E1
6.877746458E0,-1.917703570E0,1.169560192E1,3.572099125E-1,1.185716198E1
6.887713458E0,-1.304527261E0,1.245597735E1,4.539252349E-1,1.253232665E1
6.897680458E0,-1.187801926E-1,1.365212822E1,8.239428520E-1,1.367748499E1
6.907646458E0,1.369599023E0,1.461673403E1,1.376533967E0,1.474515382E1
6.917613458E0,2.322650151E0,1.463302905E1,3.218976417E0,1.516186176E1
6.927580458E0,2.236626207E0,1.434888127E1,5.098249308E0,1.539107002E1
6.937547458E0,2.255312300E0,1.461362331E1,6.090841062E0,1.599195938E1
6.947514458E0,2.267906325E0,1.498434263E1,6.108078654E0,1.633960061E1
6.957481458E0,2.429492961E0,1.513326771E1,5.837045006E0,1.640089394E1
6.967448458E0,1.776499598E0,1.479244169E1,5.545750755E0,1.589740965E1
6.977415458E0,2.797341590E-1,1.402604246E1,4.899832231E0,1.485989482E1
6.987382458E0,-8.170445994E-1,1.308393790E1,4.082307283E0,1.373033961E1
6.997348458E0,-1.255550398E0,1.224992147E1,3.627984474E0,1.283741618E1
7.007315458E0,-1.331454273E0,1.143796775E1,3.355473819E0,1.199412695E1
7.017282458E0,-1.000642201E0,1.077989871E1,3.156460326E0,1.127700061E1
7.027249458E0,-4.513234797E-1,1.017710691E1,3.030769747E0,1.062839420E1
7.037216458E0,-8.574751720E-2,9.597906870E0,2.981965377E0,1.005083511E1
7.047183458E0,-4.828031346E-2,9.010715441E0,2.878426391E0,9.459421876E0
7.057150458E0,-3.923826689E-1,7.862525770E0,2.683005427E0,8.316958204E0
7.067117458E0,-1.369896208E0,4.817905723E0,3.039299666E0,5.858854294E0
7.077084458E0,-1.654075567E0,-4.359905015E0,4.554634838E0,6.518392151E0
7.087050458E0,8.784066253E0,-1.976128744E1,1.075025216E1,2.415028411E1
7.097017458E0,2.654149184E1,-3.121258684E1,1.912426136E1,4.521519368E1
7.106984458E0,3.286767164E1,-4.247270568E1,2.022638433E1,5.738746544E1
7.116951458E0,2.159570400E1,-4.809470530E1,1.529921052E1,5.489572799E1
7.126918458E0,1.090104834E1,-3.746724116E1,6.247828277E0,3.951787410E1
7.136885458E0,8.160340251E0,-2.287509818E1,1.126356606E0,2.431316410E1
7.146852458E0,5.692361501E0,-1.462497627E1,-1.391337071E0,1.575527623E1
7.156819458E0,4.951285974E0,-1.028365487E1,-2.337843410E0,1.165050652E1
7.166786458E0,3.818078624E0,-8.321798832E0,-3.142727847E0,9.680227193E0
7.176752458E0,1.494140770E0,-8.402975142E0,-1.283035235E1,1.540974981E1
7.186719458E0,-2.177689928E0,-1.219794440E1,-4.351028708E1,4.524021732E1
7.196686458E0,3.459362176E0,-9.674620001E0,-2.803840477E1,2.986164097E1
7.206653458E0,3.137038507E0,-7.491671380E0,-2.303075573E1,2.442093078E1
7.216620458E0,3.615374734E-1,-5.791636114E0,-1.893606756E1,1.980526225E1
7.226587458E0,-5.670037709E-1,-1.915001133E0,-6.114895338E0,6.432780706E0
7.236554458E0,5.480299216E-1,-1.344198865E-1,-4.717314903E0,4.750943632E0
7.246521458E0,1.595519795E0,3.903197712E-1,-3.718819507E0,4.065421438E0
7.256488458E0,2.735287721E0,6.923588651E-1,-2.693131050E0,3.900527473E0
7.266454458E0,3.082709979E0,1.138116673E0,-1.966747237E0,3.829687334E0
7.276421458E0,2.817213060E0,1.622228122E0,-1.307853157E0,3.504110926E0
7.286388458E0,2.428226454E0,2.063820958E0,-9.721957889E-1,3.331787104E0
7.296355458E0,2.221454583E0,2.570731285E0,-8.190148187E-1,3.494897005E0
7.306322458E0,2.158399378E0,3.227865939E0,-7.185217930E-1,3.948934028E0
7.316289458E0,2.378010712E0,4.116777788E0,-6.754405314E-1,4.801980239E0
7.326256458E0,2.358114537E0,4.826567788E0,-5.852235487E-1,5.403605036E0
7.336223458E0,2.386518264E0,5.287512569E0,-4.918416144E-1,5.821955579E0
7.346190458E0,2.981300549E0,5.746678042E0,-5.713785115E-1,6.499148781E0
7.356156458E0,4.135965719E0,6.187604295E0,-5.891476151E-1,7.465906124E0
7.366123458E0,5.122844451E0,6.363275703E0,-5.828751607E-1,8.189905762E0
7.376090458E0,5.157185733E0,5.940283445E0,-4.590299638E-1,7.879989886E0
7.386057458E0,4.812771868E0,5.620733694E0,-1.564663745E-1,7.401344610E0
7.396024458E0,4.792160432E0,5.374880496E0,1.535822354E-1,7.202619624E0
7.405991458E0,5.428994722E0,4.830714049E0,5.815510587E-1,7.290266357E0
7.415958458E0,5.985721573E0,3.937546595E0,1.168801983E0,7.259423808E0
7.425925458E0,5.502195430E0,2.430625566E0,1.862995997E0,6.297050840E0
7.435892458E0,5.135117172E0,6.575077057E-1,2.915677832E0,5.941626206E0
7.445859458E0,5.584843485E0,-1.010547969E0,3.902457454E0,6.887732437E0
7.455825458E0,6.022641478E0,-2.186197919E0,4.931246397E0,8.085101282E0
7.465792458E0,5.172638755E0,-2.405722275E0,5.698534992E0,8.063311504E0
7.475759458E0,2.785019752E0,-1.488824481E0,5.658866311E0,6.480409037E0
7.485726458E0,7.747791705E-1,1.033273172E-1,5.028685568E0,5.089070430E0
7.495693458E0,-2.249980809E-1,1.693223845E0,4.162555640E0,4.499388912E0
7.505660458E0,-7.892536604E-1,2.839644148E0,3.335555279E0,4.451115506E0
7.515627458E0,-1.178131508E0,3.604744715E0,2.696346434E0,4.653220649E0
7.525594458E0,-1.438181600E0,4.037153329E0,2.158235949E0,4.798432633E0
7.535561458E0,-1.725305032E0,4.118819636E0,1.723082067E0,4.786477249E0
7.545527458E0,-2.038609225E0,3.825095283E0,1.464740970E0,4.575231973E0
7.555494458E0,-2.190891771E0,3.287357265E0,1.394175017E0,4.189325544E0
7.565461458E0,-1.907899105E0,2.619483615E0,1.633890393E0,3.629238380E0
7.575428458E0,-1.209165605E0,1.786039622E0,2.096178864E0,3.007654373E0
7.585395458E0,-3.887316674E-1,1.147599102E0,2.492459287E0,2.771362356E0
7.595362208E0,-1.500851619E-1,5.218809539E-1,2.632634588E0,2.688056949E0
7.605329208E0,-1.048107558E-1,7.988115191E-2,2.539227072E0,2.542644375E0
7.615296208E0,-3.244947410E-1,-2.169720465E-1,2.231389733E0,2.265275667E0
7.625263208E0,-1.006348206E0,-7.354832500E-1,1.678471320E0,2.090678907E0
7.635229208E0,-1.499128152E0,-1.432913405E0,1.027411193E0,2.314346517E0
7.645196208E0,-1.802394285E0,-2.219175630E0,2.866854751E-1,2.873248022E0
7.655163208E0,-2.098460155E0,-2.871883357E0,-5.002620435E-1,3.591867363E0
7.665130208E0,-2.297554048E0,-3.551907520E0,-1.041928221E0,4.356651932E0
7.675097208E0,-2.478977070E0,-4.753551852E0,-1.288301530E0,5.513737694E0
7.685064208E0,-2.388303419E0,-6.690809827E0,-1.315001670E0,7.224967734E0
7.695031208E0,-1.837306255E0,-9.320124366E0,-1.102449827E0,9.563253008E0
7.704998208E0,-9.399273446E-1,-1.273506729E1,-6.917443228E-1,1.278842885E1
7.714965208E0,4.069537841E-1,-1.674759741E1,-7.665787429E-2,1.675271640E1
7.724931208E0,1.903463261E0,-2.055249758E1,7.747259608E-1,2.065498800E1
7.734898208E0,2.705703734E0,-2.292376338E1,1.448679253E0,2.312830370E1
7.744865208E0,2.838237893E0,-2.311113858E1,7.973573166E-1,2.329841410E1
7.754832208E0,2.510977127E0,-2.030384824E1,-1.116490453E0,2.048896802E1
7.764799208E0,1.482672333E0,-1.635184499E1,-5.000396154E0,1.716348198E1
7.774766208E0,-5.394003084E-1,-1.359963426E1,-1.444450079E1,1.984652634E1
7.784733208E0,-8.010672288E-1,-1.187537573E1,-1.468989323E1,1.890659198E1
7.794700208E0,2.299758740E0,-8.638904446E0,-3.356752312E0,9.549206584E0
7.804667208E0,3.087287180E0,-6.007258038E0,2.230746393E-1,6.757829057E0
7.814634208E0,3.174721765E0,-3.584772381E0,1.865258870E0,5.138933932E0
7.824600208E0,2.695963442E0,-1.128390414E0,2.515202032E0,3.855868912E0
7.834567208E0,1.928345795E0,1.009852735E0,2.518822044E0,3.329081636E0
7.844534208E0,1.359451327E0,2.610996966E0,2.546873476E0,3.892554119E0
7.854501208E0,8.187345909E-1,3.646140078E0,2.565603277E0,4.532878112E0
7.864468208E0,1.066792702E0,4.506955472E0,2.660027039E0,5.341014711E0
7.874435208E0,1.374274895E0,5.293743362E0,2.420671851E0,5.980970028E0
7.884402208E0,1.084219231E0,6.116149566E0,2.097220838E0,6.556001227E0
7.894369208E0,2.782514513E-1,6.945270712E0,1.773907819E0,7.173629352E0
7.904336208E0,-3.209500127E-1,7.940415945E0,1.440745751E0,8.076444924E0
7.914302208E0,-6.697661740E-1,9.112549379E0,1.173278904E0,9.212151014E0
7.924269208E0,-8.455008783E-1,1.029466752E1,1.235866331E0,1.040300037E1
7.934236208E0,-6.542007398E-1,1.144134978E1,1.834099642E0,1.160587717E1
7.944203208E0,-4.289665776E-1,1.221575970E1,2.199676920E0,1.241963670E1
7.954170208E0,-5.595480593E-1,1.240099715E1,1.532770400E0,1.250788589E1
7.964137208E0,-7.425564075E-1,1.258563819E1,9.785981977E-1,1.264544713E1
7.974104208E0,-2.844671146E-1,1.307997349E1,9.101916218E-1,1.311468936E1
7.984071208E0,9.912373198E-1,1.370676694E1,1.413690684E0,1.381508353E1
7.994038208E0,2.628694442E0,1.451707877E1,2.097418474E0,1.490150243E1
8.004004208E0,4.186062324E0,1.511336145E1,3.043654672E0,1.597500065E1
8.013971208E0,5.591294718E0,1.556636629E1,4.586543094E0,1.716422774E1
8.023938208E0,6.277765437E0,1.583630067E1,5.759857081E0,1.798262248E1
8.033905208E0,6.232045473E0,1.574233474E1,6.193342752E0,1.802822754E1
8.043872208E0,4.782880901E0,1.530344975E1,5.554327451E0,1.696826678E1
8.053839208E0,2.656099464E0,1.445391013E1,4.191461643E0,1.528197412E1
8.063806208E0,7.567602445E-1,1.333087752E1,3.064397085E0,1.369947119E1
8.073773208E0,-3.899360476E-1,1.227551941E1,2.321076665E0,1.249911292E1
8.083740208E0,-9.350083745E-1,1.139790380E1,2.016211174E0,1.161256040E1
8.093706208E0,-1.141148892E0,1.075112573E1,1.883710782E0,1.097439254E1
8.103673208E0,-1.140383346E0,1.014874791E1,1.809431262E0,1.037167296E1
8.113640208E0,-1.090746478E0,9.566193911E0,1.803925670E0,9.795710370E0
8.123607208E0,-1.193280621E0,9.014947071E0,1.692611057E0,9.249763323E0
8.133574208E0,-1.432010741E0,8.604568427E0,1.521761262E0,8.854660350E0
8.143541208E0,-1.482477183E0,8.334839292E0,1.397986232E0,8.580305946E0
8.153508208E0,-1.353758916E0,7.460305161E0,1.746507182E0,7.780687864E0
8.163475208E0,-7.940339054E-1,3.328417583E0,3.091265041E0,4.611374307E0
8.173442208E0,3.712196074E0,-1.051752947E1,5.422145294E0,1.240155173E1
8.183408208E0,1.909172512E1,-2.864142111E1,1.390160085E1,3.712249287E1
8.193375208E0,2.894619904E1,-4.377875380E1,2.325722074E1,5.740522659E1
8.203342208E0,2.276610608E1,-5.309283975E1,1.977903491E1,6.106026073E1
8.213309208E0,1.029412139E1,-4.658583364E1,9.246615509E0,4.859741484E1
8.223276208E0,4.933836713E0,-2.818318651E1,2.914980260E0,2.875990015E1
8.233243208E0,2.655955915E0,-1.635444116E1,3.970352983E-1,1.657345722E1
8.243210208E0,2.437340509E0,-1.066350637E1,-9.365026304E-1,1.097852605E1
8.253177208E0,3.443129429E0,-8.068772854E0,-1.761045991E0,8.947710244E0
8.263144208E0,2.739384865E0,-7.199027592E0,-6.227294610E0,9.905020236E0
8.273111208E0,-6.225922853E0,-1.115277097E1,-3.452262078E1,3.680975090E1
8.283077208E0,1.458817155E0,-9.995270197E0,-3.012194313E1,3.177050569E1
8.293044208E0,4.183926044E0,-4.610573396E0,-2.259358983E1,2.343571901E1
8.303011208E0,1.294705108E0,-2.228689635E0,-2.357500989E1,2.371548882E1
8.312978208E0,6.014131001E-1,-9.608027816E-1,-9.987252495E0,1.005137066E1
8.322945208E0,-6.146306580E-1,-1.943047303E-1,-5.283747547E0,5.322923380E0
8.332912208E0,-5.783366981E-1,2.186098516E-1,-2.699031768E0,2.768941330E0
8.342879208E0,4.013440385E-1,8.193071795E-1,-1.129450807E0,1.451895456E0
8.352846208E0,1.017589917E0,1.569013782E0,-5.425118311E-1,1.947206351E0
8.362813208E0,8.614122485E-1,2.205688443E0,-2.386682864E-1,2.379927545E0
8.372779208E0,5.930127709E-1,2.757666185E0,-1.148505713E-1,2.823044029E0
8.382746208E0,7.993602803E-1,3.341709473E0,-5.679634452E-2,3.436455279E0
8.392713208E0,1.365895397E0,3.771244766E0,-7.801282033E-2,4.011738191E0
8.402680208E0,1.745301925E0,4.068130124E0,-9.793150663E-2,4.427793140E0
8.412647208E0,2.033937885E0,4.351686169E0,-2.650557473E-2,4.803621382E0
8.422614208E0,2.477158878E0,4.592834113E0,2.271599427E-2,5.218328977E0
8.432581208E0,3.093927278E0,4.608623350E0,-7.799425542E-2,5.551385258E0
8.442548208E0,4.195569896E0,4.459214711E0,9.541369557E-2,6.123439096E0
8.452515208E0,5.446971402E0,4.050789621E0,2.081333953E-1,6.791296895E0
8.462481208E0,6.639318661E0,3.308204927E0,1.580011225E-1,7.419550962E0
8.472448208E0,7.446239684E0,2.517359070E0,6.046605706E-3,7.860255637E0
8.482415208E0,7.233520902E0,2.562505422E0,-3.805490738E-1,7.683428680E0
8.492382208E0,6.304119422E0,2.806178779E0,-4.823029053E-1,6.917309963E0
8.502349208E0,5.131360921E0,2.825259413E0,-3.223821419E-1,5.866590653E0
8.512316208E0,4.301482268E0,2.722901564E0,5.287695587E-2,5.091143153E0
8.522283208E0,3.676622198E0,2.326621141E0,5.658428062E-1,4.387584165E0
8.532250208E0,3.433117241E0,1.794877689E0,1.064400386E0,4.017564946E0
8.542217208E0,3.248525321E0,1.258584518E0,1.461484655E0,3.777947743E0
8.552183208E0,2.724195553E0,7.102729797E-1,2.064914387E0,3.491360844E0
8.562150208E0,1.969488120E0,2.316666842E-2,3.241520941E0,3.793003844E0
8.572117208E0,1.020155675E0,-6.548098004E-1,4.430363964E0,4.593214379E0
8.582084208E0,-1.331671205E-1,-9.251061147E-1,4.805013197E0,4.895069625E0
8.592051583E0,-8.770778163E-1,-5.830182713E-1,4.503788620E0,4.625287854E0
8.602018583E0,-1.006151593E0,2.044449717E-1,3.796618173E0,3.932994829E0
8.611985583E0,-6.150632058E-1,8.698528504E-1,3.139303426E0,3.315142942E0
8.621952583E0,-4.733841473E-1,9.743250525E-1,2.724801325E0,2.932225114E0
8.631919583E0,-3.897214548E-1,7.362322783E-1,2.524310825E0,2.658207276E0
8.641885583E0,-2.578392600E-1,4.492538577E-1,2.448988162E0,2.503168618E0
8.651852583E0,-1.441536002E-1,2.208984518E-1,2.404037692E0,2.418465135E0
8.661819583E0,9.208151355E-2,3.490723425E-1,2.265380474E0,2.293965824E0
8.671786583E0,1.809603609E-1,8.888732582E-1,1.927034703E0,2.129860340E0
8.681753583E0,-4.180466831E-2,1.557262632E0,1.341801652E0,2.056026802E0
8.691720583E0,-3.255355453E-1,2.126410723E0,7.287326396E-1,2.271265554E0
8.701687583E0,-2.956863865E-1,2.457052642E0,2.351712129E-1,2.485929127E0
8.711654583E0,1.889463419E-1,2.603931776E0,-1.165537190E-1,2.613378308E0
8.721621583E0,1.082445917E0,2.537353624E0,-7.582914841E-1,2.860919180E0
8.731588583E0,1.726363524E0,2.179372464E0,-1.487452140E0,3.153174467E0
8.741554583E0,1.059754627E0,1.020384155E0,-1.934568986E0,2.430395206E0
8.751521583E0,-7.798554307E-1,-7.313188630E-1,-2.047023953E0,2.309395773E0
8.761488583E0,-1.890606842E0,-2.349486678E0,-2.078045187E0,3.662342649E0
8.771455583E0,-1.798477235E0,-3.396037708E0,-1.928066736E0,4.299422498E0
8.781422583E0,-1.589090489E0,-4.055489028E0,-2.061091477E0,4.818744434E0
8.791389583E0,-1.385729006E0,-4.662370956E0,-2.344183254E0,5.399365049E0
8.801356583E0,-9.632112497E-1,-5.263010396E0,-2.596239471E0,5.947059251E0
8.811323583E0,-7.289906479E-1,-6.335030143E0,-2.591179583E0,6.883185739E0
8.821290583E0,-7.496237178E-1,-7.834966673E0,-2.653998560E0,8.306163184E0
8.831256583E0,-9.803099701E-1,-9.554991816E0,-2.645286501E0,9.962751473E0
8.841223583E0,-1.516270727E0,-1.151124973E1,-2.728010277E0,1.192685991E1
8.851190583E0,-2.016076688E0,-1.346477408E1,-3.071787965E0,1.395709810E1
8.861157583E0,-2.246339748E0,-1.502214371E1,-3.250004666E0,1.553297700E1
8.871124583E0,-2.332848718E0,-1.591789388E1,-3.101049771E0,1.638407881E1
8.881091583E0,-2.408682135E0,-1.642014866E1,-2.627455124E0,1.680257575E1
8.891058583E0,-1.764836741E0,-1.640803089E1,-2.011491301E0,1.662480747E1
8.901025583E0,-6.713426565E-1,-1.587160849E1,-1.419869437E0,1.594912807E1
8.910992583E0,6.592618704E-1,-1.477272020E1,-8.177857339E-1,1.481001897E1
8.920958583E0,1.877305596E0,-1.325048766E1,-2.690467644E-1,1.338551776E1
8.930925583E0,2.791004670E0,-1.071145354E1,3.789209166E-1,1.107558238E1
8.940892583E0,3.063826396E0,-7.480132484E0,1.060656707E0,8.152570565E0
8.950859583E0,2.941771032E0,-4.205060804E0,1.433418605E0,5.328343276E0
8.960826583E0,2.907976465E0,-1.439442406E0,1.573033742E0,3.605933543E0
8.970793583E0,2.906437770E0,4.612546831E-1,1.544156683E0,3.323335110E0
8.980760583E0,2.926016587E0,1.718275656E0,1.484921465E0,3.703921712E0
8.990727583E0,2.711259173E0,3.080673979E0,1.263175167E0,4.293843263E0
9.000694583E0,2.891946908E0,4.308192825E0,1.110131460E0,5.306248599E0
9.010661583E0,2.963477943E0,5.544007115E0,8.492747444E-1,6.343459940E0
9.020627583E0,2.452373262E0,6.709410989E0,5.117810583E-1,7.161860812E0
9.030594583E0,2.040998105E0,7.980512057E0,1.953022653E-1,8.239683788E0
9.040561583E0,1.294963847E0,9.296440803E0,4.790093880E-2,9.386321829E0
9.050528583E0,3.944044168E-1,1.041889162E1,4.559951127E-2,1.042645370E1
9.060495583E0,1.857630446E-1,1.151872949E1,2.511870289E-1,1.152296541E1
9.070462583E0,4.043288228E-1,1.228892006E1,7.194607097E-1,1.231660106E1
9.080429583E0,6.134278127E-1,1.266917853E1,3.741136283E-1,1.268953660E1
9.090396583E0,7.833921922E-1,1.324121631E1,1.839299973E-1,1.326564522E1
9.100363583E0,1.391077454E0,1.420923807E1,9.376770437E-1,1.430792721E1
9.110329583E0,2.805044712E0,1.523900642E1,1.713517191E0,1.558947509E1
9.120296583E0,4.091941155E0,1.598677876E1,2.881726559E0,1.675187827E1
9.130263583E0,4.217011051E0,1.598608879E1,3.620149205E0,1.692464762E1
9.140230583E0,3.583733623E0,1.561828138E1,4.282128861E0,1.658645494E1
9.150197583E0,2.605332769E0,1.522739151E1,4.926703695E0,1.621522804E1
9.160164583E0,1.565690224E0,1.490477372E1,4.386985810E0,1.561567514E1
9.170131583E0,3.034671302E-1,1.426551869E1,4.061583581E0,1.483555111E1
9.180098583E0,-7.812706031E-1,1.341709003E1,3.857163168E0,1.398236019E1
9.190065583E0,-1.492824123E0,1.279082166E1,3.522967311E0,1.335084047E1
9.200031583E0,-1.930299642E0,1.209268984E1,3.329854828E0,1.269043488E1
9.209998583E0,-2.084917858E0,1.152726876E1,3.205119685E0,1.214485899E1
9.219965583E0,-1.814595231E0,1.115696226E1,3.310107904E0,1.177825866E1
9.229932583E0,-1.213413023E0,1.089690383E1,3.491195880E0,1.150666472E1
9.239899583E0,-5.609207663E-1,1.059751236E1,3.603596614E0,1.120748896E1
9.249866583E0,-1.796103850E-2,1.011218644E1,3.641921605E0,1.074803379E1
9.259833583E0,2.384577866E-1,9.509744307E0,3.626632597E0,1.018059737E1
9.269800583E0,3.137210999E-1,8.928896522E0,3.653408167E0,9.652512899E0
9.279767583E0,1.159445854E-1,7.770994626E0,3.867558932E0,8.681002979E0
9.289733583E0,-1.051718360E0,2.820180522E0,4.948164146E0,5.791705975E0
9.299700583E0,-4.214911316E-1,-9.773687037E0,8.002823278E0,1.263913737E1
9.309667583E0,8.570026585E0,-2.472179857E1,1.531199838E1,3.031616688E1
9.319634583E0,1.956979581E1,-3.495818689E1,2.050626715E1,4.500620769E1
9.329601583E0,2.892545312E1,-4.131597673E1,2.221759281E1,5.511182452E1
9.339568583E0,2.272870728E1,-4.396156115E1,1.763811549E1,5.253871060E1
9.349535583E0,9.988308502E0,-3.566110173E1,6.071414273E0,3.752789036E1
9.359502583E0,6.413482820E0,-2.163513529E1,1.085996200E0,2.259183986E1
9.369469583E0,3.840456211E0,-1.254097248E1,-1.305033337E0,1.318059963E1
9.379436583E0,2.756393831E0,-8.399476753E0,-2.504974083E0,9.188243131E0
9.389402583E0,3.040063312E0,-7.366147447E0,-2.666782620E0,8.403204311E0
9.399369583E0,2.554033099E0,-8.217203254E0,-5.559013410E0,1.024442016E1
9.409336583E0,-3.814031474E0,-1.257626393E1,-2.685134281E1,2.989488019E1
9.419303583E0,3.192451692E0,-1.144840386E1,-2.682010699E1,2.933557290E1
9.429270583E0,9.489867282E0,-8.212491567E0,-2.251074414E1,2.577278022E1
9.439237583E0,6.916668472E0,-7.534788748E0,-3.108554556E1,3.272498261E1
9.449204583E0,2.175083824E0,-4.030068258E0,-1.432408089E1,1.503834210E1
9.459171583E0,1.241940126E0,-5.135399008E-1,-6.404451796E0,6.543939281E0
9.469138583E0,1.919468698E0,3.802467728E-1,-4.980158941E0,5.350787864E0
9.479104583E0,3.310727124E0,8.131728655E-1,-4.063324882E0,5.304033681E0
9.489071583E0,4.250112724E0,1.094566026E0,-3.242193663E0,5.456496376E0
9.499038583E0,4.351419536E0,1.357758558E0,-2.062072348E0,5.003049335E0
9.509005583E0,4.630811779E0,1.817784156E0,-3.840913171E-1,4.989617531E0
9.518972583E0,4.534413120E0,2.262326912E0,4.722679138E-2,5.067667685E0
9.528939583E0,4.267319618E0,2.660059783E0,-3.360508856E-1,5.039728660E0
9.538906583E0,3.855897538E0,3.182424302E0,-6.960320860E-1,5.047794660E0
9.548873583E0,3.388821659E0,3.680518198E0,-1.044290204E0,5.110857900E0
9.558840583E0,2.768805715E0,4.401896210E0,-1.211698911E0,5.339587024E0
9.568806583E0,1.848722213E0,5.040446073E0,-1.157693735E0,5.492187653E0
9.578773583E0,1.152363852E0,5.051538826E0,-8.554665072E-1,5.251457883E0
9.588740583E0,1.264203546E0,4.875863909E0,-6.502780621E-1,5.078889743E0
9.598707917E0,2.176546504E0,4.743645499E0,-3.888798943E-1,5.233617762E0
9.608674917E0,2.972145563E0,4.687337397E0,3.567678630E-3,5.550206650E0
9.618641917E0,3.612035901E0,4.562526825E0,5.520636964E-1,5.845359587E0
9.628608917E0,4.272660172E0,4.112032773E0,1.114367183E0,6.033759416E0
9.638575917E0,5.354990607E0,3.610653911E0,2.140943832E0,6.804144807E0
9.648542917E0,6.288464087E0,2.957743286E0,3.607344387E0,7.829812223E0
9.658508917E0,6.482181172E0,2.088868675E0,5.023458157E0,8.462693245E0
9.668475917E0,5.398875715E0,1.096482743E0,6.685629779E0,8.663012116E0
9.678442917E0,3.844536105E0,-8.378475308E-3,8.383392232E0,9.222895065E0
9.688409917E0,1.952832765E0,-6.377663362E-1,8.440957485E0,8.687350861E0
9.698376917E0,1.180608389E-1,-4.185647464E-1,7.364533031E0,7.377362779E0
9.708343917E0,-4.186745279E-1,6.197229981E-1,6.777273774E0,6.818415121E0
9.718310917E0,-1.495725073E-1,1.894179198E0,6.436040794E0,6.710656292E0
9.728277917E0,2.358752176E-1,2.947065101E0,5.780242814E0,6.492459997E0
9.738244917E0,6.481854898E-1,3.580629044E0,5.644408486E0,6.715682834E0
9.748211917E0,9.854074265E-1,3.636747696E0,5.647254326E0,6.788846958E0
9.758177917E0,9.351147938E-1,3.270160019E0,5.120484515E0,6.147173976E0
9.768144917E0,7.414728454E-1,2.742031315E0,4.339719257E0,5.186683039E0
9.778111917E0,8.008405030E-1,2.250652362E0,3.714159569E0,4.416080034E0
9.788078917E0,4.841134956E-1,1.759597929E0,3.346355086E0,3.811645722E0
9.798045917E0,-2.950499171E-1,1.214768407E0,2.534917674E0,2.826397769E0
9.808012917E0,-1.283021786E0,6.761269945E-1,1.563788856E0,2.132774766E0
9.817979917E0,-1.756100124E0,3.357839602E-1,8.085025482E-1,1.962221925E0
9.827946917E0,-1.896253498E0,7.409006953E-3,3.270521669E-1,1.924264883E0
9.837913917E0,-2.132175201E0,-7.856886131E-1,7.125212342E-2,2.273445524E0
9.847879917E0,-2.128809836E0,-2.091063135E0,-3.063672030E-1,2.999706188E0
9.857846917E0,-1.758508300E0,-3.442012026E0,-5.653754675E-1,3.906334298E0
9.867813917E0,-1.132167131E0,-4.516432055E0,-8.568068352E-1,4.734350945E0
9.877780917E0,-5.334023076E-1,-5.557853907E0,-1.317679110E0,5.736770547E0
9.887747917E0,4.069846281E-1,-6.351411118E0,-1.707461230E0,6.589497972E0
9.897714917E0,1.065882656E0,-7.056738523E0,-2.162841508E0,7.457315053E0
9.907681917E0,1.219590898E0,-7.944035372E0,-2.578197887E0,8.440509717E0
9.917648917E0,1.231547285E0,-8.841150280E0,-2.780200477E0,9.349447133E0
9.927615917E0,8.481077863E-1,-1.000753649E1,-3.092478338E0,1.050873425E1
9.937582917E0,4.176188131E-1,-1.154578807E1,-4.016646559E0,1.223164245E1
9.947548917E0,1.428214583E-1,-1.316436285E1,-5.211733239E0,1.415920233E1
9.957515917E0,9.315199256E-2,-1.506378875E1,-5.922693851E0,1.618655959E1
9.967482917E0,2.102743533E-1,-1.699174673E1,-5.202278291E0,1.777153262E1
9.977449917E0,7.835216349E-1,-1.807970306E1,-3.244524071E0,1.838522520E1
9.987416917E0,2.136096782E0,-1.788720805E1,-1.309091012E0,1.806180612E1
9.997383917E0,3.690295912E0,-1.671649724E1,-9.811335504E-2,1.711926371E1
1.000735092E1,4.538239830E0,-1.504229205E1,3.660637665E-1,1.571623917E1
1.001731792E1,4.774983652E0,-1.276585639E1,9.722428590E-1,1.366428975E1
1.002728492E1,3.808349442E0,-9.945082376E0,7.733243832E-1,1.067736950E1
1.003725092E1,2.416128126E0,-7.296688957E0,3.258179659E-1,7.693211436E0
1.004721792E1,1.401100021E0,-5.053753166E0,3.306454271E-1,5.254791026E0
1.005718492E1,1.398676934E0,-3.058270372E0,7.137868640E-1,3.437849113E0
1.006715192E1,1.869045088E0,-1.384584414E0,1.200991783E0,2.617782420E0
1.007711892E1,2.179679004E0,1.909010661E-1,1.405941369E0,2.600791209E0
1.008708592E1,2.023006954E0,1.865640108E0,1.482958555E0,3.126073611E0
1.009705292E1,1.537008462E0,3.415201957E0,1.255869656E0,3.950089621E0
1.010701992E1,8.144032659E-1,4.461298658E0,7.707840604E-1,4.600059398E0
1.011698692E1,4.842348254E-1,5.428068523E0,9.678007293E-1,5.534893812E0
1.012695292E1,4.095196154E-1,6.618603145E0,1.067041501E0,6.716560986E0
1.013691992E1,5.162146365E-1,7.953649364E0,9.784122562E-1,8.030212095E0
1.014688692E1,5.062105621E-1,9.216620463E0,1.103936774E0,9.296290566E0
1.015685392E1,3.604542401E-1,1.032569869E1,1.495999015E0,1.043973150E1
1.016682092E1,6.807671987E-2,1.123461328E1,2.135496127E0,1.143597454E1
1.017678792E1,8.843402043E-2,1.185215878E1,1.956080747E0,1.201281566E1
1.018675492E1,4.313351385E-1,1.231261532E1,1.398816537E0,1.239932392E1
1.019672192E1,1.144399433E0,1.312526836E1,1.281706163E0,1.323726144E1
1.020668892E1,2.002403558E0,1.453303348E1,1.446008245E0,1.474142537E1
1.021665592E1,2.096439212E0,1.558936690E1,2.674496559E0,1.595544890E1
1.022662192E1,1.857673569E0,1.591002002E1,3.897922354E0,1.648555388E1
1.023658892E1,1.926632999E0,1.640470850E1,4.895321689E0,1.722761011E1
1.024655592E1,1.105392292E0,1.634350101E1,6.412898684E0,1.759139526E1
1.025652292E1,1.952811422E-1,1.573207872E1,6.503824056E0,1.702457527E1
1.026648992E1,-4.794109455E-1,1.471422115E1,5.703610375E0,1.578826495E1
1.027645692E1,-1.009183009E0,1.361898620E1,4.960370793E0,1.452929847E1
1.028642392E1,-1.126541890E0,1.281699965E1,4.519215914E0,1.363700440E1
1.029639092E1,-1.185819720E0,1.217134892E1,3.883518323E0,1.283080736E1
1.030635792E1,-1.148464856E0,1.152303538E1,3.396635878E0,1.206799284E1
1.031632392E1,-8.727047568E-1,1.092341979E1,2.995975306E0,1.136039531E1
1.032629092E1,-5.154027506E-1,1.050877268E1,2.734217681E0,1.087087345E1
1.033625792E1,-1.261609867E-2,1.029140711E1,2.711267359E0,1.064256502E1
1.034622492E1,6.880548028E-1,1.026884972E1,2.834486904E0,1.067506487E1
1.035619192E1,1.461939276E0,1.026204006E1,3.046027472E0,1.080393521E1
1.036615892E1,1.571403831E0,9.762483771E0,3.096217632E0,1.036156180E1
1.037612592E1,7.840983166E-1,8.991010909E0,2.705002652E0,9.421789994E0
1.038609292E1,2.906962265E-1,8.290980497E0,2.400480831E0,8.636386404E0
1.039605992E1,3.655898497E-1,7.024681163E0,2.508874176E0,7.468216052E0
1.040602692E1,6.164763317E-2,1.968743477E0,3.519818001E0,4.033468739E0
1.041599292E1,1.172665092E0,-9.684481915E0,5.730215206E0,1.131369523E1
1.042595992E1,6.032594608E0,-2.345628335E1,9.708675939E0,2.609306066E1
1.043592692E1,1.343530294E1,-3.353906999E1,1.657624008E1,3.975107943E1
1.044589392E1,2.332894970E1,-3.887496534E1,2.270113415E1,5.070349412E1
1.045586092E1,2.316727185E1,-4.385791107E1,2.291425347E1,5.463791596E1
1.046582792E1,1.172199976E1,-3.894320001E1,1.389562850E1,4.297751269E1
1.047579492E1,4.344180098E0,-2.314285855E1,5.287682138E0,2.413344951E1
1.048576192E1,4.600291067E-1,-1.233617492E1,1.585449135E0,1.244614347E1
1.049572892E1,-8.160852174E-1,-7.423341987E0,-3.484561922E-1,7.476190411E0
1.050569492E1,6.061412318E-1,-5.929225776E0,-1.126296819E0,6.065613738E0
1.051566192E1,-2.529875035E0,-8.905866094E0,-6.556830236E0,1.134489935E1
1.052562892E1,-1.141153833E1,-1.542376908E1,-3.151678239E1,3.689747189E1
1.053559592E1,9.172624843E0,-1.156618315E1,-2.648046328E1,3.031713335E1
1.054556292E1,1.692550012E1,-8.715708209E0,-3.684456415E1,4.147237672E1
1.055552992E1,1.065117343E1,-7.188801396E0,-3.787922896E1,3.999952934E1
1.056549692E1,5.061212459E0,-2.015283805E0,-1.153664068E1,1.275818634E1
1.057546392E1,3.476799451E0,6.505886954E-1,-8.917848208E0,9.593717566E0
1.058543092E1,3.230029116E0,1.215256065E0,-4.959489033E0,6.042058165E0
1.059539708E1,4.008269546E0,1.510269729E0,-2.536467771E0,4.978032559E0
1.060536308E1,4.308510621E0,1.726725467E0,-8.517674124E-1,4.719147416E0
1.061533008E1,4.125959086E0,1.757962462E0,5.670249671E-2,4.485218565E0
1.062529708E1,3.948976732E0,1.771922690E0,5.394429199E-1,4.361780132E0
1.063526408E1,3.882101542E0,2.091287668E0,8.408481757E-1,4.489011267E0
1.064523108E1,3.976972909E0,2.708865323E0,9.668283373E-1,4.908056834E0
1.065519808E1,4.578671280E0,3.740438125E0,9.751730449E-1,5.992167431E0
1.066516508E1,5.168674343E0,4.645184820E0,9.705664623E-1,7.016761057E0
1.067513208E1,4.904413524E0,4.903228878E0,1.084620497E0,7.019353750E0
1.068509908E1,4.546991650E0,5.070648111E0,9.945406312E-1,6.883001990E0
1.069506508E1,4.892489005E0,5.505278082E0,1.108532247E0,7.448045326E0
1.070503208E1,5.121099057E0,5.835727043E0,1.009538739E0,7.829465764E0
1.071499908E1,5.256001924E0,6.038503804E0,8.717305376E-1,8.052887591E0
1.072496608E1,6.005815530E0,6.043668065E0,1.001166257E0,8.578932202E0
1.073493308E1,7.485037129E0,6.006289739E0,1.393041388E0,9.697518320E0
1.074490008E1,8.284977161E0,5.912634886E0,2.141705870E0,1.040129809E1
1.075486708E1,8.618305875E0,4.882776487E0,3.236939063E0,1.042086738E1
1.076483408E1,9.025818799E0,3.709271296E0,4.677093660E0,1.082124317E1
1.077480108E1,8.723742868E0,2.489589474E0,6.168283925E0,1.097039069E1
1.078476808E1,7.258310173E0,1.282806609E0,7.175948047E0,1.028702531E1
1.079473408E1,4.213196913E0,2.364292413E-1,6.934338173E0,8.117387074E0
1.080470108E1,1.420718745E0,-8.254280448E-2,6.194841394E0,6.356202873E0
1.081466808E1,2.526504408E-1,3.152111167E-1,5.946395540E0,5.960101527E0
1.082463508E1,-5.286217703E-1,8.134003222E-1,5.387167250E0,5.473813300E0
1.083460208E1,-1.189719374E0,1.377871810E0,4.583720058E0,4.931982612E0
1.084456908E1,-1.428920196E0,2.008596345E0,4.069151632E0,4.757548445E0
1.085453608E1,-1.570789873E0,2.525805373E0,3.452858611E0,4.557335427E0
1.086450308E1,-1.654113573E0,2.857999143E0,2.790696521E0,4.323452080E0
1.087447008E1,-1.767031201E0,2.971173756E0,2.109749667E0,4.049853876E0
1.088443608E1,-2.026542180E0,2.800118140E0,1.600308080E0,3.809005219E0
1.089440308E1,-2.333514424E0,2.345676048E0,1.159112197E0,3.505856068E0
1.090437008E1,-2.404901033E0,1.522510291E0,7.735028695E-1,2.949558146E0
1.091433708E1,-2.248228983E0,3.270704395E-1,4.253001541E-1,2.311360823E0
1.092430408E1,-1.947839389E0,-1.066568388E0,1.088862652E-1,2.223398891E0
1.093427108E1,-1.858173506E0,-2.620271820E0,-3.409871051E-1,3.230310418E0
1.094423808E1,-1.795780791E0,-4.010672459E0,-7.780082953E-1,4.462691915E0
1.095420508E1,-1.644869710E0,-4.964050446E0,-1.275698149E0,5.382824441E0
1.096417208E1,-1.015296200E0,-5.199065831E0,-1.997489851E0,5.661367113E0
1.097413908E1,7.502650112E-2,-4.897100996E0,-2.405724029E0,5.456623063E0
1.098410508E1,5.763235018E-1,-4.726573384E0,-2.901124990E0,5.575766399E0
1.099407208E1,4.401497430E-1,-5.254172330E0,-3.311568831E0,6.226278727E0
1.100403908E1,4.631637990E-2,-6.675282546E0,-3.560322833E0,7.565543004E0
1.101400608E1,1.837879282E-1,-8.595026355E0,-3.665983189E0,9.345998545E0
1.102397308E1,7.372800994E-1,-1.071841407E1,-3.489096730E0,1.129609570E1
1.103394008E1,1.528753217E0,-1.287006313E1,-2.973780152E0,1.329732980E1
1.104390708E1,2.226276197E0,-1.506591129E1,-2.854066890E0,1.549463412E1
1.105387408E1,2.347608260E0,-1.727920287E1,-3.892193252E0,1.786704465E1
1.106384108E1,1.849136196E0,-1.924589280E1,-2.782229753E0,1.953367597E1
1.107380708E1,7.846393302E-2,-2.041613583E1,-8.597406757E-1,2.043438066E1
1.108377408E1,-1.107243666E0,-1.984031841E1,-6.112416118E-1,1.988058951E1
1.109374108E1,-1.038917343E0,-1.734679434E1,-1.444216658E0,1.743778613E1
1.110370808E1,-4.307773872E-1,-1.448039451E1,-1.875931208E0,1.460775520E1
1.111367508E1,6.707601276E-1,-1.147991801E1,-6.921983591E-1,1.152031142E1
1.112364208E1,1.471265877E0,-8.315428290E0,4.274568996E-1,8.455394156E0
1.113360908E1,1.078573306E0,-5.422888475E0,7.232763103E-1,5.576214523E0
1.114357608E1,3.052360591E-1,-3.235705885E0,6.746330309E-1,3.319351044E0
1.115354308E1,2.622296418E-1,-1.457461771E0,6.874197221E-1,1.632637459E0
1.116350908E1,3.254093917E-1,2.174152654E-1,6.868975657E-1,7.905624173E-1
1.117347608E1,5.859334007E-2,1.747864906E0,4.879787976E-1,1.815650907E0
1.118344308E1,3.076936439E-1,3.157366059E0,3.036536564E-1,3.186823082E0
1.119341008E1,1.076907288E0,4.650574783E0,2.057771136E-1,4.778066486E0
1.120337708E1,1.317616253E0,5.861184066E0,5.187123477E-1,6.029813740E0
1.121334408E1,8.694767283E-1,6.414986140E0,8.832418048E-1,6.533617148E0
1.122331108E1,5.675914161E-1,7.053538926E0,1.383680434E0,7.210349710E0
1.123327808E1,7.420138590E-1,8.228840967E0,2.079841159E0,8.519985180E0
1.124324508E1,7.436047402E-1,9.591198944E0,2.946875067E0,1.006121851E1
1.125321208E1,2.061409566E-1,1.050430073E1,2.427665706E0,1.078315300E1
1.126317808E1,-2.797483385E-2,1.137648311E1,1.372228078E0,1.145897728E1
1.127314508E1,-1.678104115E-1,1.224641197E1,1.117502314E0,1.229843803E1
1.128311208E1,1.553865400E-1,1.305920535E1,1.516770079E0,1.314791165E1
1.129307908E1,1.711660262E0,1.399721686E1,2.764578763E0,1.436992541E1
1.130304608E1,3.306623548E0,1.493228838E1,4.700664371E0,1.600010128E1
1.131301308E1,5.004558202E0,1.564161060E1,5.818414607E0,1.742295996E1
1.132298008E1,5.878074333E0,1.579500646E1,6.793103356E0,1.817086239E1
1.133294708E1,5.363370252E0,1.576781457E1,8.221148955E0,1.857355665E1
1.134291408E1,3.628134747E0,1.560865803E1,8.190306062E0,1.799651857E1
1.135288108E1,2.258422142E0,1.514622046E1,6.561474094E0,1.666017428E1
1.136284708E1,1.565773839E0,1.449647084E1,5.689553668E0,1.565152822E1
1.137281408E1,8.009672414E-1,1.370563726E1,4.917115431E0,1.458300605E1
1.138278108E1,1.182345743E-1,1.286118472E1,4.296132942E0,1.356026585E1
1.139274808E1,-2.498265280E-1,1.210879190E1,3.503094964E0,1.260781222E1
1.140271508E1,-3.467345526E-1,1.150838928E1,2.920933310E0,1.187834584E1
1.141268208E1,-2.190674693E-1,1.109092381E1,2.518632009E0,1.137541598E1
1.142264908E1,5.489965394E-2,1.078119679E1,2.277446058E0,1.101925491E1
1.143261608E1,1.338309257E-1,1.044833936E1,2.111334847E0,1.066036777E1
1.144258308E1,-2.464309037E-3,9.971170313E0,1.850150249E0,1.014136576E1
1.145254908E1,-1.711860090E-2,9.426267702E0,1.660445523E0,9.571410302E0
1.146251608E1,-2.159851827E-1,8.697705216E0,1.468486111E0,8.823444741E0
1.147248308E1,-3.520057444E-1,7.967233030E0,1.177112412E0,8.061408303E0
1.148245008E1,3.534349501E-2,6.875686507E0,1.122146246E0,6.966744311E0
1.149241708E1,2.816472217E-1,2.461642706E0,1.998308169E0,3.183118834E0
1.150238408E1,1.685825070E0,-1.048658366E1,3.336202565E0,1.113286534E1
1.151235108E1,7.029299878E0,-2.567231259E1,6.709533781E0,2.744989133E1
1.152231808E1,1.681365107E1,-3.775968380E1,1.325202080E1,4.340632026E1
1.153228508E1,2.658294860E1,-4.849897711E1,1.930910939E1,5.858024959E1
1.154225208E1,2.103710312E1,-4.964679957E1,1.683096467E1,5.648580164E1
1.155221808E1,6.189110538E0,-3.140643373E1,6.409540628E0,3.264584783E1
1.156218508E1,6.404978630E-1,-1.435562779E1,1.669296746E0,1.446654203E1
1.157215208E1,-1.312122209E0,-6.470383830E0,-5.538392034E-1,6.625275048E0
1.158211908E1,-2.643812418E0,-3.385954185E0,-2.123191539E0,4.791906943E0
1.159208608E1,-2.492155817E0,-2.913075237E0,-2.984129139E0,4.858176064E0
1.160205367E1,-1.096013445E1,-7.432298752E0,-1.569307780E1,2.053378442E1
1.161202067E1,-7.582190956E0,-1.061290223E1,-2.160192076E1,2.523422862E1
1.162198767E1,4.219638205E0,-9.406659649E0,-1.623694136E1,1.923353470E1
1.163195467E1,6.145078665E0,-8.653514299E0,-1.961867619E1,2.230555440E1
1.164192067E1,1.572403997E0,-7.155746502E0,-2.538339932E1,2.641957841E1
1.165188767E1,-5.329741818E-1,-4.509737577E0,-1.297399856E1,1.374577873E1
1.166185467E1,2.766164784E-1,-1.536400352E0,-6.742803268E0,6.921158764E0
1.167182167E1,1.479315008E0,3.201911902E-1,-4.536364043E0,4.782205979E0
1.168178867E1,2.198621644E0,9.821240687E-1,-2.358849825E0,3.370857059E0
1.169175567E1,2.557016056E0,1.244092779E0,-9.657211670E-1,3.003117601E0
1.170172267E1,2.614262929E0,1.303684677E0,-8.463172227E-2,2.922520646E0
1.171168967E1,2.155477963E0,1.268544080E0,3.642844588E-2,2.501322923E0
1.172165667E1,1.716697784E0,1.546177481E0,-1.330794123E-1,2.314179383E0
1.173162367E1,2.024184729E0,2.140479709E0,2.279346988E-2,2.946098563E0
1.174158967E1,2.865689401E0,3.053828242E0,3.597275774E-1,4.203266183E0
1.175155667E1,3.365086057E0,3.543778136E0,4.114001530E-1,4.904224478E0
1.176152367E1,3.977567571E0,3.940008858E0,3.609322500E-1,5.610257184E0
1.177149067E1,5.362657476E0,4.737612927E0,1.128458534E-1,7.156521895E0
1.178145767E1,5.934448509E0,5.354585395E0,-4.012694134E-1,8.003141945E0
1.179142467E1,5.584751683E0,5.780655043E0,-9.136878182E-1,8.089514789E0
1.180139167E1,5.012171277E0,5.836424616E0,-1.415012301E0,7.822274159E0
1.181135867E1,4.750023935E0,5.816881467E0,-1.330125201E0,7.626799488E0
1.182132567E1,4.980792779E0,5.881851050E0,-8.954100068E-1,7.759267205E0
1.183129267E1,5.540455517E0,5.823909820E0,-6.618950178E-1,8.065524034E0
1.184125867E1,6.291202923E0,5.596689359E0,-3.525233692E-1,8.427718477E0
1.185122567E1,6.996859526E0,5.170054286E0,3.541911413E-1,8.706948714E0
1.186119267E1,7.013393698E0,4.350688049E0,1.253141199E0,8.347846460E0
1.187115967E1,6.371414443E0,3.367864069E0,2.191158696E0,7.532503357E0
1.188112667E1,4.878600114E0,2.207463657E0,3.226309994E0,6.251616675E0
1.189109367E1,2.911258214E0,9.957977825E-1,4.411151183E0,5.378223905E0
1.190106067E1,1.171308685E0,-1.644020694E-1,5.211696401E0,5.344227863E0
1.191102767E1,-9.298695490E-2,-9.646993661E-1,5.615530257E0,5.698549948E0
1.192099467E1,-6.867062156E-1,-1.262903271E0,5.665830930E0,5.845351164E0
1.193096067E1,-1.014840702E0,-9.372671539E-1,5.322789406E0,5.499132516E0
1.194092767E1,-1.039725429E0,-1.379153520E-1,4.729280060E0,4.844186154E0
1.195089467E1,-8.792639440E-1,1.015667791E0,3.977537457E0,4.198272308E0
1.196086167E1,-1.041488657E0,2.019380949E0,3.006273422E0,3.768325613E0
1.197082867E1,-1.326042968E0,2.698355538E0,2.148913148E0,3.695583889E0
1.198079567E1,-1.754445654E0,3.043802606E0,1.472457394E0,3.809323383E0
1.199076267E1,-1.967170576E0,3.241804531E0,8.791382289E-1,3.892549386E0
1.200072967E1,-1.687037491E0,3.209263022E0,4.654814892E-1,3.655425783E0
1.201069667E1,-9.506309652E-1,2.803755108E0,2.438335705E-1,2.970554956E0
1.202066367E1,-4.306532800E-2,2.153811361E0,2.894570553E-1,2.173601478E0
1.203062967E1,1.283645099E0,1.421204356E0,5.246075106E-1,1.985643372E0
1.204059667E1,2.889664155E0,5.662478721E-1,6.196130705E-1,3.009105504E0
1.205056367E1,4.064626472E0,-6.710024947E-1,2.665201825E-1,4.128252138E0
1.206053067E1,3.462976340E0,-2.554896441E0,-5.437805307E-1,4.337671982E0
1.207049767E1,8.421879190E-1,-4.628100425E0,-1.495061122E0,4.935970198E0
1.208046467E1,-1.523216927E0,-6.226620426E0,-1.911741310E0,6.689226157E0
1.209043167E1,-2.631175708E0,-7.485447019E0,-2.083825452E0,8.203495059E0
1.210039867E1,-2.585594907E0,-9.062386116E0,-2.433088998E0,9.733039876E0
1.211036567E1,-1.927133228E0,-1.091230891E1,-3.065479989E0,1.149736908E1
1.212033167E1,-1.120079328E0,-1.281836439E1,-3.071938531E0,1.322882646E1
1.213029867E1,-3.629827224E-1,-1.496650278E1,-2.564596387E0,1.518898010E1
1.214026567E1,3.207615861E-1,-1.711055046E1,-2.695531332E0,1.732454081E1
1.215023267E1,5.627273367E-1,-1.895740873E1,-4.018356870E0,1.938677899E1
1.216019967E1,1.129766045E0,-1.978878807E1,-5.173147463E0,2.048496910E1
1.217016667E1,3.016172905E-1,-1.970302578E1,-5.871637133E0,2.056152525E1
1.218013367E1,-8.600006575E-1,-1.879285755E1,-5.921267715E0,1.972238595E1
1.219010067E1,2.676877253E-2,-1.666950902E1,-4.401701497E0,1.724088813E1
1.220006767E1,9.651572031E-1,-1.428273406E1,-2.604603036E0,1.455032569E1
1.221003467E1,1.942833441E0,-1.169633984E1,-9.879630983E-1,1.189769047E1
1.222000067E1,2.540001536E0,-8.878530360E0,3.887047702E-1,9.242889189E0
1.222996767E1,2.367235170E0,-6.338168929E0,1.004720049E0,6.840003662E0
1.223993467E1,2.297785013E0,-4.159951875E0,1.420448165E0,4.960109732E0
1.224990167E1,2.136177474E0,-2.048436348E0,1.772582109E0,3.449839563E0
1.225986867E1,1.930953945E0,-2.190314358E-1,1.840881243E0,2.676826789E0
1.226983567E1,1.478963006E0,1.460484781E0,1.749348490E0,2.716719991E0
1.227980267E1,9.812335378E-1,3.084717329E0,1.461625573E0,3.551710795E0
1.228976967E1,6.261514270E-1,4.666480379E0,1.267968130E0,4.876048391E0
1.229973667E1,6.092501964E-1,5.865313954E0,1.535477661E0,6.093503527E0
1.230970367E1,1.873013739E-1,6.745833880E0,1.742733389E0,6.969826125E0
1.231966967E1,3.530999047E-1,7.998150768E0,1.878470653E0,8.223365931E0
1.232963667E1,9.283381632E-1,9.270500216E0,2.200620661E0,9.573229199E0
1.233960367E1,1.056977712E0,1.021383561E1,2.306609631E0,1.052426186E1
1.234957067E1,7.669634897E-1,1.093214149E1,2.356151919E0,1.120943364E1
1.235953767E1,1.085774591E-1,1.147466254E1,2.485418655E0,1.174125101E1
1.236950467E1,-1.443860270E-1,1.222954041E1,2.152515618E0,1.241836662E1
1.237947167E1,-1.466486071E-1,1.310477621E1,1.883189356E0,1.324020648E1
1.238943867E1,1.424649243E-1,1.415725749E1,2.473869234E0,1.437248290E1
1.239940567E1,8.393716076E-1,1.496097365E1,3.223794522E0,1.532736534E1
1.240937267E1,2.089089700E0,1.490238572E1,4.395443223E0,1.567690394E1
1.241933867E1,3.483082284E0,1.441195402E1,5.608529971E0,1.585218878E1
1.242930567E1,3.602329230E0,1.400652796E1,7.465113326E0,1.627536539E1
1.243927267E1,3.313752766E0,1.403543894E1,8.556621258E0,1.676872896E1
1.244923967E1,2.214768584E0,1.410108913E1,7.779820998E0,1.625643040E1
1.245920667E1,1.489234664E0,1.360648252E1,5.460131146E0,1.473659454E1
1.246917367E1,9.996934900E-1,1.287142904E1,4.201571479E0,1.357668131E1
1.247914067E1,5.883829455E-1,1.231459051E1,3.598767107E0,1.284314831E1
1.248910767E1,2.686080770E-1,1.192496363E1,3.108402060E0,1.232635677E1
1.249907467E1,-1.213560373E-2,1.158653380E1,2.772569568E0,1.191364994E1
1.250904067E1,1.802755058E-2,1.139578243E1,2.633070205E0,1.169603526E1
1.251900767E1,5.100137374E-1,1.132514923E1,2.726840833E0,1.165996484E1
1.252897467E1,1.421784838E0,1.128651902E1,3.026719966E0,1.177149172E1
1.253894167E1,2.658638910E0,1.118652227E1,3.410519507E0,1.199325997E1
1.254890867E1,4.126188590E0,1.100700457E1,3.857853724E0,1.237184777E1
1.255887567E1,5.395018306E0,1.034797425E1,4.198407258E0,1.240215372E1
1.256884267E1,6.422993317E0,8.828027374E0,4.433783416E0,1.178335037E1
1.257880967E1,7.782218941E0,5.702877719E0,4.590188248E0,1.068436119E1
1.258877667E1,6.696852924E0,-4.430259883E-2,3.972917572E0,7.786775703E0
1.259874283E1,1.515351252E0,-6.799098507E0,4.300070457E0,8.186246750E0
1.260870883E1,5.188079497E-1,-1.580863047E1,6.778509876E0,1.720843268E1
1.261867583E1,7.537156870E0,-2.343428846E1,1.048598958E1,2.675687924E1
1.262864283E1,1.634610536E1,-2.820578951E1,1.330827452E1,3.521181468E1
1.263860983E1,2.361230343E1,-3.261805400E1,1.564891611E1,4.320146868E1
1.264857683E1,1.786898111E1,-3.611851070E1,1.288219961E1,4.230600865E1
1.265854383E1,5.704162352E0,-3.113245894E1,5.497373232E0,3.212457906E1
1.266851083E1,3.684138794E0,-2.052914614E1,1.151387221E0,2.088885857E1
1.267847783E1,2.748240473E0,-1.373522417E1,-2.307648973E0,1.419628305E1
1.268844483E1,1.716049474E0,-1.093581121E1,-3.539607610E0,1.162177330E1
1.269841183E1,4.971586338E-1,-1.107749158E1,-4.435593129E0,1.194288377E1
1.270837783E1,-4.143886650E0,-1.335539606E1,-2.149191826E1,2.564061136E1
1.271834483E1,-4.329383719E0,-1.432394991E1,-3.239240761E1,3.568174849E1
1.272831183E1,2.585545791E0,-1.092894658E1,-2.157681048E1,2.432458984E1
1.273827883E1,1.256435958E0,-8.421566364E0,-2.364449820E1,2.513093127E1
1.274824583E1,-3.093258210E-1,-6.307329544E0,-1.194849984E1,1.351461198E1
1.275821283E1,-1.312668302E-1,-4.166215997E0,-6.265076979E0,7.525010051E0
1.276817983E1,4.666996469E-1,-3.166043327E0,-5.922283961E0,6.731648106E0
1.277814683E1,2.289328916E0,-2.168485533E0,-5.421748853E0,6.272058435E0
1.278811383E1,3.745857325E0,-1.466285219E0,-4.291499024E0,5.882040744E0
1.279808083E1,3.911615071E0,-9.554403001E-1,-3.092753157E0,5.077274931E0
1.280804683E1,3.497960524E0,-8.136920983E-1,-2.013695701E0,4.117376961E0
1.281801383E1,3.051360717E0,-3.942806751E-1,-1.328549961E0,3.351313844E0
1.282798083E1,3.008050391E0,4.446176004E-1,-1.002560087E0,3.201746195E0
1.283794783E1,3.041749357E0,1.439216704E0,-9.127565029E-1,3.486647143E0
1.284791483E1,3.090306097E0,2.497335865E0,-9.839776361E-1,4.093273774E0
1.285788183E1,3.169908922E0,3.593066071E0,-1.089916612E0,4.913895052E0
1.286784883E1,3.229426560E0,4.519526401E0,-1.126497378E0,5.667831256E0
1.287781583E1,3.451997024E0,5.083774526E0,-9.447643076E-1,6.217204072E0
1.288778283E1,4.147708974E0,5.527503349E0,-5.301705515E-1,6.930935278E0
1.289774883E1,4.814386284E0,5.871557027E0,-2.854368022E-1,7.598353201E0
1.290771583E1,5.399000260E0,5.994191265E0,-1.635466218E-3,8.067188817E0
1.291768283E1,6.031001827E0,6.212388888E0,3.366528565E-1,8.664877026E0
1.292764983E1,6.763640991E0,6.550998223E0,3.844903895E-1,9.423919038E0
1.293761683E1,7.508885583E0,6.655685018E0,5.139673322E-1,1.004717215E1
1.294758383E1,7.780968806E0,6.431543700E0,1.031437147E0,1.014751657E1
1.295755083E1,7.517602612E0,5.925908065E0,1.793430942E0,9.738949120E0
1.296751783E1,7.302823856E0,5.201219945E0,2.631161090E0,9.343817949E0
1.297748483E1,6.828634547E0,4.210232667E0,3.588287727E0,8.788180568E0
1.298745183E1,5.633749012E0,3.058037653E0,4.520587671E0,7.843878830E0
1.299741783E1,4.117294682E0,1.804889876E0,5.370750023E0,7.003905965E0
1.300738483E1,2.618189626E0,7.160897899E-1,5.953714499E0,6.543272717E0
1.301735183E1,1.336529803E0,8.380814195E-2,6.029238306E0,6.176167928E0
1.302731883E1,8.929866283E-1,7.006776989E-2,5.825460502E0,5.893922690E0
1.303728583E1,5.888727960E-1,4.454093134E-1,5.460147518E0,5.509843151E0
1.304725283E1,-1.060114816E-1,9.634451383E-1,4.682775400E0,4.782034129E0
1.305721983E1,-9.041178265E-1,1.571545041E0,3.409590969E0,3.861669773E0
1.306718683E1,-1.421948707E0,2.168979038E0,2.388791077E0,3.526007799E0
1.307715383E1,-1.804911365E0,2.556329008E0,1.758559463E0,3.589575799E0
1.308712083E1,-2.010908772E0,2.650622962E0,1.361368044E0,3.594840626E0
1.309708683E1,-1.922850874E0,2.356080583E0,1.155601602E0,3.253288530E0
1.310705383E1,-1.211477448E0,1.564261749E0,1.332902775E0,2.385628269E0
1.311702083E1,-2.810809189E-1,6.515967554E-1,1.671242407E0,1.815664065E0
1.312698783E1,3.099448219E-1,-1.160333169E-1,1.833175490E0,1.862810215E0
1.313695483E1,1.571117610E-2,-6.427505028E-1,1.354044845E0,1.498937121E0
1.314692183E1,-1.217334166E0,-6.176735491E-1,3.519873257E-1,1.409722725E0
1.315688883E1,-2.176957564E0,-1.036559308E-1,-4.668919837E-1,2.228873462E0
1.316685583E1,-2.433841827E0,2.714768672E-1,-9.495577088E-1,2.626584393E0
1.317682283E1,-2.485299664E0,-2.841115308E-1,-1.154468557E0,2.755037465E0
1.318678883E1,-2.349538426E0,-1.512676443E0,-1.141722066E0,3.018617252E0
1.319675583E1,-2.198812117E0,-3.381888615E0,-9.700679871E-1,4.148852520E0
1.320672283E1,-2.169165272E0,-6.356188293E0,-7.002429584E-1,6.752536397E0
1.321668983E1,-1.584711801E0,-1.025939010E1,-3.436084118E-1,1.038674460E1
1.322665683E1,5.835959762E-3,-1.463283493E1,2.150035813E-1,1.463441555E1
1.323662383E1,1.305031875E0,-1.882388288E1,1.096480696E0,1.890089799E1
1.324659083E1,1.873087999E0,-2.196395931E1,2.008113657E0,2.213496075E1
1.325655783E1,1.862742228E0,-2.344706112E1,1.908108728E0,2.359820677E1
1.326652483E1,1.505411132E0,-2.247826636E1,2.944555476E-1,2.253054428E1
1.327649183E1,1.311297021E0,-1.865155608E1,-2.512237494E0,1.886561372E1
1.328645783E1,3.573183784E-1,-1.502847625E1,-5.356271732E0,1.595845925E1
1.329642483E1,-7.835255087E-1,-1.248900944E1,-6.455887413E0,1.408075819E1
1.330639183E1,-5.258553795E-1,-1.027134765E1,-5.194664047E0,1.152222379E1
1.331635883E1,3.966094018E-1,-8.311591932E0,-2.794576734E0,8.777785517E0
1.332632583E1,1.427880414E0,-6.305301729E0,-4.340142596E-1,6.479509299E0
1.333629283E1,1.657754342E0,-4.725699225E0,7.084042096E-1,5.057886826E0
1.334625983E1,1.480201739E0,-3.484682667E0,1.033805854E0,3.924635654E0
1.335622683E1,1.748842852E0,-2.371788543E0,1.037399991E0,3.124104825E0
1.336619383E1,1.903156282E0,-1.084134593E0,1.054347268E0,2.430843436E0
1.337616083E1,2.123163034E0,4.655763602E-1,1.027147045E0,2.404082708E0
1.338612683E1,2.571475636E0,1.966258995E0,9.475122066E-1,3.372897977E0
1.339609383E1,2.605116422E0,3.255301659E0,1.011740362E0,4.290365838E0
1.340606083E1,2.303864363E0,4.636856630E0,1.104019950E0,5.294061812E0
1.341602783E1,2.014184821E0,5.990702816E0,1.066768363E0,6.409637702E0
1.342599483E1,1.495001480E0,7.257969280E0,7.687270099E-1,7.450106624E0
1.343596183E1,1.018031162E0,8.416772817E0,2.068972939E-1,8.480640223E0
1.344592883E1,6.823243853E-1,9.469435356E0,-3.624035557E-1,9.500900424E0
1.345589583E1,2.114616305E-1,1.041225152E1,-7.699059547E-1,1.044281824E1
1.346586283E1,-5.491069056E-2,1.115805686E1,-9.644836038E-1,1.119979806E1
1.347582983E1,-1.576505088E-1,1.154388655E1,-1.191420037E0,1.160627641E1
1.348579583E1,-2.214692862E-1,1.178578119E1,-1.516957921E0,1.188506828E1
1.349576283E1,-6.925983086E-2,1.211274462E1,-1.461529679E0,1.220079703E1
1.350572983E1,-5.152303308E-2,1.238825373E1,-1.349190048E0,1.246161301E1
1.351569683E1,-1.461358063E-1,1.278288582E1,-1.389000816E0,1.285895987E1
1.352566383E1,-1.100081266E-1,1.344584430E1,-1.544598294E0,1.353471886E1
1.353563083E1,-4.076612972E-1,1.394958778E1,-1.921687278E0,1.408723070E1
1.354559783E1,-9.346455547E-1,1.425249109E1,-2.101556987E0,1.443688354E1
1.355556483E1,-1.156207812E0,1.463358337E1,-2.063339732E0,1.482349316E1
1.356553183E1,-1.353754969E0,1.480616745E1,-1.899482623E0,1.498877184E1
1.357549883E1,-1.337772482E0,1.483968720E1,-1.355060068E0,1.496135485E1
1.358546483E1,-1.336163475E0,1.481383198E1,-4.449397455E-1,1.488062237E1
1.359543229E1,-1.350300288E0,1.450697712E1,6.077379602E-1,1.458235377E1
1.360539929E1,-1.016867639E0,1.390173884E1,1.645902328E0,1.403571719E1
1.361536629E1,-3.410680890E-1,1.316766769E1,2.947499549E0,1.349783514E1
1.362533329E1,6.889759585E-1,1.242704065E1,3.828638695E0,1.302169349E1
1.363530029E1,1.780732105E0,1.183404878E1,4.010662519E0,1.262145519E1
1.364526729E1,2.945245155E0,1.166197224E1,4.273646890E0,1.276480017E1
1.365523429E1,3.994361651E0,1.167216745E1,4.988122848E0,1.330698266E1
1.366520129E1,3.843964248E0,1.089469008E1,5.070910066E0,1.261683248E1
1.367516829E1,2.774970435E0,1.001598571E1,4.101686125E0,1.117337280E1
1.368513429E1,2.571433828E0,9.625515084E0,3.914786893E0,1.070459569E1
1.369510129E1,2.895299701E0,8.569459405E0,3.770434341E0,9.799722954E0
1.370506829E1,1.725090001E0,4.954010777E0,3.524279426E0,6.319707569E0
1.371503529E1,6.846387863E-1,-2.401131626E0,3.717382554E0,4.478068379E0
1.372500229E1,2.928501069E0,-1.440977067E1,6.138997561E0,1.593439362E1
1.373496929E1,1.033901280E1,-2.591476388E1,1.150758236E1,3.018103087E1
1.374493629E1,1.648262733E1,-3.303956574E1,1.673816819E1,4.053956318E1
1.375490329E1,1.878239104E1,-3.822021051E1,1.635383421E1,4.561809507E1
1.376487029E1,1.488895467E1,-3.929860313E1,1.316781271E1,4.403921515E1
1.377483629E1,9.908799233E0,-3.599435326E1,8.795385877E0,3.835539834E1
1.378480329E1,6.590196787E0,-2.731270450E1,4.421338786E0,2.844227061E1
1.379477029E1,4.192838370E0,-1.846787866E1,2.507958502E-1,1.893951780E1
1.380473729E1,3.112305954E0,-1.300218798E1,-2.188722746E0,1.354746648E1
1.381470429E1,3.499995940E0,-9.820368283E0,-3.648853479E0,1.104553016E1
1.382467129E1,3.000749850E0,-8.222344126E0,-4.893536534E0,1.002786829E1
1.383463829E1,4.208639300E0,-9.034186749E0,-1.971263159E1,2.208884377E1
1.384460529E1,1.322511425E1,-1.037082867E1,-5.428771593E1,5.682969149E1
1.385457229E1,1.124558266E1,-9.276464961E0,-3.530850527E1,3.819956120E1
1.386453929E1,6.654989784E0,-5.852969897E0,-1.487516693E1,1.731521692E1
1.387450529E1,5.802198524E0,-1.055879093E0,-8.751281499E0,1.055297665E1
1.388447229E1,3.361846699E0,-4.054406708E-1,-5.696948057E0,6.627338269E0
1.389443929E1,2.180023551E0,-6.764246178E-1,-3.828117416E0,4.456964875E0
1.390440629E1,2.360261050E0,-6.415319431E-1,-2.260374235E0,3.330418463E0
1.391437329E1,2.803458947E0,-1.166987300E-1,-1.206022142E0,3.054093985E0
1.392434029E1,2.553983105E0,1.112742680E-1,-8.239484069E-1,2.685908160E0
1.393430729E1,2.323757029E0,5.452569526E-1,-5.253623861E-1,2.444004401E0
1.394427429E1,2.195966862E0,1.279233960E0,-4.192003387E-1,2.575740458E0
1.395424129E1,1.912001365E0,1.936482049E0,-2.771726400E-1,2.735422567E0
1.396420829E1,1.678313299E0,2.423462142E0,-5.805057228E-2,2.948435882E0
1.397417429E1,1.730970399E0,3.180850816E0,2.179403454E-1,3.627887599E0
1.398414129E1,2.121024853E0,3.952333619E0,5.450984931E-1,4.518497519E0
1.399410829E1,2.446204888E0,4.588137630E0,1.139777867E0,5.322970867E0
1.400407529E1,3.022475180E0,5.151395236E0,1.963635934E0,6.287137279E0
1.401404229E1,3.358754107E0,5.477928316E0,2.809167291E0,7.012870215E0
1.402400929E1,3.326408187E0,5.497203078E0,3.805847418E0,7.467844915E0
1.403397629E1,3.100774075E0,5.150812268E0,5.159341017E0,7.922402831E0
1.404394329E1,3.043847045E0,4.722375668E0,6.117020216E0,8.305647061E0
1.405391029E1,3.617512403E0,4.055228242E0,6.051144315E0,8.133118689E0
1.406387729E1,4.817391168E0,3.364803636E0,7.008672656E0,9.146073123E0
1.407384329E1,5.492782583E0,2.508498200E0,7.338087244E0,9.503196732E0
1.408381029E1,5.669397731E0,1.651632600E0,7.142390292E0,9.267345896E0
1.409377729E1,5.548016551E0,9.141519409E-1,6.715721304E0,8.758828350E0
1.410374429E1,5.312311195E0,5.882924598E-1,6.001103843E0,8.036167345E0
1.411371129E1,4.983003026E0,8.509435397E-1,5.090249147E0,7.173915280E0
1.412367829E1,4.388819497E0,1.435641716E0,4.231472093E0,6.263238762E0
1.413364529E1,3.458883582E0,2.175799815E0,3.487657145E0,5.372311684E0
1.414361229E1,2.298090384E0,2.993396099E0,2.890941771E0,4.753859899E0
1.415357929E1,1.163831996E0,3.621014593E0,2.390417773E0,4.492254303E0
1.416354629E1,3.589376186E-1,3.951459460E0,1.998471891E0,4.442607115E0
1.417351229E1,-1.294708031E-1,4.006239685E0,1.786400396E0,4.388387571E0
1.418347929E1,-5.032164954E-1,3.794307353E0,1.788364475E0,4.224718053E0
1.419344629E1,-5.531847538E-1,3.511381638E0,1.942151510E0,4.050650178E0
1.420341329E1,-2.828198808E-1,3.160758614E0,2.029786069E0,3.767016537E0
1.421338029E1,2.724135911E-1,2.702499459E0,2.031041467E0,3.391583986E0
1.422334729E1,1.066948749E0,2.162658198E0,2.100582987E0,3.198111787E0
1.423331429E1,1.594871631E0,1.561621732E0,1.959035929E0,2.969865270E0
1.424328129E1,1.668638642E0,9.345394278E-1,1.454386282E0,2.402698132E0
1.425324829E1,1.912378072E0,4.377517998E-1,7.131153113E-1,2.087426640E0
1.426321529E1,2.229722838E0,-9.073007584E-2,-1.794137724E-1,2.238768675E0
1.427318129E1,2.197181621E0,-7.878532523E-1,-1.114798561E0,2.586715225E0
1.428314829E1,2.110451041E0,-1.504293875E0,-1.923500207E0,3.227500070E0
1.429311529E1,1.780404368E0,-2.205877308E0,-2.798809533E0,3.983600032E0
1.430308229E1,9.509005219E-1,-2.686446514E0,-3.446332241E0,4.471958473E0
1.431304929E1,-4.443445355E-2,-3.186553021E0,-4.091174293E0,5.185923415E0
1.432301629E1,-8.969424158E-1,-3.926498281E0,-4.617839731E0,6.127506690E0
1.433298329E1,-1.485276976E0,-4.835140391E0,-4.771560107E0,6.953590163E0
1.434295029E1,-1.601033134E0,-5.877164506E0,-4.441236569E0,7.538497993E0
1.435291729E1,-1.393006158E0,-7.537855028E0,-3.757512580E0,8.536897877E0
1.436288429E1,-1.047248603E0,-1.019624134E1,-3.024916685E0,1.068691667E1
1.437285029E1,-5.396572204E-1,-1.379743855E1,-2.163602523E0,1.397647009E1
1.438281729E1,-2.540469021E-2,-1.733107937E1,-1.367576618E0,1.738497119E1
1.439278429E1,3.238405837E-1,-1.978180649E1,-9.046598634E-1,1.980512939E1
1.440275129E1,1.274241315E-1,-2.038300551E1,-1.120148179E0,2.041415887E1
1.441271829E1,-3.225066876E-1,-1.864844068E1,-2.052276800E0,1.876380000E1
1.442268529E1,-3.715195110E-1,-1.608005121E1,-3.072548688E0,1.637518333E1
1.443265229E1,-6.809097245E-2,-1.446411469E1,-3.520398629E0,1.488651929E1
1.444261929E1,-6.583453193E-2,-1.365341227E1,-3.636177885E0,1.412946533E1
1.445258629E1,6.754359998E-1,-1.292321666E1,-3.262903917E0,1.334587144E1
1.446255229E1,1.410259392E0,-1.189343544E1,-2.284737828E0,1.219273001E1
1.447251929E1,1.832442103E0,-1.005801433E1,-8.432047498E-1,1.025828887E1
1.448248629E1,2.405005406E0,-7.702840065E0,2.250961679E-1,8.072698703E0
1.449245329E1,2.598576311E0,-5.288541679E0,6.667204325E-1,5.930074879E0
1.450242029E1,1.770012404E0,-3.290365657E0,8.062478618E-1,3.822235692E0
1.451238729E1,1.501629737E0,-1.676310773E0,8.927533244E-1,2.421139851E0
1.452235429E1,1.697013571E0,-2.958457232E-1,1.019220998E0,2.001547200E0
1.453232129E1,1.702005193E0,1.077192779E0,1.124562681E0,2.306904242E0
1.454228829E1,1.750864381E0,2.745517425E0,1.214142171E0,3.475274553E0
1.455225529E1,1.708538433E0,4.170593807E0,1.676982619E0,4.808869616E0
1.456222129E1,1.553684282E0,5.211430353E0,2.766517700E0,6.101357337E0
1.457218829E1,1.487395422E0,6.438907099E0,3.586855159E0,7.519135569E0
1.458215529E1,1.020254785E0,7.414024449E0,3.826875175E0,8.405572673E0
1.459212229E1,5.678335639E-1,8.239892789E0,3.754032902E0,9.072542706E0
1.460208954E1,-1.928469463E-1,8.801969258E0,3.667039196E0,9.537244320E0
1.461205654E1,-6.402030902E-1,9.474903672E0,3.337090173E0,1.006577520E1
1.462202354E1,-2.764964095E-1,1.046200898E1,2.715735801E0,1.081227558E1
1.463199054E1,1.874766442E-1,1.149901268E1,2.885778680E0,1.185707210E1
1.464195754E1,8.041823329E-1,1.246087264E1,3.399870558E0,1.294137458E1
1.465192454E1,2.212340235E0,1.390677914E1,3.835988646E0,1.459478552E1
1.466189054E1,3.873479238E0,1.561342001E1,4.453059347E0,1.669168845E1
1.467185754E1,4.401713777E0,1.642288048E1,4.786571664E0,1.766344688E1
1.468182454E1,4.183092231E0,1.620364029E1,5.673774372E0,1.767053862E1
1.469179154E1,4.621192524E0,1.657468823E1,6.148722650E0,1.827245195E1
1.470175854E1,4.716957053E0,1.680349796E1,6.007188456E0,1.845788560E1
1.471172554E1,3.960458910E0,1.627185859E1,5.658030159E0,1.767687535E1
1.472169254E1,3.080969848E0,1.559983809E1,4.517237216E0,1.653035861E1
1.473165954E1,2.308030212E0,1.467396892E1,4.039351298E0,1.539378856E1
1.474162654E1,1.541835923E0,1.355987319E1,3.236921521E0,1.402587181E1
1.475159354E1,1.018846849E0,1.256007884E1,2.555517415E0,1.285784969E1
1.476155954E1,6.012487203E-1,1.181998272E1,2.417858756E0,1.207971574E1
1.477152654E1,5.189176581E-1,1.139720096E1,2.348752853E0,1.164826619E1
1.478149354E1,5.782310097E-1,1.105399747E1,2.281971949E0,1.130188511E1
1.479146054E1,6.556227095E-1,1.071915783E1,2.198401350E0,1.096189556E1
1.480142754E1,4.942372186E-1,1.032064202E1,2.231426132E0,1.057067570E1
1.481139454E1,9.717224568E-2,9.719107956E0,2.203504508E0,9.966239713E0
1.482136154E1,-1.537801637E-1,9.004703919E0,2.216058480E0,9.274656661E0
1.483132854E1,-3.097359301E-1,8.151986918E0,2.139691504E0,8.433807373E0
1.484129554E1,-4.162819934E-1,6.544031265E0,2.289564997E0,6.945483696E0
1.485126254E1,2.516217694E-2,2.776744480E0,3.040761470E0,4.117908857E0
1.486122854E1,1.517583865E0,-5.192452630E0,4.315353910E0,6.920036450E0
1.487119554E1,5.403659906E0,-1.698969670E1,6.686912073E0,1.904111676E1
1.488116254E1,1.332042269E1,-2.813028090E1,1.207434829E1,3.338467090E1
1.489112954E1,2.586384632E1,-3.821693373E1,1.860376561E1,4.975512702E1
1.490109654E1,2.786638203E1,-4.451339330E1,1.830197678E1,5.561420488E1
1.491106354E1,1.138570650E1,-4.029690528E1,9.638743240E0,4.296952710E1
1.492103054E1,2.079263162E0,-2.520260108E1,2.604466211E0,2.542199207E1
1.493099754E1,9.796337396E-2,-1.506290231E1,-8.754041970E-1,1.508863663E1
1.494096454E1,-3.905062973E-1,-1.051910003E1,-2.819132993E0,1.089731487E1
1.495093154E1,5.332757154E-1,-8.661896283E0,-3.937328494E0,9.529710692E0
1.496089754E1,-1.194459858E0,-7.941473706E0,-8.830634648E0,1.193624092E1
1.497086454E1,-5.759831938E0,-9.961985507E0,-2.017163100E1,2.322308155E1
1.498083154E1,3.932444315E0,-9.707219397E0,-2.102075197E1,2.348544741E1
1.499079854E1,9.043294373E0,-8.454362227E0,-2.556487117E1,2.840457801E1
1.500076554E1,5.256873159E0,-8.231828894E0,-2.386167782E1,2.578327735E1
1.501073254E1,1.128632416E0,-6.811430869E0,-1.616509194E1,1.757781554E1
1.502069954E1,5.207674248E-1,-4.777304412E0,-1.101248458E1,1.201535071E1
1.503066654E1,1.302870891E0,-4.032440473E0,-7.552571300E0,8.660218356E0
1.504063354E1,3.109065135E0,-3.565576556E0,-5.560224368E0,7.300391579E0
1.505060054E1,4.095964040E0,-2.935713317E0,-3.625067005E0,6.207772941E0
1.506056654E1,3.907970794E0,-2.267433870E0,-2.039415264E0,4.957086513E0
1.507053354E1,3.634381912E0,-1.760713577E0,-7.926912385E-1,4.115483396E0
1.508050054E1,3.448687207E0,-1.199300183E0,2.805625632E-1,3.662032186E0
1.509046754E1,3.281834570E0,-4.450087792E-1,6.987940183E-1,3.384787148E0
1.510043454E1,3.374186078E0,4.580638576E-1,6.332823989E-1,3.463524330E0
1.511040154E1,3.718607545E0,1.530899876E0,5.915335715E-1,4.064678151E0
1.512036854E1,4.150603346E0,2.668997253E0,5.262861000E-1,4.962663754E0
1.513033554E1,4.941401841E0,3.955270675E0,4.422851461E-1,6.344858897E0
1.514030254E1,5.829234880E0,5.256406551E0,3.350916499E-1,7.856339830E0
1.515026954E1,5.870311570E0,6.270786200E0,3.175166738E-1,8.595588074E0
1.516023554E1,5.002539743E0,6.885374758E0,5.541793652E-1,8.528827833E0
1.517020254E1,4.112487102E0,7.064119463E0,9.933192940E-1,8.234137306E0
1.518016954E1,3.822360832E0,7.060488927E0,1.538424658E0,8.174820894E0
1.519013654E1,3.885671852E0,6.868914261E0,2.512181945E0,8.281997766E0
1.520010354E1,4.186014961E0,6.329471780E0,4.350150690E0,8.746927763E0
1.521007054E1,4.291161640E0,5.212365907E0,4.414627937E0,8.066707283E0
1.522003754E1,4.407463344E0,3.854040170E0,4.797434621E0,7.569328748E0
1.523000454E1,4.573121103E0,2.480045063E0,6.219645867E0,8.108517426E0
1.523997154E1,4.259775540E0,1.083282654E0,6.937756455E0,8.212895567E0
1.524993854E1,3.184423757E0,-1.232025880E-1,6.892399603E0,7.593477848E0
1.525990454E1,2.048691287E0,-7.262709618E-1,6.413982757E0,6.772280289E0
1.526987154E1,1.331259561E0,-4.110306090E-1,5.576829876E0,5.748237090E0
1.527983854E1,8.155523899E-1,4.745033044E-1,4.430696086E0,4.530049325E0
1.528980554E1,4.465831420E-1,1.390540972E0,3.288903853E0,3.598601014E0
1.529977254E1,1.792563361E-1,1.974489536E0,2.415730369E0,3.125139193E0
1.530973954E1,1.129272759E-1,2.198328552E0,1.707603902E0,2.785913150E0
1.531970654E1,2.343233666E-1,2.096741951E0,1.224881240E0,2.439583633E0
1.532967354E1,3.774333850E-1,1.749159479E0,9.535593239E-1,2.027631680E0
1.533964054E1,6.037804185E-1,1.382858316E0,8.173243886E-1,1.716061500E0
1.534960754E1,1.100553136E0,1.297707068E0,7.809272254E-1,1.872193412E0
1.535957354E1,1.696412916E0,1.479640844E0,8.382678726E-1,2.402050548E0
1.536954054E1,2.141035487E0,1.738488311E0,9.347603063E-1,2.912069950E0
1.537950754E1,3.002147042E0,2.091964191E0,9.965677147E-1,3.792406657E0
1.538947454E1,4.013691376E0,2.486085237E0,9.946714626E-1,4.824905138E0
1.539944154E1,4.380403599E0,2.695728384E0,8.340537111E-1,5.210617315E0
1.540940854E1,4.199389882E0,2.903341962E0,5.163126504E-1,5.131359341E0
1.541937554E1,3.909350152E0,3.379308824E0,-7.126162514E-2,5.167961393E0
1.542934254E1,2.774552651E0,3.871114039E0,-6.833453822E-1,4.811509870E0
1.543930954E1,5.787343088E-1,4.046138746E0,-1.304816990E0,4.290538373E0
1.544927654E1,-1.578846459E0,3.704753153E0,-1.408750371E0,4.266442274E0
1.545924254E1,-2.619342113E0,2.663945258E0,-1.369998242E0,3.979252772E0
1.546920954E1,-2.615446113E0,1.154856082E0,-1.379702573E0,3.174559832E0
1.547917654E1,-2.128863923E0,-4.980687529E-1,-1.231935248E0,2.509541500E0
1.548914354E1,-9.707638058E-1,-2.253754894E0,-1.206809177E0,2.734626461E0
1.549911054E1,3.267076197E-1,-4.206555938E0,-1.148856546E0,4.372839134E0
1.550907754E1,4.977187970E-1,-6.261127769E0,-1.052760773E0,6.368496698E0
1.551904454E1,-1.898000354E-1,-8.523696172E0,-1.099325659E0,8.596390951E0
1.552901154E1,-9.359449522E-1,-1.129658909E1,-1.280351070E0,1.140737555E1
1.553897854E1,-1.431032210E0,-1.482811205E1,-1.261718041E0,1.495034088E1
1.554894554E1,-1.372715882E0,-1.837547160E1,-1.250345206E0,1.846904623E1
1.555891154E1,-7.228639354E-1,-2.079563182E1,-1.360268183E0,2.085260571E1
1.556887854E1,-9.030001312E-2,-2.130894251E1,-1.772286679E0,2.138270762E1
1.557884554E1,3.488338492E-1,-1.980030474E1,-2.758951403E0,1.999463843E1
1.558881254E1,1.280356771E-1,-1.700597885E1,-4.495191459E0,1.759052177E1
1.559877883E1,-1.204721210E0,-1.464536668E1,-6.898915740E0,1.623370434E1
1.560874583E1,-2.050998891E0,-1.340892381E1,-9.028819590E0,1.629495067E1
1.561871283E1,-1.845495281E0,-1.290569021E1,-8.557848589E0,1.559485380E1
1.562867983E1,-7.494005734E-1,-1.248031814E1,-4.569636162E0,1.331170600E1
1.563864683E1,6.086969767E-1,-1.141040047E1,-1.106655144E0,1.148008869E1
1.564861383E1,1.069346912E0,-9.460221899E0,7.429899055E-1,9.549415437E0
1.565857983E1,9.846290159E-1,-7.109178107E0,1.678468250E0,7.370696257E0
1.566854683E1,1.133963176E0,-4.670927771E0,2.027651105E0,5.216781358E0
1.567851383E1,1.249466954E0,-2.588260653E0,2.183714021E0,3.609552300E0
1.568848083E1,1.215169892E0,-6.851533413E-1,2.113690106E0,2.532539996E0
1.569844783E1,1.090039988E0,8.303163171E-1,1.965405886E0,2.395920003E0
1.570841483E1,1.435282112E0,2.197024038E0,1.944437771E0,3.266157928E0
1.571838183E1,1.787321771E0,3.754325847E0,1.916030828E0,4.578280879E0
1.572834883E1,1.800221021E0,5.071771361E0,2.062907622E0,5.763614172E0
1.573831583E1,1.606052092E0,6.179074962E0,2.657636697E0,6.915446733E0
1.574828283E1,1.230649884E0,7.168349006E0,2.844030730E0,7.809496616E0
1.575824883E1,9.715702830E-1,8.065968529E0,2.719939950E0,8.567489157E0
1.576821583E1,5.213664720E-1,8.990419171E0,2.939205859E0,9.473034938E0
1.577818283E1,-1.882072538E-2,9.761949336E0,3.076349963E0,1.023523024E1
1.578814983E1,-5.129418768E-2,1.059975067E1,2.909844650E0,1.099202171E1
1.579811683E1,-4.804898299E-2,1.139697175E1,2.721986475E0,1.171761427E1
1.580808383E1,1.044849198E-1,1.212463201E1,2.513934356E0,1.238295136E1
1.581805083E1,4.588470921E-1,1.272272850E1,2.495206894E0,1.297321928E1
1.582801783E1,1.320209054E0,1.335974990E1,2.645445253E0,1.368299126E1
1.583798483E1,2.657825270E0,1.437752210E1,2.929961411E0,1.491180240E1
1.584795183E1,3.908728301E0,1.538581363E1,4.403717033E0,1.647404448E1
1.585791883E1,4.934307999E0,1.601129730E1,6.302012086E0,1.790040204E1
1.586788483E1,4.855178799E0,1.608256083E1,7.396861117E0,1.835579141E1
1.587785183E1,3.792399992E0,1.554847147E1,7.560270329E0,1.770013984E1
1.588781883E1,2.433483685E0,1.503773824E1,6.460806091E0,1.654682536E1
1.589778583E1,1.206162256E0,1.421211607E1,4.697243750E0,1.501676294E1
1.590775283E1,4.795649466E-1,1.317267759E1,4.054998447E0,1.379102715E1
1.591771983E1,2.339095299E-1,1.224030748E1,3.501039083E0,1.273330733E1
1.592768683E1,1.862859318E-1,1.146169809E1,2.838604513E0,1.180944119E1
1.593765383E1,3.781521539E-1,1.100904408E1,2.615344956E0,1.132175250E1
1.594762083E1,7.633347807E-1,1.072975767E1,2.532426760E0,1.105095312E1
1.595758783E1,1.519611826E0,1.058174593E1,2.668803710E0,1.101839735E1
1.596755383E1,2.663378663E0,1.061198539E1,3.054345721E0,1.135943870E1
1.597752083E1,3.646503190E0,1.042908565E1,3.474826015E0,1.158176277E1
1.598748783E1,3.905642140E0,9.798458766E0,3.737522703E0,1.119075112E1
1.599745483E1,3.687885690E0,8.791765866E0,3.682398663E0,1.022035752E1
1.600742183E1,3.502451478E0,7.088342139E0,3.534574034E0,8.660541220E0
1.601738883E1,3.197567421E0,2.513029792E0,3.589590486E0,5.424473800E0
1.602735583E1,1.994430441E0,-4.987146948E0,4.222099006E0,6.831947562E0
1.603732283E1,1.500753240E0,-1.411251225E1,6.692042420E0,1.569072000E1
1.604728983E1,7.938449526E0,-2.192413275E1,1.105192405E1,2.580371297E1
1.605725683E1,1.806438453E1,-2.699691743E1,1.425933935E1,3.547512224E1
1.606722283E1,2.502117133E1,-3.300052973E1,1.699692035E1,4.476593882E1
1.607718983E1,1.774957512E1,-3.948194843E1,1.353534178E1,4.535501235E1
1.608715683E1,4.518178618E0,-3.568406726E1,6.967017092E0,3.663749338E1
1.609712383E1,2.059506589E0,-2.282921391E1,2.276335087E0,2.303467552E1
1.610709083E1,2.089583059E0,-1.409832223E1,-8.061293095E-2,1.425256277E1
1.611705783E1,1.848609654E0,-1.106318929E1,-1.999959715E0,1.139347857E1
1.612702483E1,1.673119948E0,-1.057647642E1,-5.345506423E0,1.196810857E1
1.613699183E1,-3.500620422E0,-1.249754170E1,-2.196782081E1,2.551525118E1
1.614695883E1,5.506798797E-1,-1.228744656E1,-2.989485832E1,3.232626093E1
1.615692583E1,7.751772489E0,-1.064214533E1,-3.174124063E1,3.436352122E1
1.616689183E1,5.466415733E0,-1.034596748E1,-2.884208118E1,3.112533358E1
1.617685883E1,3.340600549E0,-7.028825085E0,-1.466948644E1,1.660595756E1
1.618682583E1,1.676590270E0,-4.225833623E0,-1.062689111E1,1.155852237E1
1.619679283E1,2.280844460E0,-3.204779962E0,-7.426606488E0,8.404007971E0
1.620675983E1,3.892249385E0,-2.439566544E0,-5.276859527E0,6.996165854E0
1.621672683E1,4.233445821E0,-1.947098254E0,-3.736577793E0,5.972877760E0
1.622669383E1,3.808960476E0,-1.836362514E0,-2.225710478E0,4.778513820E0
1.623666083E1,3.472741483E0,-1.452367676E0,-1.283814376E0,3.977120142E0
1.624662783E1,3.270442439E0,-7.298196369E-1,-7.239273977E-1,3.428192137E0
1.625659483E1,3.154421986E0,5.448903322E-2,-2.197094205E-1,3.162533692E0
1.626656083E1,2.975362409E0,8.574696171E-1,1.961495268E-1,3.102661800E0
1.627652783E1,2.719461355E0,1.853912932E0,2.405331096E-1,3.300048393E0
1.628649483E1,2.684811632E0,2.921160766E0,2.544057749E-1,3.975690635E0
1.629646183E1,2.895986164E0,3.927078325E0,1.524127923E-1,4.881793696E0
1.630642883E1,3.238447060E0,4.600226748E0,1.040241592E-1,5.626761637E0
1.631639583E1,4.218450636E0,5.245525467E0,2.371244752E-1,6.735509722E0
1.632636283E1,5.312119406E0,5.847871710E0,5.243112029E-1,7.917772311E0
1.633632983E1,6.428914207E0,6.133443875E0,1.166324153E0,8.961606088E0
1.634629683E1,7.086701410E0,5.962184776E0,2.289422910E0,9.539939278E0
1.635626383E1,6.581393219E0,5.246183279E0,3.627476935E0,9.164920328E0
1.636622983E1,6.289052902E0,4.760684870E0,3.589432027E0,8.666044606E0
1.637619683E1,6.494942136E0,4.483468961E0,3.801989425E0,8.760187833E0
1.638616383E1,6.202067968E0,3.713606422E0,4.814411427E0,8.685336903E0
1.639613083E1,5.758690562E0,2.678223574E0,5.702617518E0,8.535528399E0
1.640609783E1,5.239540842E0,1.533571469E0,6.336303667E0,8.363813355E0
1.641606483E1,4.629731213E0,5.313920349E-1,6.718460140E0,8.176459824E0
1.642603183E1,3.876199363E0,-1.906741941E-1,6.651668565E0,7.701037128E0
1.643599883E1,2.977579089E0,-4.733666056E-1,6.031795878E0,6.743338542E0
1.644596583E1,2.141405031E0,-1.575298369E-1,5.074653454E0,5.510221305E0
1.645593283E1,1.545216052E0,5.173733354E-1,3.998985629E0,4.318246621E0
1.646589983E1,1.064871964E0,1.133595605E0,3.058043500E0,3.430833914E0
1.647586583E1,7.062044871E-1,1.474092422E0,2.316116034E0,2.834795712E0
1.648583283E1,6.676190034E-1,1.358136873E0,1.722333623E0,2.292745954E0
1.649579983E1,6.390373747E-1,9.029632938E-1,1.325315282E0,1.726317489E0
1.650576683E1,4.902979495E-1,2.973870492E-1,1.111526459E0,1.250728670E0
1.651573383E1,3.605420946E-1,-2.977986932E-1,1.002875252E0,1.106541204E0
1.652570083E1,3.836260249E-1,-6.436439574E-1,9.855622315E-1,1.238054677E0
1.653566783E1,4.778981978E-1,-5.192619860E-1,9.220830312E-1,1.161144614E0
