"Time (s)","Linear Acceleration x (m/s^2)","Linear Acceleration y (m/s^2)","Linear Acceleration z (m/s^2)","Absolute acceleration (m/s^2)"
1.911750005E-3,-3.978417025E-1,1.346786258E-1,-5.018302667E-1,6.544081059E-1
1.187775005E-2,-2.481293919E-1,2.931913065E-1,-4.812480676E-1,6.157345531E-1
2.184475004E-2,-1.141910054E-1,3.404877529E-1,-2.588363564E-1,4.426824539E-1
3.181175003E-2,4.182688773E-2,3.771993501E-1,-5.271089494E-2,3.831543772E-1
4.177875002E-2,2.470995693E-1,2.962920850E-1,1.483771902E-1,4.133557637E-1
5.174475000E-2,4.369438608E-1,4.980914108E-2,2.418361616E-1,5.018820749E-1
6.171175005E-2,4.472147509E-1,-1.449987421E-1,3.390431982E-1,5.796343321E-1
7.167875004E-2,3.714731719E-1,-1.683868373E-1,4.111498922E-1,5.791292414E-1
8.164575003E-2,3.366055306E-1,-1.328611650E-1,2.400855052E-1,4.342768958E-1
9.161175002E-2,1.890233058E-1,-8.577130806E-2,1.666222572E-2,2.082406233E-1
1.015787500E-1,3.387803659E-3,-1.223280272E-1,-2.121480936E-1,2.449131215E-1
1.115457500E-1,-1.867276524E-1,-1.446894244E-1,-3.832387930E-1,4.501935342E-1
1.215127500E-1,-2.407094397E-1,-9.019827157E-2,-4.408151561E-1,5.102889029E-1
1.314787500E-1,-1.228610009E-1,-1.150557355E-1,-3.329609245E-1,3.730892991E-1
1.414457500E-1,4.500857703E-2,-1.983356180E-1,-8.248257816E-2,2.194679136E-1
1.514127500E-1,2.440461899E-1,-1.797089471E-1,2.643760085E-1,4.021797140E-1
1.613797500E-1,4.740136731E-1,-5.570240356E-2,6.563236445E-1,8.115124438E-1
1.713457500E-1,5.232688636E-1,1.269138157E-3,7.781603229E-1,9.377341854E-1
1.813127500E-1,3.294594656E-1,-1.766809300E-2,6.357051927E-1,7.162239824E-1
1.912797500E-1,1.410857854E-1,-5.767949335E-2,5.770161045E-1,5.968079319E-1
2.012467500E-1,2.925405845E-2,-1.844844778E-1,5.410691768E-1,5.724038579E-1
2.112127500E-1,-8.882110611E-2,-3.348878379E-1,3.082611161E-1,4.637498987E-1
2.211797500E-1,-3.211351501E-1,-3.206372963E-1,3.266254663E-2,4.549757162E-1
2.311467500E-1,-4.496569502E-1,-2.056975915E-1,-1.266881132E-1,5.104436795E-1
2.411137500E-1,-4.482229936E-1,-1.162600061E-1,-2.241424870E-1,5.144512567E-1
2.510797500E-1,-2.825152409E-1,-9.534897421E-2,-1.919284219E-1,3.546023228E-1
2.610467500E-1,-1.030857541E-1,-7.841938455E-2,-1.451197064E-1,1.945147855E-1
2.710137500E-1,7.144274265E-3,-3.167977586E-2,-1.163818109E-1,1.208278725E-1
2.809807500E-1,1.334051022E-1,6.544086814E-2,-2.145986617E-2,1.501331222E-1
2.909467500E-1,1.850399633E-1,1.029097530E-1,1.560323650E-1,2.630138859E-1
3.009137500E-1,2.230068116E-1,1.214533203E-1,2.627627617E-1,3.654137600E-1
3.108807500E-1,2.722425601E-1,9.999016508E-2,4.027217156E-1,4.962850238E-1
3.208477500E-1,1.929483224E-1,-2.855674144E-2,4.542666757E-1,4.943710704E-1
3.308137500E-1,1.070750901E-1,-6.119443741E-2,3.442752868E-1,3.656983828E-1
3.407807500E-1,6.637583792E-2,-3.971564088E-2,3.544067574E-1,3.627495467E-1
3.507477500E-1,2.910246938E-2,-3.109531011E-2,2.988085073E-1,3.018284216E-1
3.607147500E-1,-5.416860580E-2,5.554525964E-3,2.087900376E-1,2.157738873E-1
3.706807500E-1,-8.098612949E-2,8.533072036E-2,1.916261208E-1,2.248569661E-1
3.806477500E-1,-3.313982561E-2,1.712177667E-1,8.719543397E-2,1.949790127E-1
3.906147500E-1,1.911893338E-3,1.998082758E-1,-1.271751863E-1,2.368555054E-1
4.005817500E-1,4.137592122E-2,1.743729243E-1,-2.221725601E-1,2.854444430E-1
4.105477500E-1,1.106091473E-1,1.704274973E-1,-2.267649633E-1,3.044704647E-1
4.205147500E-1,5.921913832E-2,9.489725852E-2,-3.274505085E-1,3.460292351E-1
4.304817501E-1,-4.208138779E-2,2.833761703E-2,-3.054521137E-1,3.096366540E-1
4.404487500E-1,4.385981843E-2,-3.120730257E-2,-2.464636481E-1,2.522734810E-1
4.504147500E-1,1.923831891E-1,-9.378341876E-2,-4.947387636E-2,2.196685811E-1
4.603817500E-1,2.712087724E-1,-1.509104781E-1,3.138609946E-2,3.119507299E-1
4.703487500E-1,2.432506031E-1,-1.935489959E-1,9.369110584E-2,3.246692056E-1
4.803157500E-1,1.199532902E-1,-1.903967803E-1,2.141554427E-1,3.106481602E-1
4.902817500E-1,7.282049283E-2,-1.721674277E-1,1.647382843E-1,2.491649045E-1
5.002487500E-1,1.250921157E-1,-1.736950493E-1,1.433380598E-1,2.576117368E-1
5.102157500E-1,1.547510938E-1,-2.133325385E-1,5.930187643E-2,2.701395668E-1
5.201817500E-1,1.633324675E-1,-2.680095597E-1,6.991749644E-2,3.215510462E-1
5.301487500E-1,1.437859565E-1,-3.535543795E-1,4.767644227E-2,3.846402783E-1
5.401157500E-1,-1.842004493E-2,-4.038914876E-1,-5.932935834E-2,4.086411685E-1
5.500827500E-1,-1.235304706E-1,-3.421177739E-1,-7.637399197E-2,3.716683131E-1
5.600497500E-1,-8.887826264E-2,-2.219777930E-1,1.716742516E-2,2.397252733E-1
5.700157500E-1,8.940977454E-3,-1.865154168E-1,2.053308249E-1,2.775404284E-1
5.799827500E-1,8.460482508E-2,-1.911773470E-1,4.017908388E-1,4.529267409E-1
5.899497501E-1,7.536417782E-2,-2.457750471E-1,4.641923243E-1,5.306219436E-1
5.999157500E-1,4.191722721E-2,-4.879316178E-1,1.980563039E-1,5.282618831E-1
6.098827500E-1,-1.655776522E-1,-8.989374127E-1,3.421966016E-2,9.146996316E-1
6.198497500E-1,-4.774608260E-1,-1.286189808E0,-1.179699147E-1,1.377014874E0
6.298167500E-1,-7.690769657E-1,-1.470739043E0,-1.203585023E-1,1.664042933E0
6.397827500E-1,-1.084204467E0,-1.528642412E0,-1.013439417E-2,1.874126372E0
6.497497500E-1,-1.447771473E0,-1.515797687E0,-3.104970914E-1,2.118984028E0
6.597167500E-1,-1.304269983E0,-5.358931850E-1,2.039099514E-2,1.410218950E0
6.696837500E-1,-6.583900505E-1,4.354728110E-1,-1.757556081E-2,7.895713572E-1
6.796497500E-1,1.553242671E-1,1.257077106E0,-1.672882551E-1,1.277636035E0
6.896167501E-1,9.176012135E-1,1.904200156E0,-4.325080168E-1,2.157552643E0
6.995837500E-1,1.203506085E0,1.845943470E0,-4.395299381E-1,2.247024868E0
7.095507500E-1,1.069337629E0,1.079253776E0,-7.274047369E-1,1.684455202E0
7.195167500E-1,5.311607775E-1,4.096420049E-1,-1.037505387E0,1.235457718E0
7.294837500E-1,-1.763596255E-1,1.564116300E-1,-9.823842698E-1,1.010270345E0
7.394507500E-1,-4.980383474E-1,1.797121266E-1,-7.254470891E-1,8.981158739E-1
7.494177500E-1,-7.001877022E-1,1.159713364E-1,-3.995028234E-1,8.144413269E-1
7.593837500E-1,-5.469555688E-1,-5.076982034E-3,-4.866520643E-2,5.491397566E-1
7.693507500E-1,5.190222502E-2,1.834653812E-1,2.655659169E-1,3.269229929E-1
7.793177500E-1,2.999338040E-1,3.166914124E-1,6.321015537E-1,7.679883538E-1
7.892847500E-1,4.890555623E-1,3.543694814E-1,9.077656120E-1,1.090317146E0
7.992507500E-1,3.999010187E-1,2.396396185E-1,6.322132355E-1,7.855199213E-1
8.092177500E-1,1.469551474E-2,-1.010256704E-1,3.872722024E-1,4.005020636E-1
8.191847500E-1,-5.057593033E-1,-4.023879126E-1,4.578387398E-1,7.920383935E-1
8.291517500E-1,-9.425998145E-1,-5.976192074E-1,3.138335127E-1,1.159368190E0
8.391177500E-1,-1.171128590E0,-6.059833570E-1,2.886735284E-1,1.349848292E0
8.490847501E-1,-1.158134615E0,-3.708047255E-1,1.948736644E-1,1.231563103E0
8.590517500E-1,-1.062850436E0,-1.591731969E-1,-1.765058059E-1,1.089101214E0
8.690187500E-1,-5.321992430E-1,-1.347392815E-1,-3.414089817E-1,6.464911453E-1
8.789847500E-1,-1.006840834E-1,-1.366494207E-1,-6.827442884E-2,1.829528531E-1
8.889517500E-1,-3.137414190E-1,-7.885074461E-2,1.532654625E-1,3.579684622E-1
8.989187500E-1,-5.215315828E-1,-1.808653254E-1,3.954074335E-1,6.790099382E-1
9.088857500E-1,-5.897200575E-1,-4.809530025E-1,6.721011865E-1,1.015285941E0
9.188517500E-1,-6.201296720E-1,-6.789626748E-1,6.009160137E-1,1.098476754E0
9.288186250E-1,-7.177077144E-1,-6.447055194E-1,4.728052729E-1,1.074380936E0
9.387856250E-1,-7.232076055E-1,-4.589519765E-1,5.975930411E-1,1.044405860E0
9.487526250E-1,-4.478300607E-1,-2.490429280E-1,9.958299422E-1,1.119933666E0
9.587186250E-1,-3.420094907E-1,-8.206121318E-2,1.249655820E0,1.298208073E0
9.686856250E-1,-3.433675066E-1,-4.626563704E-2,1.266688174E0,1.313217683E0
9.786526250E-1,-2.577253854E-1,-1.896463084E-2,1.182753147E0,1.210655624E0
9.886196250E-1,-3.275806090E-1,5.114102717E-3,7.365193766E-1,8.060992505E-1
9.985856250E-1,-5.468263453E-1,-2.579881538E-2,1.229669452E-1,5.610753073E-1
1.008552625E0,-5.962291780E-1,-1.391851754E-1,-1.981486899E-1,6.435251736E-1
1.018519625E0,-5.920033953E-1,-2.985575521E-1,-3.286228752E-1,7.399983960E-1
1.028486625E0,-7.036872607E-1,-4.771303122E-1,-1.983843327E-1,8.730323242E-1
1.038452625E0,-8.209002534E-1,-6.617285183E-1,1.294602782E-1,1.062319077E0
1.048419625E0,-7.718143398E-1,-8.287044590E-1,4.164667654E-1,1.206603921E0
1.058386625E0,-7.641398692E-1,-9.488476375E-1,7.631686467E-1,1.437584071E0
1.068353625E0,-8.743370801E-1,-1.004487476E0,1.118279994E0,1.738968247E0
1.078319625E0,-8.674227476E-1,-1.112138078E0,1.227689000E0,1.869891336E0
1.088286625E0,-8.907899755E-1,-1.285461537E0,1.202774014E0,1.972963120E0
1.098253625E0,-8.978788474E-1,-1.509072658E0,1.103342112E0,2.073849206E0
1.108220625E0,-5.197171918E-1,-1.680233817E0,9.487931854E-1,1.998374376E0
1.118186625E0,-3.981453922E-1,-1.601576048E0,4.873133844E-1,1.720767249E0
1.128153625E0,-5.434937248E-1,-1.405465406E0,-1.503020936E-1,1.514367576E0
1.138120625E0,-6.415228799E-1,-1.357765574E0,-6.330634207E-1,1.629677347E0
1.148087625E0,-8.415283531E-1,-1.442488367E0,-6.183418858E-1,1.780811429E0
1.158053625E0,-1.115881173E0,-1.645239839E0,-3.055012304E-1,2.011302047E0
1.168020625E0,-1.237740948E0,-2.037285854E0,-1.634173983E-1,2.389401924E0
1.177987625E0,-1.360909622E0,-2.395489355E0,-1.998858976E-1,2.762317618E0
1.187953625E0,-1.727773873E0,-2.595448343E0,-4.653196675E-1,3.152471578E0
1.197920625E0,-1.809168869E0,-2.592806278E0,-3.263787138E-1,3.178405175E0
1.207887625E0,-1.207116741E0,-2.431283963E0,-2.269801408E-1,2.723929610E0
1.217854625E0,-7.623289865E-1,-2.111135750E0,-2.431494462E-1,2.257689370E0
1.227820625E0,4.075135088E-1,-2.039467158E0,-5.162880921E-1,2.142906191E0
1.237787625E0,1.780005881E0,-1.740700312E0,-9.094806004E-1,2.650587383E0
1.247754625E0,1.823029693E0,-6.208202282E-1,-9.048232931E-1,2.127806432E0
1.257721625E0,1.602867991E0,3.977708781E-1,-1.096715462E0,1.982471254E0
1.267687625E0,1.666132525E0,1.291828716E0,-1.007403921E0,2.336596175E0
1.277654625E0,1.040809064E0,2.268634450E0,2.572073221E-2,2.496126465E0
1.287621625E0,6.421260202E-1,2.585344647E0,6.223209161E-1,2.735619873E0
1.297588625E0,1.064418951E0,2.178593322E0,7.229754710E-1,2.530207521E0
1.307554625E0,1.454128273E0,1.824448813E0,1.375242902E0,2.708208918E0
1.317521625E0,1.743255545E0,1.716025939E0,1.926778595E0,3.113865873E0
1.327488625E0,1.607452793E0,1.758057626E0,1.991984990E0,3.105265737E0
1.337455625E0,1.392133169E0,1.909237386E0,1.918336970E0,3.043556947E0
1.347421625E0,1.207897344E0,1.888570257E0,1.351840006E0,2.617858860E0
1.357388625E0,9.756710815E-1,1.774416966E0,5.647439682E-1,2.102242940E0
1.367355625E0,5.141257918E-1,1.673418594E0,-6.759562558E-1,1.876585192E0
1.377322625E0,7.694935799E-4,1.502908231E0,-1.653039440E0,2.234115739E0
1.387288625E0,-3.273563683E-1,1.292247085E0,-1.769704256E0,2.215607789E0
1.397255625E0,-7.510672492E-1,1.023155150E0,-1.817302930E0,2.216650269E0
1.407222625E0,-1.208147020E0,7.235346110E-1,-1.947065510E0,2.402953527E0
1.417189625E0,-1.609143807E0,5.417496465E-1,-2.038425915E0,2.652926061E0
1.427155625E0,-2.111463486E0,3.653009972E-1,-2.313495896E0,3.153408653E0
1.437122625E0,-2.550864201E0,2.303972536E-1,-2.391907058E0,3.504455798E0
1.447089625E0,-2.705411373E0,-1.111155161E-1,-2.594154062E0,3.749831016E0
1.457056625E0,-2.292668699E0,-1.040278137E-2,-2.167466363E0,3.155051254E0
1.467022625E0,-1.331321542E0,4.662245241E-1,-2.112890791E0,2.540490081E0
1.476989625E0,-5.127423406E-1,8.845679533E-1,-2.139530706E0,2.371277464E0
1.486956625E0,5.065226573E-1,1.193198614E0,-2.121096189E0,2.485827262E0
1.496923625E0,1.459269145E0,1.443493942E0,-2.109826266E0,2.943553646E0
1.506889625E0,2.055152460E0,1.452488714E0,-1.760595756E0,3.071330740E0
1.516856625E0,1.962801536E0,1.077922511E0,-2.079109672E0,3.055683858E0
1.526823625E0,1.378317368E0,3.854136649E-1,-2.386883423E0,2.783076523E0
1.536789625E0,5.313686460E-1,-4.025243720E-1,-1.553404639E0,1.690397729E0
1.546756625E0,-4.979950780E-1,-9.853932470E-1,-1.187204048E0,1.621250258E0
1.556723625E0,-1.850571249E0,-6.599079877E-1,-2.553522930E0,3.221889484E0
1.566690625E0,-3.208461953E0,1.309776306E-4,-4.025202790E0,5.147473713E0
1.576656625E0,-6.061457634E-1,-1.168107042E-1,-7.674283433E-1,9.848876531E-1
1.586623625E0,1.425294483E0,1.796486843E-1,1.681682318E0,2.211739911E0
1.596590625E0,2.644243065E0,-4.138045281E-2,2.955289795E0,3.965787627E0
1.606557625E0,2.596131590E0,-5.346986353E-2,3.157504931E0,4.088104163E0
1.616523625E0,1.440005493E0,-4.893493849E-1,3.419119007E0,3.742118842E0
1.626490625E0,6.306286401E-1,-1.284710170E0,2.848375795E0,3.187697817E0
1.636457625E0,-4.342645204E-1,-1.363936141E0,1.564433073E0,2.120461815E0
1.646424625E0,-1.331678807E0,-1.217340890E0,1.357078819E-1,1.809337977E0
1.656390625E0,-1.561315337E0,-9.014213830E-1,-5.106369044E-1,1.873770568E0
1.666357625E0,-1.577691634E0,-2.522801659E-1,-9.534965394E-1,1.860621355E0
1.676324625E0,-9.127696592E-1,2.636164552E-1,-8.485906202E-1,1.273871315E0
1.686291625E0,-1.701411116E-1,5.170061302E-1,-9.685644487E-1,1.111017744E0
1.696257625E0,-2.558683097E-2,9.456041139E-1,-1.615214533E0,1.871827934E0
1.706224625E0,-1.431690753E-2,9.636035979E-1,-1.892168925E0,2.123450049E0
1.716191625E0,4.022995466E-1,1.147131617E0,-1.456768291E0,1.897348077E0
1.726158625E0,1.316574279E0,1.594784507E0,-9.608425426E-1,2.280334153E0
1.736124625E0,1.520194793E0,1.154304982E0,-1.789730385E0,2.616590730E0
1.746091625E0,5.458387506E-1,7.561078414E-1,-2.234015279E0,2.420839374E0
1.756058625E0,-9.652951974E-1,2.885092217E-1,-2.024581463E0,2.261407192E0
1.766025625E0,-3.269613304E0,-3.419922414E-1,-2.471853699E0,4.113075560E0
1.775991625E0,8.456483012E-1,-9.723869929E-1,-1.163289521E0,1.736058761E0
1.785958625E0,3.519758944E0,-1.170431310E-1,8.436900687E-1,3.621355416E0
1.795925625E0,2.141969579E0,3.961088070E-1,1.108960701E0,2.444326022E0
1.805892625E0,7.051853174E-1,-1.357986599E-2,4.517496686E-2,7.067612909E-1
1.815858625E0,-1.698774022E-1,1.541071692E-1,-3.578852659E-1,4.250755403E-1
1.825825625E0,-6.642711800E-1,4.308865839E-1,1.010568434E-1,7.982054463E-1
1.835792625E0,-8.051674426E-1,2.995323926E-1,4.622826236E-1,9.755611149E-1
1.845759625E0,-1.669064904E0,9.830368191E-2,7.633797312E-1,1.837985278E0
1.855725625E0,-1.989473611E0,-2.640023714E-1,1.382998649E0,2.437291070E0
1.865692625E0,-1.688343174E0,-4.338420591E-1,2.420656064E0,2.983001405E0
1.875659625E0,-8.430784500E-1,1.356597885E-2,2.519500905E0,2.656849661E0
1.885625625E0,-2.035509324E-1,7.350782572E-1,1.725406920E0,1.886478748E0
1.895592625E0,-5.514070541E-1,8.892511345E-1,9.551766638E-1,1.416749723E0
1.905559625E0,3.630009949E-2,7.927964153E-1,1.051379514E0,1.317286125E0
1.915526625E0,8.445724136E-1,3.275504593E-1,1.373597349E0,1.645406194E0
1.925492125E0,6.303602529E-1,-4.932835012E-1,1.886288234E0,2.049089057E0
1.935459125E0,1.076609226E0,-1.100761005E0,1.626579620E0,2.239759691E0
1.945426125E0,1.280372998E0,-1.163640061E0,8.497770202E-1,1.927572097E0
1.955393125E0,-3.764133382E-1,-1.601471383E0,-1.032150507E-1,1.648347942E0
1.965359125E0,-1.365212004E0,-2.907459571E0,-1.068542262E0,3.385100816E0
1.975326125E0,-1.580093086E0,-3.679789927E0,-1.212920687E0,4.184342799E0
1.985293125E0,-1.674916797E0,-2.503842646E0,-1.345600004E0,3.299274715E0
1.995260125E0,-1.690161073E0,-1.170188943E0,-2.764633727E0,3.445168539E0
2.005226125E0,-1.766227502E0,-1.482358484E0,-4.236331129E0,4.823219640E0
2.015193125E0,-1.259912421E0,-2.002063251E0,-3.480815611E0,4.208528707E0
2.025160125E0,-2.801149589E-1,-1.779559153E0,-1.399343809E0,2.281108999E0
2.035127125E0,8.641746193E-1,-1.181155834E0,4.838395536E-1,1.541436859E0
2.045093125E0,1.452930763E0,-4.022179779E-1,2.233866467E0,2.694985436E0
2.055060125E0,2.216366628E0,1.666397989E-1,3.150938215E0,3.855964404E0
2.065027125E0,2.128753703E0,6.998661053E-1,3.369795112E0,4.046841236E0
2.074994125E0,1.081508024E0,5.580804813E-1,2.835394977E0,3.085543405E0
2.084960125E0,-4.996223581E-1,8.668614149E-2,2.891762720E0,2.935886343E0
2.094927125E0,-1.279624554E0,-2.470916390E-2,2.376748152E0,2.699440927E0
2.104894125E0,-1.637558352E0,1.145636192E-1,1.238349059E0,2.056266172E0
2.114861125E0,-1.684931908E0,2.977428523E-1,1.968362823E-1,1.722321359E0
2.124827125E0,-1.823064192E0,8.564124405E-1,-2.520221575E0,3.226224124E0
2.134794125E0,-1.745762247E0,1.068496215E0,-4.556224404E0,4.994852430E0
2.144761125E0,-9.368923473E-1,9.227099258E-1,-3.415514199E0,3.659904113E0
2.154728125E0,2.282560033E-1,8.010545111E-1,-1.030337285E0,1.324909074E0
2.164694125E0,2.030207654E0,5.433875978E-1,-2.616193387E-1,2.117889959E0
2.174661125E0,2.406159062E0,1.393549365E-1,1.559922823E0,2.870954622E0
2.184628125E0,2.204166997E0,-4.814100355E-1,2.350333355E0,3.257940247E0
2.194594125E0,2.178701203E0,-1.041964766E0,2.240740746E0,3.294442077E0
2.204561125E0,2.301580440E0,-1.484158403E0,1.870130477E0,3.316230796E0
2.214528125E0,2.301379881E0,-1.647483123E0,9.602885190E-1,2.988762961E0
2.224495125E0,2.281295280E0,-1.667494049E0,-3.856557396E-1,2.851942304E0
2.234461125E0,2.435832512E0,-1.555052677E0,-2.422595000E0,3.770999256E0
2.244428125E0,2.763163737E0,-1.533233792E0,-2.674814355E0,4.140110087E0
2.254395125E0,3.019521459E0,-1.425440079E0,-1.792704425E0,3.789878417E0
2.264362125E0,3.254166130E0,-1.060846010E0,-4.195883015E-1,3.448339572E0
2.274328125E0,3.471953863E0,-6.248439896E-1,6.097689906E-1,3.580043556E0
2.284295125E0,3.019990405E0,-6.014852402E-1,5.503576250E-1,3.128101670E0
2.294262125E0,2.423273277E0,-9.984439400E-1,9.868784398E-3,2.620923706E0
2.304229125E0,9.816282248E-1,-1.146122388E0,1.441688029E-1,1.515907366E0
2.314195125E0,-7.519396538E-1,-1.193769886E0,8.673423484E-2,1.413514277E0
2.324162125E0,-1.423812799E0,-1.414006141E0,-3.568776445E-1,2.038140797E0
2.334129125E0,-1.255125890E0,-1.018028019E0,4.189167488E-1,1.669494921E0
2.344096125E0,-5.784323001E-1,5.380549371E-2,-1.114562626E-1,5.915246871E-1
2.354062125E0,-5.358540452E-1,1.470747814E0,-2.047980266E0,2.577685368E0
2.364029125E0,-9.506397361E-1,2.381898087E0,-2.819268941E0,3.811224444E0
2.373996125E0,-7.401218462E-1,2.189176198E0,-3.239803029E0,3.979522137E0
2.383963125E0,-2.136303627E-1,1.470325645E0,-3.792439753E0,4.073093998E0
2.393929125E0,1.063169986E-1,9.076659170E-1,-2.590025343E0,2.746523620E0
2.403896125E0,3.506440741E-1,6.415258035E-1,-1.330772342E0,1.518374674E0
2.413863125E0,1.137224972E-1,9.280975503E-1,-5.606298673E-1,1.090231039E0
2.423830125E0,4.123281062E-2,1.575613826E0,2.338475494E-1,1.593406336E0
2.433796125E0,2.665254450E-1,1.993179576E0,1.316363925E0,2.403458886E0
2.443763125E0,4.516518009E-1,2.369698749E0,1.500340280E0,2.840859459E0
2.453730125E0,6.875752580E-1,2.502736353E0,1.514464814E0,3.005004603E0
2.463696125E0,6.471528715E-1,1.876851559E0,1.692887338E0,2.609069978E0
2.473663125E0,-9.260820150E-2,8.400343895E-1,1.793510610E0,1.982653364E0
2.483630125E0,-7.605789149E-1,-4.199821115E-1,1.942040705E0,2.127530813E0
2.493597125E0,-1.433808029E0,-1.950696630E0,1.960809098E0,3.115412513E0
2.503563125E0,-1.951274920E0,-2.345385441E0,1.695339806E0,3.490341493E0
2.513530125E0,-1.709273867E0,-1.264438165E0,1.562903734E0,2.638766588E0
2.523497125E0,-1.317586432E0,-8.678145111E-2,1.583106741E0,2.061502360E0
2.533464125E0,-4.967045975E-1,1.361590823E0,1.515284594E0,2.096838675E0
2.543430125E0,2.673914176E-1,1.893519632E0,1.273862708E0,2.297746932E0
2.553397125E0,4.908983123E-1,1.644815916E0,7.474375901E-1,1.872181482E0
2.563364125E0,5.763097608E-1,1.249644710E0,3.114924337E-1,1.410947333E0
2.573331125E0,3.198894739E-2,4.518359882E-1,3.341248128E-1,5.628662749E-1
2.583297125E0,-8.103545076E-1,-5.167751652E-1,6.871527967E-1,1.181486337E0
2.593264125E0,-1.546373363E0,-1.288190140E0,9.431558847E-1,2.222666740E0
2.603231125E0,-1.175957513E0,-1.250973197E0,1.103002388E0,2.040692109E0
2.613198125E0,4.521476448E-2,-6.943410712E-1,1.388317276E0,1.552925870E0
2.623164125E0,9.839226723E-1,-1.812028742E-1,1.322311275E0,1.658145173E0
2.633131125E0,1.280640800E0,2.806979263E-1,9.365944317E-1,1.611223546E0
2.643098125E0,8.909917045E-1,3.661432886E-1,8.302566755E-1,1.271712732E0
2.653065125E0,3.359459281E-1,3.382082158E-1,7.407568538E-1,8.808888581E-1
2.663031125E0,1.988585418E-1,4.805341226E-1,7.569396079E-1,9.183764656E-1
2.672998125E0,-2.219509506E-1,4.766772991E-1,9.609812678E-1,1.095430723E0
2.682965125E0,-1.477625894E0,1.542840475E-1,1.519863256E0,2.125362597E0
2.692932125E0,-3.039468650E0,-1.311881304E-1,1.855523694E0,3.563502235E0
2.702898125E0,-3.817796203E0,1.000663251E-1,1.963129711E0,4.294119163E0
2.712865125E0,-3.504249789E0,3.836475134E-1,2.007680086E0,4.056812952E0
2.722832125E0,-3.205559396E0,1.156941783E-1,1.368720918E0,3.487462277E0
2.732798125E0,-3.180925076E0,-1.157333547E-1,-1.144206548E-1,3.185085656E0
2.742765125E0,-2.924319432E0,1.555710196E-1,-2.145674375E0,3.630394608E0
2.752732125E0,-9.444592291E-1,6.940802854E-1,-3.382180392E0,3.579510424E0
2.762699125E0,2.253256711E0,1.040394496E0,-4.439824759E0,5.086416263E0
2.772665125E0,4.150433777E0,1.056814063E0,-3.547767692E0,5.561439750E0
2.782632125E0,4.281593841E0,9.051980996E-1,-9.724222954E-1,4.482971619E0
2.792599125E0,4.001122786E0,4.857627028E-1,2.568916090E-1,4.038680757E0
2.802566125E0,3.298291558E0,-3.062742323E-1,1.115542327E0,3.495277641E0
2.812532125E0,2.214304900E0,-1.184344760E0,1.249689149E0,2.804913843E0
2.822499125E0,5.553305358E-1,-1.610419670E0,1.056022350E0,2.004252160E0
2.832466125E0,-1.071771240E0,-1.724127549E0,4.674135919E-1,2.083215030E0
2.842433125E0,-1.881590728E0,-2.046217915E0,-8.632595301E-1,2.910774542E0
2.852399125E0,-1.820822369E0,-1.973838741E0,-2.009486876E0,3.354023103E0
2.862366125E0,-1.338156352E0,-1.247729747E0,-2.716270237E0,3.274998617E0
2.872333125E0,-7.574874920E-1,-7.070055556E-1,-2.599306043E0,2.798220160E0
2.882300125E0,-3.652358007E-1,-1.086365891E-1,-1.555221369E0,1.601222223E0
2.892266125E0,-4.551554525E-1,5.607164061E-1,-2.636123621E-1,7.688048201E-1
2.902233125E0,-1.065148099E0,9.956100869E-1,9.206203502E-2,1.460909079E0
2.912200125E0,-1.247932060E0,8.742733455E-1,-9.887294490E-2,1.526913281E0
2.922167125E0,-5.542698509E-1,1.076735526E-1,3.665373909E-1,6.731703503E-1
2.932133375E0,-5.605491757E-2,-3.116431457E-1,9.501573408E-1,1.001530117E0
2.942100375E0,2.014155293E-1,-3.349635959E-1,8.314284575E-1,9.187176421E-1
2.952067375E0,3.123728782E-1,-1.885645187E-1,1.079524648E-1,3.805090372E-1
2.962034375E0,2.790782475E-1,3.450669998E-1,-7.425367463E-1,8.650530170E-1
2.972000375E0,-1.438075912E-1,1.369410304E0,-1.399790683E0,1.963511946E0
2.981967375E0,-1.086973416E0,1.735428463E0,-8.650645655E-1,2.222961956E0
2.991934375E0,-1.276635457E0,1.033281358E0,3.504236341E-2,1.642770959E0
3.001901375E0,-1.328982655E0,6.855211312E-1,3.239322388E-1,1.530054318E0
3.011867375E0,-1.304319100E0,7.455071318E-1,5.449768710E-1,1.598132969E0
3.021834375E0,-1.048834367E0,1.284451430E0,-3.704328060E-2,1.658686592E0
3.031801375E0,-4.847885567E-1,1.034027463E0,-8.104591727E-1,1.400384522E0
3.041767375E0,8.982323116E-1,-4.543853742E-1,-3.202244024E0,3.356732659E0
3.051734375E0,9.716838652E-1,-1.996856890E0,-3.614107862E0,4.241860748E0
3.061701375E0,9.798728907E-1,-2.550191771E0,-1.437906343E0,3.087264744E0
3.071668375E0,9.490896392E-1,-1.981036078E0,1.159576685E0,2.483926967E0
3.081634375E0,1.912115532E0,-9.494340402E-1,2.721881225E0,3.459226533E0
3.091601375E0,2.637022339E0,-5.834240681E-1,2.492017822E0,3.674836498E0
3.101568375E0,2.034976643E0,-4.931933445E-1,1.063585138E0,2.348527828E0
3.111535375E0,1.515571400E0,-9.527651989E-1,3.823131788E-1,1.830541330E0
3.121501375E0,1.285144325E0,-1.182989960E0,-1.587365560E-1,1.753926588E0
3.131468375E0,9.069057789E-1,-1.068902012E0,-3.262186463E-1,1.439252656E0
3.141435375E0,4.243224996E-1,-1.144648013E0,9.628376126E-2,1.224556744E0
3.151402375E0,4.040151197E-1,-1.439693252E0,5.338800251E-1,1.587757147E0
3.161368375E0,8.023955700E-1,-1.522658225E0,1.058597463E0,2.020632404E0
3.171335375E0,1.580379307E0,-1.357473214E0,1.254032607E0,2.431651714E0
3.181302375E0,2.084987001E0,-1.440714760E0,1.500790954E0,2.945369808E0
3.191269375E0,1.884585087E0,-1.499150079E0,2.218617221E0,3.274350971E0
3.201235375E0,1.397250945E0,-8.305806112E-1,2.948113507E0,3.366533470E0
3.211202375E0,1.709562135E0,1.379165214E-1,2.663631263E0,3.168052267E0
3.221169375E0,2.569098743E0,5.710560375E-1,2.166277478E0,3.408684711E0
3.231136375E0,3.158999187E0,7.016424894E-1,1.656831944E0,3.635473853E0
3.241102375E0,3.011988491E0,1.034936705E0,7.040560008E-1,3.261727074E0
3.251069375E0,2.086768940E0,1.568117988E0,-5.523373461E-1,2.668084552E0
3.261036375E0,5.780493075E-1,1.541541808E0,-2.003115749E0,2.592868075E0
3.271003375E0,-1.139160985E0,1.557342154E0,-2.639119735E0,3.269243844E0
3.280969375E0,-2.401016436E0,1.634812499E0,-2.473104419E0,3.814936080E0
3.290936375E0,-3.264779411E0,1.515570230E0,-1.516366621E0,3.905778470E0
3.300903375E0,-3.624200156E0,1.175608435E0,-4.723603364E-1,3.839271578E0
3.310869375E0,-3.236213424E0,1.024711094E0,2.346862411E-1,3.402673623E0
3.320836375E0,-2.388722080E0,6.681373590E-1,4.511723292E-1,2.521102373E0
3.330803375E0,-4.270671827E-1,-2.256458062E-1,3.777757394E-1,6.132021833E-1
3.340770375E0,1.777261198E-1,-1.160760015E-1,1.654843708E-1,2.691566249E-1
3.350736375E0,-2.416800410E-1,1.559486913E0,4.082128358E-1,1.630044905E0
3.360703375E0,1.270636799E0,1.400250274E0,3.525473428E-1,1.923410599E0
3.370670375E0,1.313013325E0,1.912018468E0,-1.264004302E-1,2.322885207E0
3.380637375E0,1.326577111E0,1.783564496E0,-1.714110812E-2,2.222881679E0
3.390603375E0,1.191400595E0,1.376195413E0,-4.880846322E-2,1.820915006E0
3.400570375E0,5.564789289E-1,1.386702860E0,-5.943285406E-2,1.495374831E0
3.410537375E0,2.447837430E-1,1.275128045E0,1.937662017E-1,1.312789379E0
3.420504375E0,1.034623879E-1,9.351147938E-1,3.855987293E-1,1.016774569E0
3.430470375E0,5.841953158E-3,4.654360271E-1,4.189161640E-1,6.262232639E-1
3.440437375E0,-2.214153457E-1,-2.763774186E-1,1.914530432E-1,4.025711125E-1
3.450404375E0,-3.036736831E-1,-9.662547255E-1,7.185701787E-2,1.015396145E0
3.460371375E0,-2.351039699E-1,-1.489976968E0,2.309486461E-1,1.525989029E0
3.470337375E0,-2.458786342E-1,-1.722145928E0,3.538395774E-1,1.775231068E0
3.480304375E0,-3.340756962E-1,-2.249019234E0,3.249063849E-1,2.296793035E0
3.490271375E0,-2.720642200E-1,-2.213323152E0,1.986977434E-1,2.238816453E0
3.500238375E0,-2.086105281E-1,-1.550363503E0,2.162686265E-1,1.579214191E0
3.510204375E0,-2.917915562E-1,-6.839809746E-1,7.967068870E-2,7.478767976E-1
3.520171375E0,-8.013234830E-1,-9.018570006E-2,-1.660854828E-1,8.233086739E-1
3.530138375E0,-1.481666905E0,-3.943128347E-2,-6.241961181E-1,1.608263796E0
3.540105375E0,-1.782426628E0,-3.962739909E-1,-1.149032840E0,2.157395241E0
3.550071375E0,-1.635267120E0,1.953590418E0,-1.508587486E0,2.960819190E0
3.560038375E0,-1.064256691E0,6.217729735E0,-1.738240389E0,6.543262566E0
3.570005375E0,1.230306798E0,4.158625726E0,2.823288317E0,5.174821704E0
3.579971375E0,8.296602595E-1,1.888171769E0,2.767497693E0,3.451459439E0
3.589938375E0,2.837077805E-1,9.428693712E-2,2.465653531E-1,3.875236826E-1
3.599905375E0,8.010819930E-1,-1.288007122E0,-6.671497643E-1,1.657040589E0
3.609872375E0,6.688083270E-1,-1.925321469E0,-6.827150524E-1,2.149480677E0
3.619838375E0,-1.909495980E-2,-2.616701510E0,-2.297604918E-1,2.626838650E0
3.629805375E0,-5.442614642E-1,-2.418344659E0,4.573341616E-1,2.520667762E0
3.639772375E0,-4.702631959E-1,-1.267581044E0,7.538266964E-1,1.547954736E0
3.649739375E0,1.556327078E-1,-5.429081261E-2,5.911312830E-1,6.136816975E-1
3.659705375E0,7.811935660E-1,8.192709267E-1,-9.091473822E-2,1.135664444E0
3.669672375E0,9.520980316E-1,1.276782807E0,-5.689105845E-1,1.691249317E0
3.679639375E0,6.791599452E-1,1.356996081E0,-2.760318482E-1,1.542365124E0
3.689606375E0,4.245771459E-1,1.187135636E0,1.667438793E-1,1.271754808E0
3.699572375E0,2.229742134E-1,1.315483773E0,2.250195694E-1,1.353088639E0
3.709539375E0,-7.095333070E-2,1.602996629E0,3.417534192E-1,1.640557213E0
3.719506375E0,3.514264315E-2,1.616324188E0,1.382795604E-1,1.622609048E0
3.729473375E0,6.560918024E-1,1.620609028E0,1.831102359E-1,1.757941817E0
3.739439375E0,7.919429411E-1,1.084131669E0,4.922863682E-1,1.429986352E0
3.749406375E0,4.322828990E-1,-1.670754164E-1,3.929328918E-1,6.076009851E-1
3.759373375E0,-1.892232075E-1,-1.510389597E0,1.401695998E-1,1.528636541E0
3.769340375E0,-5.107775299E-1,-1.658299595E0,1.707692488E-1,1.743563411E0
3.779306375E0,-5.784745462E-1,-1.109496891E0,4.073661590E-1,1.315888802E0
3.789273375E0,-5.453344283E-1,-9.711704797E-1,3.086827004E-1,1.155788367E0
3.799240375E0,-4.875041498E-1,-1.081686949E0,1.827220539E-1,1.200455872E0
3.809207375E0,-4.708734991E-1,-1.075507611E0,6.284119606E-2,1.175749756E0
3.819173375E0,-5.522391129E-1,-9.134613848E-1,-1.819220817E-1,1.082809024E0
3.829140375E0,-7.969297390E-1,-8.173822761E-1,-8.570490561E-2,1.144795233E0
3.839107375E0,-9.905471291E-1,-6.408659452E-1,1.979036915E-1,1.196268634E0
3.849073375E0,-1.152628366E0,-2.543632364E-1,2.164182421E-1,1.200037358E0
3.859040375E0,-1.193909927E0,5.872276819E-1,-2.709751761E-1,1.357823557E0
3.869007375E0,-8.456357297E-1,1.249859303E0,-8.196299458E-1,1.717277296E0
3.878974375E0,-8.734440641E-1,1.058828428E0,-1.276798010E0,1.874629385E0
3.888940375E0,-1.473665721E0,1.851620239E-1,-1.072519611E0,1.832013632E0
3.898907375E0,-2.679727770E0,-4.221689701E-4,-3.275563431E-1,2.699672991E0
3.908874375E0,-2.520847811E0,2.799863201E-1,6.705200994E-1,2.623483034E0
3.918841375E0,-6.632183158E-1,-7.066757727E-1,8.519756464E-1,1.290392066E0
3.928807292E0,-6.405455178E-1,-1.450549192E0,9.226848558E-1,1.834595013E0
3.938774292E0,2.964111489E-1,-1.114792714E0,7.268416500E-1,1.363422586E0
3.948741292E0,1.164220105E0,-7.850600374E-1,-2.267937608E-1,1.422379389E0
3.958708292E0,2.078611197E0,2.191653371E-2,-5.703958869E-1,2.155564036E0
3.968674292E0,2.752024791E0,9.524880409E-1,-4.260083981E-1,2.943188250E0
3.978641292E0,2.581191077E0,1.203262841E0,-3.721284986E-2,2.848117560E0
3.988608292E0,1.666967800E0,1.144437513E0,2.464976350E-1,2.036978142E0
3.998575292E0,3.032161385E-1,6.925067997E-1,6.231728554E-2,7.585440912E-1
4.008541292E0,-8.184072930E-1,-2.480482435E-1,-1.142592716E-1,8.627708905E-1
4.018508292E0,-1.144070308E0,-7.779135704E-1,-1.410102832E-1,1.390658222E0
4.028475292E0,-1.232219715E0,-1.250187916E0,-2.828602266E-1,1.778017199E0
4.038442292E0,-8.031881601E-1,-1.608604694E0,-2.272006539E-1,1.812274929E0
4.048408292E0,-2.479383159E-1,-1.682220554E0,-1.909324948E-1,1.711079957E0
4.058375292E0,3.640227959E-1,-1.423073711E0,-1.203041232E-1,1.473812900E0
4.068342292E0,7.423844263E-1,-1.427264995E0,-8.690592371E-2,1.611140168E0
4.078309292E0,8.688474217E-1,-1.369906733E0,6.039939880E-2,1.623326334E0
4.088275292E0,1.040680133E0,-1.289885833E0,1.451068425E-1,1.663693660E0
4.098242292E0,1.290318527E0,-1.240032472E0,1.829862019E-1,1.798912555E0
4.108209292E0,1.424298410E0,-1.004417748E0,9.419287004E-2,1.745380552E0
4.118176292E0,1.356807801E0,-7.947769403E-1,6.624668755E-2,1.573844470E0
4.128142292E0,1.254345286E0,-6.926880634E-1,1.121507657E-1,1.437280990E0
4.138109292E0,1.113630580E0,-4.978108907E-1,1.449629279E-1,1.228414833E0
4.148076292E0,8.814578193E-1,3.619484961E-2,1.652938429E-1,8.975522319E-1
4.158042292E0,4.285631928E-1,8.246807706E-1,1.858023671E-1,9.477801978E-1
4.168009292E0,-3.270558214E-1,1.047588326E0,2.169364516E-1,1.118690411E0
4.177976292E0,-8.400837985E-1,6.781705964E-1,3.551950351E-1,1.136582447E0
4.187943292E0,-9.570801517E-1,4.279577136E-1,3.822710057E-1,1.115921746E0
4.197909292E0,-7.760991794E-1,3.873640037E-1,3.425194410E-1,9.325772756E-1
4.207876292E0,-5.441047588E-1,5.989244521E-2,1.620368707E-1,5.708704240E-1
4.217843292E0,-5.937408954E-2,-1.853228223E-1,-3.132470369E-2,1.971067428E-1
4.227810292E0,4.014335740E-1,-1.476117897E-1,-7.132433653E-3,4.277721664E-1
4.237776292E0,5.746851119E-1,-4.020533788E-1,-1.528660977E-1,7.178286294E-1
4.247743292E0,8.534259751E-1,-4.939482200E-1,-4.258691613E-1,1.074097427E0
4.257710292E0,1.011776176E0,-5.447874212E-1,1.367113372E-1,1.157227011E0
4.267677292E0,1.002389641E0,-7.629832900E-1,8.044458961E-1,1.494677789E0
4.277643292E0,8.906435028E-1,-1.059191540E0,6.832904184E-1,1.543378879E0
4.287610292E0,6.715109101E-1,-1.276737199E0,2.013079405E-1,1.456540306E0
4.297577292E0,1.266445515E-1,-1.489545443E0,-4.953901068E-1,1.574863749E0
4.307544292E0,-2.494974759E-1,-1.623598124E0,-3.237205696E-1,1.674250539E0
4.317510292E0,-1.106865936E0,-2.006537540E0,-3.610418122E-2,2.291865749E0
4.327477292E0,-1.535262776E0,-2.205682595E0,3.175622821E-1,2.706088192E0
4.337444292E0,-1.255686930E0,-2.712698758E0,1.739828054E-1,2.994286932E0
4.347411292E0,-7.848387203E-1,-2.923564557E0,-3.600481145E-1,3.048415355E0
4.357377292E0,-4.132633683E-1,-2.064466490E0,2.968280554E-2,2.105632819E0
4.367344292E0,-6.061080489E-1,-1.056763192E0,6.943779818E-1,1.402239706E0
4.377311292E0,-9.166495791E-1,-5.249945962E-1,1.060816993E0,1.497063282E0
4.387278292E0,-8.464520010E-1,2.439715648E-1,1.330097719E0,1.595356718E0
4.397244292E0,-3.209592220E-1,9.719844121E-1,6.322126508E-1,1.203104881E0
4.407211292E0,-1.601853206E0,1.085394083E0,-8.123150790E-1,2.098539921E0
4.417178292E0,-2.985890028E0,1.799647263E0,-8.513206851E-1,3.588734657E0
4.427145292E0,-2.772537116E0,3.495375470E0,-4.993732302E-1,4.489319031E0
4.437111292E0,-1.953841263E0,4.668559649E0,-5.636423528E-1,5.092213426E0
4.447078292E0,1.419820905E-2,4.981732426E0,-1.259313666E0,5.138456039E0
4.457045292E0,1.555668974E0,4.189673856E0,-1.323449435E0,4.661007551E0
4.467011292E0,1.761243335E0,2.710185040E0,-1.216374053E0,3.453497773E0
4.476978292E0,9.452328157E-1,1.103973611E0,-8.117911685E-1,1.664700487E0
4.486945292E0,6.836824742E-1,4.080187082E-1,5.041001558E-2,7.977732519E-1
4.496912292E0,9.798120797E-1,1.116192538E-1,6.517119455E-1,1.182040198E0
4.506878292E0,9.348776892E-1,-2.614828062E-1,1.097959677E0,1.465566444E0
4.516845292E0,1.043431248E0,-3.024893296E-1,1.317047904E0,1.707297204E0
4.526812292E0,9.152330911E-1,-5.438512820E-1,9.802552986E-1,1.447178731E0
4.536779292E0,6.663308617E-1,-9.210545790E-1,7.786514890E-1,1.377910192E0
4.546745292E0,2.742081016E-1,-1.082652324E0,8.520796537E-1,1.404765416E0
4.556712292E0,1.463464522E-1,-1.138378043E0,5.466725636E-1,1.271287829E0
4.566679292E0,9.361129135E-2,-1.061218770E0,5.016085111E-2,1.066519790E0
4.576646292E0,-1.692339161E-1,-7.375888324E-1,-7.277685799E-2,7.602459306E-1
4.586612292E0,-4.944870409E-1,-3.928738350E-1,1.179710841E-1,6.424830430E-1
4.596579292E0,-7.826188248E-1,-1.506348002E-1,4.469225363E-1,9.137411129E-1
4.606546292E0,-1.197210096E0,-1.876026517E-1,4.258796497E-1,1.284476642E0
4.616513292E0,-1.347716257E0,-3.288930166E-1,1.397940989E-1,1.394292694E0
4.626479292E0,-1.105930966E0,-2.657039112E-1,-2.723329361E-1,1.169549956E0
4.636446292E0,-8.537800241E-1,1.771823287E-2,-3.990023017E-1,9.425800242E-1
4.646413292E0,-6.346728668E-1,2.255206758E-1,-2.411484925E-1,7.154172338E-1
4.656380292E0,-3.072109562E-1,2.779836488E-1,-2.143823147E-2,4.148651328E-1
4.666346292E0,6.151329339E-2,2.624674773E-1,1.346181071E-1,3.013222472E-1
4.676313292E0,4.134876090E-1,2.401597649E-1,1.840937741E-1,5.123858245E-1
4.686280292E0,7.247229114E-1,2.086169600E-1,1.461113942E-1,7.681750281E-1
4.696247292E0,8.589755675E-1,8.574357033E-2,1.227938676E-1,8.719342403E-1
4.706213292E0,9.617988548E-1,-2.614582479E-2,8.151837230E-2,9.656013081E-1
4.716180292E0,1.003252398E0,-3.401149929E-2,1.533487123E-2,1.003945872E0
4.726147292E0,1.017208532E0,1.119040132E-1,-1.212478272E-1,1.030503150E0
4.736114292E0,8.595661363E-1,1.720180678E-1,-1.034909662E-1,8.826973085E-1
4.746080292E0,5.252369633E-1,1.104679370E-1,-1.237867248E-1,5.508177430E-1
4.756047292E0,-9.566249460E-2,-9.994587243E-2,-2.522897772E-1,2.877335955E-1
4.766014292E0,-1.002348418E0,-7.033943152E-1,-2.333611342E-1,1.246564613E0
4.775981292E0,-1.522889483E0,-1.314772167E0,-6.180967413E-2,2.012868268E0
4.785947292E0,-1.597944343E0,-1.884670456E0,2.267702989E-1,2.481296762E0
4.795914292E0,-1.229265701E0,-2.192311183E0,6.607716215E-1,2.598834666E0
4.805881292E0,-7.608125111E-1,-2.205294340E0,1.129190971E0,2.591762152E0
4.815847292E0,-4.080035055E-1,-1.886564954E0,1.091831868E0,2.217586754E0
4.825814292E0,8.118683517E-2,-8.843235397E-1,3.002767432E-1,9.374356232E-1
4.835781292E0,3.074992239E-1,1.495834708E-1,-4.926980122E-1,5.997352072E-1
4.845748292E0,1.023771447E-1,5.933444542E-1,-8.309513247E-1,1.026167055E0
4.855714292E0,-1.074729931E-1,7.445411718E-1,-5.846372923E-1,9.527291138E-1
4.865681292E0,-6.406414121E-2,1.257381746E0,-2.315474010E-1,1.280127832E0
4.875648292E0,-7.554456443E-2,1.733027596E0,1.260550059E-2,1.734719150E0
4.885615292E0,-2.161461273E-1,1.759754634E0,3.704211116E-1,1.811261251E0
4.895581292E0,-3.120767167E-1,1.430917166E0,8.176419655E-1,1.677335445E0
4.905548292E0,1.372633874E-2,1.156897929E0,8.387738029E-1,1.429035592E0
4.915515292E0,4.353579497E-1,1.039129744E0,4.911333704E-1,1.229039933E0
4.925482792E0,8.765148756E-1,1.215738460E0,6.207652643E-2,1.500050608E0
4.935448792E0,1.298515738E0,1.475033239E0,-3.976855087E-1,2.004998738E0
4.945415792E0,9.296353680E-1,9.695630801E-1,-2.645700630E-1,1.369040468E0
4.955382792E0,6.264063656E-2,1.433988708E-1,3.887544715E-1,4.190669692E-1
4.965349792E0,-6.307862225E-1,-3.903367281E-1,8.130226652E-1,1.100572521E0
4.975315792E0,-1.026608516E0,-5.464562166E-1,8.610713558E-1,1.447060234E0
4.985282792E0,-1.147784459E0,-3.595429516E-1,7.305102662E-1,1.407240401E0
4.995249792E0,-9.787037399E-1,-7.092672586E-3,4.246973792E-1,1.066901673E0
5.005216792E0,-7.895597622E-1,-2.140665650E-3,9.913033202E-2,7.957612853E-1
5.015182792E0,-4.929655954E-1,1.658884317E-1,1.088634610E-1,5.313993820E-1
5.025149792E0,-1.382603377E-2,7.811821640E-2,2.454273753E-1,2.579306331E-1
5.035116792E0,5.397459519E-1,1.039705110E-1,2.587378308E-2,5.502772141E-1
5.045083792E0,7.913890636E-1,2.112949848E-1,-2.269552901E-2,8.194249860E-1
5.055049792E0,8.919848540E-1,1.435737026E-1,6.744061589E-2,9.059793732E-1
5.065016792E0,1.171730561E0,2.114464277E-1,-4.116790652E-2,1.191367658E0
5.074983792E0,1.212061439E0,-1.264314204E-1,-8.623941422E-2,1.221685341E0
5.084949792E0,1.057013745E0,-5.394746411E-1,-3.590994403E-2,1.187265964E0
5.094916792E0,1.025935209E0,-7.181807542E-1,-4.062499255E-3,1.252335080E0
5.104883792E0,1.231469809E0,-7.405434304E-1,-7.471206710E-2,1.438924722E0
5.114850792E0,1.222703079E0,-6.018661863E-1,-1.117917466E-1,1.367385505E0
5.124816792E0,1.246138427E0,-5.262172490E-1,-3.058620036E-1,1.386837098E0
5.134783792E0,1.198492390E0,-4.304211456E-1,-3.540265422E-1,1.321734150E0
5.144750792E0,1.109564426E0,-3.674115497E-1,-5.607175756E-1,1.296352060E0
5.154717792E0,9.219679141E-1,-4.246920437E-1,-5.431898888E-1,1.151279037E0
5.164683792E0,7.966843021E-1,-4.820269167E-1,-3.585115027E-1,9.977907212E-1
5.174650792E0,7.708805394E-1,-5.299811018E-1,-2.053541406E-1,9.577615034E-1
5.184617792E0,9.026639163E-1,-4.883974582E-1,-1.478526950E-1,1.036915928E0
5.194584792E0,8.741821289E-1,-3.016461611E-1,-2.852037907E-2,9.252017148E-1
5.204550792E0,7.207111368E-1,-1.726057130E-1,2.009176388E-3,7.410946711E-1
5.214517792E0,4.822055492E-1,-2.375793886E-1,1.067667226E-1,5.480559192E-1
5.224484792E0,2.269649380E-1,-1.897947729E-1,2.076930269E-1,3.614851758E-1
5.234451792E0,2.297754022E-1,-1.769917095E-1,1.118350160E-1,3.108534566E-1
5.244417792E0,2.471197057E-1,4.774549788E-1,2.292529535E-1,5.844555778E-1
5.254384792E0,-2.219717082E-1,5.733276808E-1,1.768420208E-1,6.397258547E-1
5.264351792E0,-6.986747351E-1,2.091016942E-1,8.634115577E-2,7.343872951E-1
5.274318792E0,-1.901976460E-1,7.032475501E-1,-4.088599764E-2,7.296601443E-1
5.284284792E0,-7.478433868E-1,3.948040009E-2,1.386059082E-1,7.616035918E-1
5.294251792E0,-1.149983597E0,-6.766871578E-1,1.756679364E-1,1.345818341E0
5.304218792E0,-5.974293190E-1,-7.257166457E-1,7.164596993E-2,9.427192509E-1
5.314185792E0,4.080479443E-2,1.151878095E-1,-1.017773665E-2,1.226248304E-1
5.324151792E0,-5.756934643E-1,-8.936884403E-2,1.158111227E-1,5.939881912E-1
5.334118792E0,-8.172384346E-1,-3.195555979E-1,2.017581761E-1,9.003892495E-1
5.344085792E0,-4.287555662E-1,-1.139306581E-1,9.448398829E-2,4.535843410E-1
5.354051792E0,-4.005260861E-1,-7.484786868E-2,1.306642929E-1,4.278977758E-1
5.364018792E0,-4.697623819E-1,1.549746037E-2,2.034785731E-1,5.121722332E-1
5.373985792E0,-3.949563208E-1,2.449176443E-1,1.685765429E-1,4.943614049E-1
5.383952792E0,-3.664295098E-1,3.901835310E-1,1.354413950E-1,5.521396065E-1
5.393918792E0,-3.372141892E-1,3.743486863E-1,1.826858012E-1,5.359332517E-1
5.403885792E0,-3.037850726E-1,2.902259642E-1,2.506585137E-1,4.892301821E-1
5.413852792E0,-3.371168330E-1,8.539799988E-2,3.681734419E-1,5.064506499E-1
5.423819792E0,-3.189623979E-1,2.169609368E-2,4.631825101E-1,5.628017141E-1
5.433785792E0,-2.695999110E-1,-4.547671974E-2,5.139152920E-1,5.821178329E-1
5.443752792E0,-3.141752824E-1,-1.140148580E-1,4.560687876E-1,5.654239427E-1
5.453719792E0,-2.383620384E-1,-3.089259446E-2,3.467223465E-1,4.218852917E-1
5.463686792E0,-1.703448871E-1,1.305092686E-1,2.565044137E-1,3.344317031E-1
5.473652792E0,-2.482181051E-1,2.452059120E-1,3.573006906E-2,3.507346644E-1
5.483619792E0,-2.507838634E-1,3.601738662E-1,-9.821451187E-2,4.497375349E-1
5.493586792E0,-9.366859406E-2,3.710496873E-1,-2.593672836E-1,4.623019184E-1
5.503553792E0,1.366932839E-2,3.050913405E-1,-3.350279883E-1,4.533335743E-1
5.513519792E0,1.350563559E-1,1.927061015E-1,-3.153285726E-1,3.934564392E-1
5.523486792E0,3.467375493E-1,9.973011017E-2,-3.085061876E-1,4.747094804E-1
5.533453792E0,5.043758520E-1,-2.257785380E-2,-1.921055194E-1,5.401937525E-1
5.543420792E0,7.175384375E-1,-2.539878452E-1,-2.081561629E-1,7.891135679E-1
5.553386792E0,8.568623838E-1,-4.243552440E-1,-2.044548754E-1,9.777997310E-1
5.563353792E0,7.660343671E-1,-7.018787169E-1,-1.854210190E-1,1.055378292E0
5.573320792E0,7.056197655E-1,-8.286364120E-1,-1.621772039E-1,1.100381299E0
5.583287792E0,9.836016601E-1,-5.449072891E-1,6.014212132E-2,1.126060946E0
5.593253792E0,1.216817856E0,-2.734982497E-1,2.511963844E-1,1.272221133E0
5.603220792E0,8.925958881E-1,-6.522393644E-2,5.414216908E-1,1.046001448E0
5.613187792E0,3.338631499E-1,-1.085471267E-1,7.175374874E-1,7.988160785E-1
5.623153792E0,1.560887906E-1,-1.486005539E-1,4.372805142E-1,4.875039316E-1
5.633120792E0,-9.205213130E-2,6.542741954E-2,-3.741487116E-4,1.129357432E-1
5.643087792E0,-4.638178101E-1,2.208177602E-1,-1.292550409E-1,5.297115345E-1
5.653054792E0,-6.937241900E-1,3.873172259E-1,1.336907387E-2,7.946361541E-1
5.663020792E0,-7.955356166E-1,3.906723583E-1,-9.893371940E-2,8.917901601E-1
5.672987792E0,-7.968933401E-1,1.998958379E-1,-3.267224570E-1,8.841633929E-1
5.682954792E0,-7.242013398E-1,9.239477813E-2,-3.611099688E-1,8.144966453E-1
5.692921792E0,-6.619396028E-1,1.979282498E-2,-2.372426621E-1,7.034485584E-1
5.702887792E0,-5.380172226E-1,3.344022632E-2,-2.322350335E-1,5.869530572E-1
5.712854792E0,-5.262836149E-1,8.825904250E-2,1.222548274E-1,5.474580758E-1
5.722821792E0,-5.489719811E-1,5.505972147E-2,3.117736117E-1,6.337228053E-1
5.732788792E0,-6.484714186E-1,7.423098743E-2,1.834295304E-1,6.779910124E-1
5.742754792E0,-6.315954772E-1,7.568752885E-2,1.178974457E-1,6.469476459E-1
5.752721792E0,-5.612292069E-1,1.983328772E-1,2.832648540E-1,6.592064399E-1
5.762688792E0,-5.324176365E-1,2.499766552E-1,4.664780374E-1,7.507054197E-1
5.772655792E0,-3.641993818E-1,2.660693622E-1,3.042212018E-1,5.440446992E-1
5.782621792E0,-4.185939825E-1,3.221991241E-1,2.979974985E-1,6.064946058E-1
5.792588792E0,-4.559433648E-1,2.099156266E-1,2.734671863E-1,5.716058294E-1
5.802555792E0,-3.157651404E-1,6.269092262E-2,6.675766110E-2,3.287770688E-1
5.812522792E0,-2.443270755E-1,4.091413736E-2,4.074807644E-2,2.510579459E-1
5.822488792E0,-2.056059363E-1,1.315383786E-1,1.297824597E-1,2.764410117E-1
5.832455792E0,-1.829690257E-1,1.334281987E-1,1.210385334E-1,2.567704717E-1
5.842422792E0,-9.401153326E-3,4.400439084E-2,6.783976145E-3,4.550593839E-2
5.852389792E0,2.551438397E-1,3.273856044E-2,-1.346169011E-1,2.903306776E-1
5.862355792E0,4.294750661E-1,-2.671241999E-2,-1.981538793E-1,4.737376337E-1
5.872322792E0,4.991475642E-1,-1.162046403E-1,-1.636482903E-1,5.379893792E-1
5.882289792E0,5.172619459E-1,-1.614053714E-1,-1.206548830E-1,5.551299086E-1
5.892256792E0,5.395059237E-1,-1.659808177E-1,-6.339660846E-2,5.680100382E-1
5.902222792E0,5.755981547E-1,-1.275944316E-1,-4.088015042E-2,5.909862615E-1
5.912189792E0,5.762159130E-1,-1.216612619E-1,-9.568844162E-2,5.966427062E-1
5.922156792E0,5.965680242E-1,-1.078027761E-1,-1.551149368E-1,6.257599297E-1
5.932122500E0,6.639302874E-1,-9.547743022E-2,-1.827466122E-1,6.952090984E-1
5.942089500E0,7.593261489E-1,-1.231850463E-1,-1.363990959E-1,7.812525004E-1
5.952056500E0,8.648350623E-1,-1.695979053E-1,-8.202934586E-2,8.851169121E-1
5.962023500E0,9.615611655E-1,-2.641175616E-1,-4.461315908E-2,9.981724777E-1
5.971989500E0,1.032761833E0,-3.593657809E-1,-2.365081787E-2,1.093755059E0
5.981956500E0,1.050530352E0,-4.425593805E-1,-1.293521047E-2,1.140017608E0
5.991923500E0,1.010941194E0,-5.076301199E-1,-1.208495222E-2,1.131298582E0
6.001890500E0,9.376182792E-1,-4.612540984E-1,1.618860126E-2,1.045057631E0
6.011856500E0,7.978534529E-1,-3.619368017E-1,7.507243831E-2,8.793203351E-1
6.021823500E0,6.477416861E-1,-2.065066999E-1,1.433106144E-1,6.948037430E-1
6.031790500E0,4.829466838E-1,-6.380189359E-2,1.607223435E-1,5.129715905E-1
6.041757500E0,3.087250927E-1,4.810796678E-2,1.420825895E-1,3.432390152E-1
6.051723500E0,1.364526710E-1,1.396350181E-1,1.516744717E-1,2.472294785E-1
6.061690500E0,2.476412773E-2,1.598394871E-1,1.883002976E-1,2.482315970E-1
6.071657500E0,-5.016560197E-2,1.591237879E-1,2.177479720E-1,2.743194248E-1
6.081624500E0,-1.209364995E-1,1.425504398E-1,2.405391761E-1,3.046397217E-1
6.091590500E0,-1.804322112E-1,8.226272285E-2,2.606045544E-1,3.274716357E-1
6.101557500E0,-2.434874153E-1,6.149165869E-2,2.735982370E-1,3.713803183E-1
6.111524500E0,-2.956767386E-1,3.641295075E-2,2.609764373E-1,3.960547154E-1
6.121491500E0,-3.388479012E-1,3.332445145E-2,2.520384200E-1,4.236174977E-1
6.131457500E0,-3.718972412E-1,1.694230735E-2,2.443001783E-1,4.452832547E-1
6.141424500E0,-4.282892507E-1,-2.563243926E-2,2.160511466E-1,4.803819336E-1
6.151391500E0,-4.164746591E-1,-2.441972673E-2,1.727068698E-1,4.515253345E-1
6.161358500E0,-4.174982142E-1,-2.684456706E-2,1.548904768E-1,4.461125973E-1
6.171324500E0,-4.044875747E-1,-6.414278626E-2,1.604744216E-1,4.398596766E-1
6.181291500E0,-3.750640932E-1,-8.117747962E-2,1.581636020E-1,4.150645518E-1
6.191258500E0,-3.066136631E-1,-7.284578204E-2,1.317892607E-1,3.415945779E-1
6.201224500E0,-2.465241668E-1,-8.759947658E-2,1.159268610E-1,2.861588199E-1
6.211191500E0,-9.329641879E-2,-5.981701612E-4,1.580314915E-1,1.835171160E-1
6.221158500E0,-3.236784697E-2,7.360592008E-2,1.690570744E-1,1.872052440E-1
6.231125500E0,-2.468782157E-2,4.632924378E-2,1.193896552E-1,1.304215363E-1
6.241091500E0,7.657045841E-2,4.308813214E-3,1.676023237E-1,1.843153273E-1
6.251058500E0,2.281653714E-1,7.058174014E-3,1.704451668E-1,2.848873627E-1
6.261025500E0,4.129938117E-1,3.188135862E-2,4.826291800E-2,4.170247220E-1
6.270992500E0,7.224559459E-1,3.421966016E-2,2.558519375E-1,7.671856313E-1
6.280958500E0,7.007738855E-1,-1.097364503E-1,8.007913864E-1,1.069763045E0
6.290925500E0,4.050465685E-1,-2.867626584E-1,7.374917686E-1,8.889261238E-1
6.300892500E0,3.033555946E-1,-2.530207157E-1,-8.687672418E-2,4.044646641E-1
6.310859500E0,2.998306006E-1,-7.777498484E-2,-6.463301682E-1,7.167217199E-1
6.320825500E0,5.465363234E-2,-2.378413439E-2,-4.153464389E-1,4.196014405E-1
6.330792500E0,-2.451404232E-1,2.769299805E-2,-7.933973629E-2,2.591438268E-1
6.340759500E0,-4.507618546E-1,7.625061572E-2,-3.000093061E-2,4.581489516E-1
6.350726500E0,-4.311979482E-1,1.232768476E-1,-2.416046119E-1,5.094130349E-1
6.360692500E0,-2.492782053E-1,1.069870895E-1,-3.421837743E-1,4.366641689E-1
6.370659500E0,-4.381026328E-2,7.610735893E-2,-2.347481668E-1,2.506359333E-1
6.380626500E0,1.301253989E-1,3.362909138E-2,-2.220659215E-2,1.362228614E-1
6.390593500E0,2.551818466E-1,-4.940604866E-2,1.978709471E-1,3.266674826E-1
6.400559500E0,2.628554401E-1,-7.387079895E-2,4.217678877E-1,5.024321132E-1
6.410526500E0,2.542901462E-1,-6.602442026E-2,5.713268002E-1,6.288378290E-1
6.420493500E0,2.016304144E-1,-7.324923992E-2,5.501095935E-1,5.904581611E-1
6.430460500E0,1.096607289E-1,-4.180817664E-2,4.647917004E-1,4.793795197E-1
6.440426500E0,9.682755232E-2,-2.688959062E-2,4.043443179E-1,4.166448756E-1
6.450393500E0,8.258782804E-2,-2.097337782E-2,2.718464478E-1,2.848879132E-1
6.460360500E0,9.134227931E-2,-1.246684849E-2,1.701410751E-1,1.935118077E-1
6.470327500E0,5.406803370E-2,-1.770595372E-2,8.274862647E-2,1.004200590E-1
6.480293500E0,1.537671536E-2,-4.118193984E-2,4.189994138E-2,6.072891100E-2
6.490260500E0,-4.587579221E-2,-5.947319984E-2,6.736573499E-2,1.008949556E-1
6.500227500E0,-9.424951494E-2,-6.465675652E-2,1.176915507E-1,1.640572105E-1
6.510194500E0,-9.952838123E-2,-5.859494805E-2,1.345058405E-1,1.772881489E-1
6.520160500E0,-8.461856604E-2,-4.640701175E-2,1.173009932E-1,1.518994255E-1
6.530127500E0,-3.408897489E-2,-1.847018480E-2,9.974297404E-2,1.070133955E-1
6.540094500E0,-3.940000087E-2,1.675285757E-2,1.401425930E-1,1.465365643E-1
6.550060500E0,-7.045544028E-2,4.424295723E-2,1.794638757E-1,1.978097344E-1
6.560027500E0,-8.001505315E-2,4.955632210E-2,1.721186399E-1,1.961710071E-1
6.569994500E0,-8.417563945E-2,4.928559601E-2,1.558586661E-1,1.838655271E-1
6.579961500E0,-9.528622627E-2,5.178118765E-2,1.095697681E-1,1.541631940E-1
6.589927500E0,-5.869376600E-2,3.581244171E-2,6.959944446E-2,9.783441019E-2
6.599894500E0,-5.033224761E-2,1.555125475E-2,3.545174159E-2,6.349805238E-2
6.609861500E0,-5.731440783E-2,-1.059047699E-2,3.503998797E-2,6.800661956E-2
6.619828500E0,-4.870964527E-2,-3.185504615E-2,3.910968661E-2,7.012090341E-2
6.629794500E0,-5.014572144E-2,-3.936637938E-2,2.275619388E-2,6.769157675E-2
6.639761500E0,-3.237369418E-2,-5.060648203E-2,2.480505824E-2,6.499509991E-2
6.649728500E0,-2.092689246E-2,-4.548081279E-2,4.472071130E-2,6.712958497E-2
6.659695500E0,1.630291432E-2,-2.695858777E-2,7.104370672E-2,7.771588470E-2
6.669661500E0,5.715741009E-2,-2.544649780E-2,9.202004470E-2,1.112752551E-1
6.679628500E0,9.576248199E-2,-1.084892392E-2,7.424443603E-2,1.216568469E-1
6.689595500E0,1.193945888E-1,-2.472495139E-2,4.935166955E-2,1.315369847E-1
6.699562500E0,1.362793010E-1,-1.797901869E-2,9.548503160E-3,1.377913891E-1
6.709528500E0,1.624452987E-1,-3.358582199E-2,-8.542745523E-3,1.661007556E-1
6.719495500E0,1.558774137E-1,-2.720300138E-2,-5.294032507E-3,1.583218184E-1
6.729462500E0,1.218656221E-1,-3.861150384E-2,-9.191457555E-4,1.278394419E-1
6.739429500E0,1.081702736E-1,-3.746954262E-2,3.147673130E-2,1.187247208E-1
6.749395500E0,7.187426716E-2,-4.190874875E-2,3.222751379E-2,8.922368602E-2
6.759362500E0,6.308356315E-2,-1.998461366E-2,4.560831863E-2,8.036814948E-2
6.769329500E0,7.389272600E-2,8.066233993E-3,5.303187054E-2,9.131034103E-2
6.779296500E0,6.882991433E-2,-1.160379946E-2,3.435469430E-2,7.779749539E-2
6.789262500E0,3.570134461E-2,-2.512665510E-2,5.026262920E-2,6.657527092E-2
6.799229500E0,1.009317130E-2,-1.715631545E-2,7.253587961E-2,7.521745208E-2
6.809196500E0,-3.570953071E-2,-1.266273022E-2,1.167419994E-1,1.227363424E-1
6.819163500E0,-6.178285003E-2,2.448638499E-2,1.419247878E-1,1.567142271E-1
6.829129500E0,-4.494345367E-2,2.552835882E-2,1.215764407E-1,1.321076912E-1
6.839096500E0,1.942825109E-2,1.611492634E-2,9.454830766E-2,9.785974797E-2
6.849063500E0,5.902179480E-2,1.246567905E-2,6.368085623E-2,8.771668521E-2
6.859030500E0,7.782790214E-2,5.689340830E-4,2.083593171E-2,8.057072724E-2
6.868996500E0,8.696271479E-2,-2.042900205E-2,-1.231774449E-2,9.017529993E-2
6.878963500E0,8.017672867E-2,-2.460215986E-2,-2.618500113E-2,8.785913939E-2
6.888930500E0,7.251102895E-2,-1.857251108E-2,-2.418053906E-2,7.866057434E-2
6.898896500E0,6.857789934E-2,-9.949037433E-3,2.036037035E-3,6.932573166E-2
6.908863500E0,7.919644296E-2,-9.314029813E-3,3.292219955E-2,8.627107831E-2
6.918830500E0,8.351987422E-2,-2.009220243E-2,5.892005324E-2,1.041673589E-1
6.928797125E0,9.222900957E-2,-2.642415226E-2,5.733194947E-2,1.117648355E-1
6.938763125E0,1.090540802E-1,-3.026051044E-2,5.439313889E-2,1.255671313E-1
6.948730125E0,1.211972854E-1,-2.963135004E-2,3.450211722E-2,1.294495847E-1
6.958697125E0,1.352323571E-1,-3.736604691E-2,2.706672471E-2,1.428867364E-1
6.968664125E0,1.102928129E-1,-9.274853468E-3,1.233408015E-2,1.113672170E-1
6.978630125E0,1.253777522E-1,-1.695634067E-2,-1.961623907E-2,1.280308364E-1
6.988597125E0,1.550096869E-1,-4.206486940E-3,-2.998682421E-2,1.579395682E-1
6.998564125E0,1.934966451E-1,-4.551472664E-3,-5.036670964E-2,1.999961825E-1
7.008531125E0,2.310024405E-1,1.405670643E-3,-5.165894430E-2,2.367123781E-1
7.018497125E0,2.553645721E-1,9.384196401E-3,-8.690365791E-2,2.699099361E-1
7.028464125E0,2.709976879E-1,-1.101264596E-2,-1.319494744E-1,3.016151339E-1
7.038431125E0,2.592506316E-1,-5.427794874E-2,-1.681799555E-1,3.137538576E-1
7.048398125E0,2.308167914E-1,-1.051744527E-1,-1.981890357E-1,3.218958691E-1
7.058364125E0,2.158283311E-1,-1.684068274E-1,-2.394236004E-1,3.636844628E-1
7.068331125E0,2.095840895E-1,-2.358877891E-1,-2.858633200E-1,4.257773801E-1
7.078298125E0,1.939977515E-1,-2.997101480E-1,-2.734765784E-1,4.497229584E-1
7.088265125E0,1.920161301E-1,-3.526303732E-1,-2.470390141E-1,4.714304284E-1
7.098231125E0,1.605174717E-1,-3.740095478E-1,-2.023265254E-1,4.545162522E-1
7.108198125E0,1.435298485E-1,-3.639804035E-1,-1.886475492E-1,4.343621178E-1
7.118165125E0,1.355033755E-1,-2.924139923E-1,-1.716169488E-1,3.651294083E-1
7.128132125E0,1.217706048E-1,-1.943760663E-1,-1.267419076E-1,2.620565712E-1
7.138098125E0,6.600161612E-2,-7.241191864E-2,-3.186845820E-2,1.030305679E-1
7.148065125E0,3.720232487E-2,9.764674723E-2,7.825098474E-2,1.305454589E-1
7.158032125E0,4.752616882E-3,2.341745549E-1,1.506803354E-1,2.785047092E-1
7.167999125E0,-2.340406537E-2,3.749883717E-1,1.809667198E-1,4.170287554E-1
7.177965125E0,-3.372089267E-2,4.933354318E-1,2.610396603E-1,5.591588783E-1
7.187932125E0,2.640017867E-3,6.770461768E-1,3.179658131E-1,7.479978299E-1
7.197899125E0,3.329199940E-2,7.961855346E-1,3.521157452E-1,8.712090798E-1
7.207866125E0,1.235575140E-2,9.840916568E-1,5.287354255E-1,1.117206428E0
7.217832125E0,-8.890165150E-2,1.245494356E0,7.556018380E-1,1.459484098E0
7.227799125E0,-2.577917513E-1,1.522855276E0,8.923015539E-1,1.783745173E0
7.237766125E0,-4.737370268E-1,1.890158653E0,1.231643472E0,2.305227135E0
7.247732125E0,-7.905356625E-1,2.315918398E0,1.869340665E0,3.079425138E0
7.257699125E0,-1.145059657E0,2.854614775E0,2.390408563E0,3.895387045E0
7.267666125E0,-1.217044728E0,3.460396256E0,2.351834335E0,4.357369030E0
7.277633125E0,-8.535885277E-1,4.148965541E0,1.578565793E0,4.520442279E0
7.287599125E0,-2.416361868E-3,4.914070786E0,2.125112057E-1,4.918664304E0
7.297566125E0,5.642829153E-1,5.494233862E0,-4.091578920E-1,5.538269686E0
7.307533125E0,1.040014427E0,5.670696398E0,-6.082495916E-1,5.797274809E0
7.317500125E0,1.598641331E0,5.415074256E0,-2.129579329E0,6.034384097E0
7.327466125E0,1.682624889E0,4.910021589E0,-2.544609726E0,5.780534333E0
7.337433125E0,1.483787105E0,4.366305377E0,-1.628914998E0,4.890767925E0
7.347400125E0,1.927235847E0,4.059606053E0,-8.701310317E-1,4.577310053E0
7.357367125E0,2.727646580E0,3.745018834E0,-2.226561248E-1,4.638404648E0
7.367333125E0,2.980911124E0,2.961579645E0,1.904669103E-1,4.206312253E0
7.377300125E0,2.948665484E0,1.611508421E0,3.632174881E-1,3.379869002E0
7.387267125E0,2.688749439E0,-1.223424625E-1,1.787518676E-1,2.697460557E0
7.397234125E0,2.065222535E0,-1.929277695E0,-6.804638743E-2,2.826992546E0
7.407200125E0,9.659208494E-1,-3.510017483E0,2.354673743E-2,3.640574167E0
7.417167125E0,6.102008075E-2,-4.405484061E0,1.656247222E-1,4.409018577E0
7.427134125E0,-3.795831138E-1,-4.702201604E0,-1.010536274E-1,4.718579776E0
7.437101125E0,-5.690258843E-1,-4.804923735E0,-2.399647602E-1,4.844446887E0
7.447067125E0,-9.562448770E-1,-5.092067631E0,-5.206545004E-1,5.207171798E0
7.457034125E0,-1.611433869E0,-5.553307697E0,-1.204469414E0,5.906495751E0
7.467001125E0,-2.002641833E0,-6.036665440E0,-1.707372937E0,6.585364552E0
7.476968125E0,-1.860399833E0,-6.316332502E0,-1.887082725E0,6.849687951E0
7.486934125E0,-1.705035513E0,-6.439660805E0,-1.941549539E0,6.938731296E0
7.496901125E0,-1.676313405E0,-6.663374691E0,-1.739384981E0,7.087739345E0
7.506868125E0,-1.412063404E0,-7.309849870E0,-1.365335087E0,7.569145796E0
7.516835125E0,-1.193562018E0,-8.215166668E0,-1.196690571E0,8.387229698E0
7.526801125E0,-1.278549836E0,-9.182589667E0,-1.237641253E0,9.353416411E0
7.536768125E0,-1.306940699E0,-9.916709347E0,-1.274947658E0,1.008338781E1
7.546735125E0,-1.277664567E0,-9.943942169E0,-1.477227699E0,1.013393380E1
7.556702125E0,-1.185520635E0,-9.160345105E0,-1.725568303E0,9.396540192E0
7.566668125E0,-1.245815368E0,-8.338754003E0,-2.160182779E0,8.703635097E0
7.576635125E0,-1.695557176E0,-8.027509637E0,-2.585831720E0,8.602461903E0
7.586602125E0,-2.347708248E0,-8.150766020E0,-2.790218804E0,8.929280021E0
7.596569125E0,-2.927762858E0,-8.332044323E0,-2.582936178E0,9.201430174E0
7.606535125E0,-3.348446635E0,-8.157645269E0,-1.864979665E0,9.013180368E0
7.616502125E0,-3.533624154E0,-7.623305068E0,-9.939836839E-1,8.461045053E0
7.626469125E0,-3.522876095E0,-6.716014835E0,-2.828061399E-1,7.589169292E0
7.636436125E0,-3.297282036E0,-5.389770430E0,1.550778070E-1,6.320264492E0
7.646402125E0,-3.088990474E0,-3.877875175E0,1.669638808E-1,4.960610341E0
7.656369125E0,-3.093568259E0,-2.303390738E0,1.791806147E-2,3.856954047E0
7.666336125E0,-3.333439756E0,-7.222697121E-1,-2.039438653E-1,3.416882679E0
7.676302125E0,-3.349035157E0,9.171088779E-1,-4.938898940E-1,3.507285618E0
7.686269125E0,-2.873516192E0,2.418214851E0,-7.652368069E-1,3.832811728E0
7.696236125E0,-1.778139449E0,3.600522441E0,-8.838990319E-1,4.111790273E0
7.706203125E0,-7.528477263E-1,4.432201744E0,-8.238319011E-1,4.570546028E0
7.716169125E0,3.571754140E-1,4.970043257E0,-5.803585191E-1,5.016544654E0
7.726136125E0,1.695359248E0,5.322862496E0,-3.305068481E-1,5.596100688E0
7.736103125E0,3.328922490E0,6.077191322E0,6.358531272E-1,6.958325122E0
7.746070125E0,4.984339700E0,7.306785929E0,1.948250009E0,9.056955391E0
7.756036125E0,6.209095151E0,8.425703854E0,2.632105415E0,1.079228090E1
7.766003125E0,6.913492264E0,9.549142261E0,3.159676294E0,1.220516479E1
7.775970125E0,7.445702909E0,1.070297625E1,3.337165017E0,1.345841234E1
7.785937125E0,7.555893688E0,1.125679060E1,2.369849607E0,1.376310471E1
7.795903125E0,7.184904227E0,1.122077877E1,1.322629802E0,1.338947626E1
7.805870125E0,6.728626694E0,1.083334226E1,6.201335458E-1,1.276793982E1
7.815837125E0,6.262919941E0,1.038894218E1,4.894670601E-1,1.214058746E1
7.825804125E0,5.999611634E0,1.035705380E1,9.001181848E-1,1.200308777E1
7.835770125E0,5.793586160E0,1.064414390E1,1.382723830E0,1.219735075E1
7.845737125E0,5.204159340E0,1.082502635E1,1.526601588E0,1.210764149E1
7.855704125E0,4.733344752E0,1.087561763E1,1.391018690E0,1.194230063E1
7.865671125E0,4.439149698E0,1.083554549E1,1.248434336E0,1.177597913E1
7.875637125E0,4.175779118E0,1.063359670E1,1.117386539E0,1.147863505E1
7.885604125E0,3.764139229E0,1.020784923E1,9.883957922E-1,1.092455291E1
7.895571125E0,3.456829163E0,9.722230954E0,9.119060254E-1,1.035871687E1
7.905538125E0,3.214477277E0,9.187799537E0,9.232871190E-1,9.777575548E0
7.915504125E0,2.961144612E0,8.615821393E0,9.913498787E-1,9.164252849E0
7.925471125E0,2.630173495E0,8.062977678E0,1.223942689E0,8.568982282E0
7.935438875E0,2.214511599E0,7.467726447E0,1.537724161E0,7.939495922E0
7.945405875E0,1.744603036E0,6.695625594E0,1.625536330E0,7.107560074E0
7.955371875E0,9.537416840E-1,5.365203938E0,6.464820497E-1,5.487529093E0
7.965338875E0,-3.294096181E-1,2.723454126E0,-2.028366365E0,3.411741958E0
7.975305875E0,-1.766717206E0,-7.853354412E-1,-3.936090639E0,4.385299415E0
7.985272875E0,-3.686127140E0,-4.206235510E0,-2.698096798E0,6.209643854E0
7.995238875E0,-5.439664721E0,-7.718262681E0,-7.138339341E-1,9.469482033E0
8.005205875E0,-5.306772128E0,-1.063248573E1,-6.625950757E-1,1.190170641E1
8.015172875E0,-5.694518539E0,-1.313699554E1,9.442751880E-1,1.434921074E1
8.025139875E0,-7.993426217E0,-1.739601737E1,4.069566492E0,1.957236967E1
8.035105875E0,-9.068138022E0,-2.354311450E1,1.872628262E0,2.529853956E1
8.045072875E0,-2.871755887E0,-2.240335417E1,-4.682481869E0,2.306692213E1
8.055039875E0,6.836317204E0,-1.347987860E1,-1.017275424E1,1.821887178E1
8.065005875E0,4.117173645E0,-8.819797418E0,-8.792683879E0,1.311683022E1
8.074972875E0,-2.047051143E0,-7.896532007E0,-4.637836916E0,9.383771490E0
8.084939875E0,-2.855019987E0,-7.196802726E0,-5.605190626E-1,7.762685761E0
8.094906875E0,-2.716816075E0,-7.255071985E0,1.476570179E0,7.886534003E0
8.104872875E0,-2.245484300E0,-7.293333240E0,1.939460329E0,7.873780278E0
8.114839875E0,-1.093946513E0,-6.239957340E0,5.208454120E-1,6.356497977E0
8.124806875E0,-1.040825144E0,-5.506736963E0,-2.948940596E0,6.332749766E0
8.134773875E0,-8.175652939E-1,-4.904025269E0,-3.484763943E0,6.071363651E0
8.144739875E0,-8.753264290E-1,-4.252206904E0,-1.601328857E0,4.627279333E0
8.154706875E0,-9.327800006E-1,-3.627102714E0,1.859671855E-1,3.749738180E0
8.164673875E0,-1.015858118E0,-3.220142936E0,8.248582336E-1,3.475871020E0
8.174640875E0,-1.088670278E0,-2.634649538E0,1.213118323E0,3.098102198E0
8.184606875E0,-6.265548849E-1,-1.754067047E0,1.630453108E0,2.475419069E0
8.194573875E0,-1.367704672E-1,-7.433612037E-1,1.325455176E0,1.525818949E0
8.204540875E0,2.964509100E-1,4.315595984E-1,3.496773832E-1,6.296039242E-1
8.214507875E0,7.784480059E-1,1.681156361E0,-5.306864221E-1,1.927147137E0
8.224473875E0,1.384885838E0,2.728116111E0,-8.197467439E-1,3.167413933E0
8.234440875E0,1.643315228E0,3.553452355E0,-9.294229679E-1,4.023845875E0
8.244407875E0,1.679000200E0,4.438668180E0,-5.880476077E-1,4.781905151E0
8.254374875E0,1.409394735E0,5.373194743E0,-2.625433449E-1,5.561163932E0
8.264340875E0,1.138508436E0,6.241006331E0,2.515238285E-2,6.344051870E0
8.274307875E0,9.462780055E-1,6.934891319E0,4.166307798E-1,7.011543402E0
8.284274875E0,8.457898039E-1,7.427133322E0,8.610237010E-1,7.524561887E0
8.294241875E0,7.158351436E-1,7.683676985E0,1.330106052E0,7.830740327E0
8.304207875E0,6.859096786E-1,7.764560934E0,1.639441155E0,7.965340287E0
8.314174875E0,6.889177787E-1,7.595572309E0,1.728446302E0,7.820156842E0
8.324141875E0,5.541803885E-1,7.101955041E0,1.727370415E0,7.329985666E0
8.334108875E0,1.982352287E-1,6.334689251E0,1.705546413E0,6.563266997E0
8.344074875E0,1.676396728E-2,5.449388641E0,1.814998104E0,5.743721417E0
8.354041875E0,2.040453145E-1,4.595484656E0,1.968660300E0,5.003572433E0
8.364008875E0,4.495070422E-1,3.834903987E0,1.770432965E0,4.247702680E0
8.373975875E0,6.499104184E-1,3.198022919E0,1.185442428E0,3.472032243E0
8.383941875E0,9.176015058E-1,2.716592419E0,4.448526585E-1,2.901682405E0
8.393908875E0,1.036914234E0,2.354530486E0,-3.558311391E-1,2.597233285E0
8.403875875E0,9.838364258E-1,1.941964983E0,-1.146418111E0,2.460373263E0
8.413842875E0,8.882721645E-1,1.374608479E0,-1.980199634E0,2.569001070E0
8.423808875E0,7.416944548E-1,6.879793006E-1,-2.523418540E0,2.718651745E0
8.433775875E0,4.264517632E-1,1.045920700E-1,-2.068306210E0,2.114400905E0
8.443742875E0,4.104602131E-1,-1.764713073E-1,-7.829677574E-1,9.014755782E-1
8.453709875E0,7.591422540E-1,-9.082713962E-2,5.580911525E-1,9.465792442E-1
8.463675875E0,1.184821015E0,8.321581900E-2,9.207952550E-1,1.502860477E0
8.473642875E0,2.002112660E0,6.888312399E-2,7.272592874E-1,2.131221729E0
8.483609875E0,2.495156023E0,-4.579603618E-1,8.336667717E-3,2.536848591E0
8.493576875E0,1.955685767E0,-1.170792083E0,-9.811893913E-1,2.481570782E0
8.503542875E0,4.931867664E-1,-1.326385907E0,-1.658054012E0,2.179833908E0
8.513509875E0,-3.970205341E-1,-7.993547255E-1,-1.661098657E0,1.885694045E0
8.523476875E0,-2.954489896E-1,-1.142356489E0,-1.881013900E0,2.220468812E0
8.533443875E0,-6.197782543E-1,-3.027352050E0,-2.191365395E0,3.788280324E0
8.543409875E0,-1.724904936E0,-5.368635669E0,-1.992306587E0,5.980537729E0
8.553376875E0,-2.629637890E0,-7.234451779E0,-1.376532213E0,7.819662966E0
8.563343875E0,-2.716684220E0,-8.729886537E0,-6.050394702E-1,9.162825157E0
8.573310875E0,-3.216721730E0,-1.034658261E1,-3.540945160E-1,1.084086958E1
8.583276875E0,-4.208533174E0,-1.225821516E1,-9.025025332E-1,1.299192446E1
8.593243875E0,-4.440480816E0,-1.427240086E1,-2.212773368E0,1.511011787E1
8.603210875E0,-3.853036203E0,-1.580291891E1,-3.755915413E0,1.669386219E1
8.613177875E0,-3.212954369E0,-1.617026439E1,-4.906672304E0,1.720104529E1
8.623143875E0,-2.825371095E0,-1.527763546E1,-5.111337715E0,1.635587480E1
8.633110875E0,-2.351236458E0,-1.377501331E1,-3.972392785E0,1.452787696E1
8.643077875E0,-1.804400172E0,-1.259593396E1,-2.423845135E0,1.295331763E1
8.653043875E0,-1.201869450E0,-1.150634977E1,-1.383644181E0,1.165139675E1
8.663010875E0,-6.907953197E-1,-9.877375127E0,-5.564735202E-1,9.917126618E0
8.672977875E0,-7.246173692E-1,-7.787583761E0,8.018871546E-3,7.821227236E0
8.682944875E0,-1.185156353E0,-5.542236578E0,2.992591815E-1,5.675432841E0
8.692910875E0,-1.860626705E0,-3.328801745E0,2.358182073E-1,3.820793506E0
8.702877875E0,-2.378749361E0,-9.588930809E-1,1.848199618E-1,2.571397068E0
8.712844875E0,-2.334036288E0,1.565927621E0,2.883111472E-1,2.825416434E0
8.722811875E0,-2.229757629E0,3.480345787E0,1.635991006E-1,4.136591658E0
8.732777875E0,-1.579044095E0,4.970022792E0,4.028743279E-1,5.230374225E0
8.742744875E0,-9.109450355E-1,6.027975308E0,5.126748052E-1,6.117936141E0
8.752711875E0,-3.619511274E-1,6.466018299E0,4.145744602E-1,6.489396986E0
8.762678875E0,8.073619026E-1,7.128156999E0,7.418840508E-1,7.211993302E0
8.772644875E0,2.144521889E0,8.088165144E0,1.404668430E0,8.484720557E0
8.782611875E0,3.419137718E0,8.913224230E0,1.951158707E0,9.743874445E0
8.792578875E0,4.299648873E0,9.556623189E0,2.325006287E0,1.073413627E1
8.802545875E0,4.893336267E0,1.014958757E1,2.558223506E0,1.155436607E1
8.812511875E0,5.381911188E0,1.066381745E1,2.514094570E0,1.220666384E1
8.822478875E0,5.683155060E0,1.108473277E1,2.197601159E0,1.264907123E1
8.832445875E0,5.680409793E0,1.139109881E1,1.534765470E0,1.282106441E1
8.842412875E0,5.428369070E0,1.160012390E1,8.285844449E-1,1.283419719E1
8.852378875E0,5.266677185E0,1.169381150E1,2.485055689E-1,1.282750447E1
8.862345875E0,5.162856363E0,1.161501910E1,-4.439089179E-2,1.271085068E1
8.872312875E0,5.141165532E0,1.148300300E1,-1.854853749E-2,1.258138645E1
8.882279875E0,5.209423589E0,1.137137030E1,2.321613586E-1,1.250999822E1
8.892245875E0,5.331999940E0,1.124557096E1,6.727875765E-1,1.246377683E1
8.902212875E0,5.425923765E0,1.105582648E1,1.132040904E0,1.236743564E1
8.912179875E0,5.407537195E0,1.073078912E1,1.513374016E0,1.211121771E1
8.922146875E0,5.237921748E0,1.031444865E1,1.771201143E0,1.170302648E1
8.932113000E0,5.053356725E0,9.868486190E0,1.751975644E0,1.122465378E1
8.942080000E0,4.840249396E0,9.443965470E0,1.563307922E0,1.072662247E1
8.952047000E0,4.593744817E0,9.043668594E0,1.406586317E0,1.024055263E1
8.962014000E0,4.447820534E0,8.636209465E0,1.373594133E0,9.810911388E0
8.971980000E0,4.377068640E0,8.274246935E0,1.448279303E0,9.472032789E0
8.981947000E0,4.160425207E0,7.835548471E0,1.519615334E0,9.000788216E0
8.991914000E0,3.890016626E0,7.267956909E0,1.693982960E0,8.415759339E0
9.001881000E0,3.402064141E0,6.405489092E0,1.936265848E0,7.506893922E0
9.011847000E0,2.302427702E0,4.755924067E0,1.920169487E0,5.622013689E0
9.021814000E0,2.052346382E-1,9.763879502E-1,8.632033968E-1,1.319308452E0
9.031781000E0,-2.391034361E0,-3.938908997E0,-1.151596697E0,4.749549911E0
9.041748000E0,-5.940168840E0,-1.219700417E1,-8.664262651E0,1.609726572E1
9.051714000E0,-9.472726754E0,-2.051512919E1,-1.171343125E1,2.545206376E1
9.061681000E0,-1.185733590E1,-2.076356803E1,3.974504507E0,2.423878830E1
9.071648000E0,-1.594416425E1,-2.781981013E1,8.160175359E0,3.308695621E1
9.081615000E0,-1.140449478E1,-3.065267618E1,-2.986697237E0,3.284158064E1
9.091581000E0,1.668120286E0,-2.011313312E1,-1.476496212E1,2.500649627E1
9.101548000E0,1.377111965E0,-1.147350829E1,-7.458383181E0,1.375373802E1
9.111515000E0,-7.576868820E-1,-6.742562948E0,1.123773745E0,6.877434983E0
9.121482000E0,-3.218096995E-1,-6.344867499E0,7.803951287E-1,6.400775079E0
9.131448000E0,-2.986298749E-1,-7.871950897E0,-4.261961229E0,8.956623485E0
9.141415000E0,-5.410001796E-1,-7.236684830E0,-4.047351458E0,8.309232356E0
9.151382000E0,-3.866211149E-1,-5.612787328E0,-9.544293165E-1,5.706469381E0
9.161349000E0,1.055768580E0,-3.973999307E0,3.911132383E-1,4.130410071E0
9.171315000E0,5.115147176E-1,-3.167247269E0,-2.496614903E-3,3.208287519E0
9.181282000E0,-2.419025275E-1,-2.755285783E0,-2.889878163E-1,2.780940585E0
9.191249000E0,3.455654749E-1,-2.456524639E0,-4.164243731E-1,2.515420056E0
9.201216000E0,1.026985954E0,-2.060006234E0,-2.010889623E-1,2.310576249E0
9.211182000E0,1.299138759E0,-1.631154481E0,4.102383113E-1,2.125258085E0
9.221149000E0,1.667179469E0,-8.510382646E-1,1.035019151E0,2.138929207E0
9.231116000E0,2.048576389E0,2.715949810E-1,9.043429443E-1,2.255718337E0
9.241083000E0,2.190795584E0,1.507702217E0,5.793912435E-1,2.721845969E0
9.251049000E0,2.273833356E0,2.724354597E0,-2.980641568E-1,3.561076852E0
9.261016000E0,2.355835585E0,3.777972572E0,-1.055044549E0,4.575604557E0
9.270983000E0,2.480904312E0,4.482638072E0,-9.063747056E-1,5.202926618E0
9.280950000E0,2.601496995E0,4.955471996E0,-2.292085147E-1,5.601519960E0
9.290916000E0,2.751619287E0,5.261235766E0,8.929880901E-1,6.004118438E0
9.300883000E0,1.866305521E0,5.858231222E0,6.947930610E-1,6.187463676E0
9.310850000E0,9.241495103E-1,6.603670526E0,-1.487110662E-1,6.669680031E0
9.320817000E0,5.542955786E-1,7.091173945E0,-3.837878466E-2,7.112908297E0
9.330783000E0,1.660661870E-1,7.154350187E0,1.168894223E-1,7.157231847E0
9.340750000E0,-4.214295897E-1,6.533717362E0,1.952022779E-1,6.550203767E0
9.350717000E0,-1.217268384E0,5.265977858E0,3.754975180E-1,5.417865217E0
9.360684000E0,-1.564626908E0,3.886268853E0,8.445532639E-1,4.273688474E0
9.370650000E0,-1.512841335E0,2.683909991E0,1.356064181E0,3.366150889E0
9.380617000E0,-1.706228637E0,1.981161209E0,1.713142970E0,3.125871835E0
9.390584000E0,-1.822852523E0,1.625038294E0,2.008393592E0,3.161832633E0
9.400551000E0,-1.607369762E0,1.677120028E0,2.158992140E0,3.171374497E0
9.410517000E0,-9.517545077E-1,2.101682264E0,1.431333049E0,2.715072610E0
9.420484000E0,6.141564488E-2,2.732896210E0,1.007712069E-1,2.735443001E0
9.430451000E0,9.374797001E-1,3.200742459E0,-8.468569207E-1,3.441044481E0
9.440418000E0,1.277510201E0,3.475221287E0,-9.195283096E-1,3.815065873E0
9.450384000E0,1.306526716E0,3.751489947E0,3.568584949E-2,3.972651805E0
9.460351000E0,1.635419440E0,4.020647224E0,8.203645022E-1,4.417374646E0
9.470318000E0,1.760610374E0,4.241597131E0,8.185493803E-1,4.664859934E0
9.480285000E0,1.099338816E0,4.663138695E0,8.533984932E-1,4.866384419E0
9.490251000E0,1.026744464E0,4.883897399E0,8.954151231E-1,5.070347743E0
9.500218000E0,1.508883355E0,4.488716252E0,4.964610609E-1,4.761488859E0
9.510185000E0,2.045988996E0,3.696599795E0,-6.169397235E-2,4.225485435E0
9.520151000E0,2.204132499E0,2.553621747E0,-1.556180897E0,3.714953982E0
9.530118000E0,1.338582322E0,6.899170679E-1,-2.713016846E0,3.102941927E0
9.540085000E0,-9.002607107E-2,-2.069776347E0,-3.092732692E0,3.722509143E0
9.550052000E0,-1.575761468E0,-5.818799354E0,-2.988981744E0,6.728704332E0
9.560018000E0,-3.181013077E0,-9.740490054E0,-2.240688998E0,1.048888354E1
9.569985000E0,-3.534441595E0,-1.247611984E1,-7.574755052E-1,1.298921140E1
9.579952000E0,-2.844599371E0,-1.514854765E1,-7.574415913E-1,1.543191366E1
9.589919000E0,-8.879178232E-1,-1.675723596E1,-2.205842809E0,1.692510259E1
9.599885000E0,-2.035412845E-1,-1.681953454E1,-4.702574949E0,1.746574883E1
9.609852000E0,-1.261531515E0,-1.616638417E1,-7.549283996E0,1.788673050E1
9.619819000E0,-3.087942068E0,-1.494591356E1,-8.583800286E0,1.750992135E1
9.629786000E0,-3.982935899E0,-1.363640038E1,-5.822991807E0,1.535325462E1
9.639752000E0,-2.633650834E0,-1.249001867E1,-1.764996078E0,1.288611246E1
9.649719000E0,-1.057309906E0,-1.169566975E1,6.717047453E-2,1.174355597E1
9.659686000E0,-7.735483316E-1,-1.135528929E1,1.396478820E-1,1.138246341E1
9.669653000E0,-1.208953059E0,-1.099247774E1,-6.298866284E-1,1.107668234E1
9.679619000E0,-1.736258183E0,-9.883426995E0,-1.054747657E0,1.009005522E1
9.689586000E0,-2.305407443E0,-8.265890679E0,-6.691774325E-1,8.607418349E0
9.699553000E0,-2.792043428E0,-6.552156556E0,-4.117796373E-1,7.134130957E0
9.709520000E0,-3.076666590E0,-4.648285013E0,-7.686106503E-1,5.627005705E0
9.719486000E0,-3.377658155E0,-2.494867170E0,-8.564032312E-1,4.285599527E0
9.729453000E0,-3.709078046E0,-1.340924424E-1,-3.394542575E-1,3.726992075E0
9.739420000E0,-3.993209749E0,1.742812911E0,-8.054773450E-2,4.357706838E0
9.749387000E0,-3.562060333E0,3.453745049E0,-3.502480714E-1,4.973861919E0
9.759353000E0,-2.402852169E0,5.003998623E0,-4.785500161E-1,5.571598594E0
9.769320000E0,-7.559318402E-1,6.211858546E0,-1.202303021E-1,6.258839738E0
9.779287000E0,1.021674343E0,6.558203747E0,1.489461243E-1,6.638978822E0
9.789254000E0,2.580810716E0,6.729630661E0,1.014661485E0,7.278602250E0
9.799220000E0,3.805147214E0,7.405972833E0,1.912005751E0,8.543029025E0
9.809187000E0,4.849621021E0,8.282893213E0,2.480819235E0,9.913607219E0
9.819154000E0,5.579663436E0,9.306719039E0,2.969924791E0,1.125024962E1
9.829121000E0,5.856447237E0,1.020825737E1,3.245249126E0,1.220811757E1
9.839087000E0,5.695278093E0,1.074591469E1,3.035304848E0,1.253490928E1
9.849054000E0,5.419245075E0,1.098417002E1,2.543607806E0,1.250960227E1
9.859021000E0,5.252794726E0,1.115193833E1,1.900346256E0,1.247272612E1
9.868988000E0,5.278050020E0,1.141244816E1,1.268241194E0,1.263765092E1
9.878954000E0,5.242879018E0,1.157771386E1,7.155178591E-1,1.272961918E1
9.888921000E0,5.113157369E0,1.149370458E1,4.325946287E-1,1.258716653E1
9.898888000E0,5.054906237E0,1.124678485E1,3.630512079E-1,1.233588475E1
9.908855000E0,5.032659336E0,1.109058934E1,6.222842248E-1,1.219491983E1
9.918821000E0,5.391896478E0,1.092839928E1,1.202942925E0,1.224538811E1
9.928788000E0,5.879996898E0,1.075968372E1,1.860475262E0,1.240187588E1
9.938755250E0,6.107324363E0,1.055172632E1,2.307784921E0,1.240823156E1
9.948722250E0,6.215714784E0,1.022924068E1,2.326292674E0,1.219360951E1
9.958688250E0,6.201613054E0,9.887176230E0,2.077698154E0,1.185466524E1
9.968655250E0,5.975759672E0,9.520975054E0,1.781470170E0,1.138122601E1
9.978622250E0,5.496662210E0,9.057299623E0,1.561573784E0,1.070917759E1
9.988589250E0,4.929769975E0,8.661736654E0,1.504440640E0,1.007926860E1
9.998555250E0,4.394981000E0,8.414828033E0,1.656845831E0,9.636925180E0
1.000852225E1,4.102811714E0,8.300767567E0,1.954334914E0,9.463362569E0
1.001848925E1,3.891082573E0,8.186636934E0,1.889227337E0,9.259088930E0
1.002845625E1,3.588566054E0,7.685871445E0,9.544984598E-1,8.535894417E0
1.003842225E1,2.674548599E0,5.910262086E0,-1.386592348E0,6.633780707E0
1.004838925E1,9.514215088E-1,2.477884517E0,-3.825109316E0,4.655810976E0
1.005835625E1,-2.479122081E0,-2.880220901E0,-5.302210715E0,6.523431397E0
1.006832325E1,-7.626877717E0,-1.069121282E1,-5.867717160E0,1.438406757E1
1.007828925E1,-9.704063070E0,-1.722497813E1,-4.100911953E0,2.019124044E1
1.008825625E1,-9.718355420E0,-2.129877537E1,-3.137617381E0,2.362051878E1
1.009822325E1,-1.069239864E1,-2.328011375E1,1.190123855E0,2.564580823E1
1.010819025E1,-1.043957556E1,-2.590246601E1,6.108849317E-1,2.793377282E1
1.011815625E1,-2.858799919E0,-2.309049089E1,-4.210934625E0,2.364477695E1
1.012812325E1,3.275018470E0,-1.424498911E1,-5.759611498E0,1.571046102E1
1.013809025E1,-3.216252199E-1,-7.596498508E0,-3.791608571E0,8.496265528E0
1.014805725E1,-1.122006716E0,-4.144476049E0,-9.590094405E-1,4.399463592E0
1.015802325E1,-1.683066939E0,-3.966222510E0,-1.234180871E0,4.481834194E0
1.016799025E1,-3.133890073E0,-4.769336995E0,-2.152285237E0,6.099194546E0
1.017795725E1,-2.607782167E0,-4.935958083E0,-1.550805844E0,5.793894096E0
1.018792425E1,-1.838205265E0,-4.777715471E0,-9.466650912E-1,5.205933010E0
1.019789025E1,-1.215629702E0,-5.267727930E0,-1.104335554E0,5.517813891E0
1.020785725E1,-7.034025013E-1,-5.565599129E0,-1.263869816E0,5.750481341E0
1.021782425E1,2.436242402E-2,-5.373840861E0,-8.464040539E-1,5.440143284E0
1.022779125E1,7.165423644E-1,-4.899806503E0,-1.233268413E-1,4.953458008E0
1.023775725E1,1.036806937E0,-3.989417830E0,4.908749235E-1,4.151069915E0
1.024772425E1,9.184785882E-1,-2.894946529E0,7.203851545E-1,3.121421646E0
1.025769125E1,6.703019983E-1,-1.678097683E0,7.792277321E-1,1.967870031E0
1.026765825E1,5.494075987E-1,-2.223397905E-1,6.867893922E-1,9.071732807E-1
1.027762425E1,6.704122183E-1,1.330014104E0,4.116311181E-1,1.545260573E0
1.028759125E1,9.169226441E-1,2.779448817E0,-7.036188483E-2,2.927632774E0
1.029755825E1,1.268382112E0,4.082331841E0,-3.771854630E-1,4.291444432E0
1.030752525E1,1.701379541E0,5.440890883E0,-5.281740198E-1,5.725116046E0
1.031749125E1,1.955399254E0,6.617676362E0,-8.752989471E-1,6.955815906E0
1.032745825E1,1.961644665E0,7.333881342E0,-1.026653832E0,7.660801748E0
1.033742525E1,1.807297467E0,7.565074401E0,-9.282197571E-1,7.833151776E0
1.034739225E1,1.679004586E0,7.269522209E0,-5.156356890E-1,7.478695722E0
1.035735825E1,1.377516884E0,6.523791713E0,6.074555397E-2,6.667915799E0
1.036732525E1,1.029799926E0,5.457685840E0,5.782979603E-1,5.584017474E0
1.037729225E1,1.034263691E0,4.208852139E0,7.062502415E-1,4.391232983E0
1.038725925E1,1.265913126E0,2.841619338E0,4.876541309E-1,3.148832014E0
1.039722525E1,1.447884324E0,1.824386832E0,3.137534058E-1,2.350148406E0
1.040719225E1,1.494429330E0,1.168659604E0,2.950563490E-1,1.919932952E0
1.041715925E1,1.409112022E0,8.376095492E-1,5.129344216E-1,1.717640290E0
1.042712625E1,1.514452828E0,7.794408631E-1,7.755866709E-1,1.871531488E0
1.043709225E1,1.614699832E0,8.769969785E-1,1.050852242E0,2.116759240E0
1.044705925E1,1.711235900E0,1.280712136E0,1.361653973E0,2.534295449E0
1.045702625E1,1.835525193E0,1.869505702E0,1.433358671E0,2.986422841E0
1.046699325E1,1.902752970E0,2.353671530E0,8.166475734E-1,3.134828831E0
1.047695925E1,2.034787778E0,2.666384717E0,-5.130127743E-1,3.393103427E0
1.048692625E1,2.155353271E0,2.832854362E0,-2.004748146E0,4.085293953E0
1.049689325E1,1.725384408E0,2.662268862E0,-2.801773779E0,4.232559882E0
1.050686025E1,6.932540739E-1,2.310413829E0,-2.163385884E0,3.240193166E0
1.051682625E1,-3.730289698E-2,1.926090962E0,-6.932295156E-1,2.047384933E0
1.052679325E1,-7.562817961E-2,1.326408711E0,2.150541598E-1,1.345855855E0
1.053676025E1,4.986710161E-2,5.819523239E-1,2.808040532E-1,6.480788158E-1
1.054672725E1,-1.183496913E-1,8.181248724E-2,2.171612039E-1,2.604974491E-1
1.055669325E1,-2.041821393E-1,-2.344265699E-2,-5.993191391E-2,2.140834849E-1
1.056666025E1,-4.778198451E-2,2.147787559E-1,-4.151406169E-2,2.239116999E-1
1.057662725E1,1.946660882E-1,4.086449450E-1,6.342094749E-2,4.570643211E-1
1.058659425E1,2.202482414E-1,8.616749346E-2,-5.514827755E-1,6.000561444E-1
1.059656025E1,-3.223032045E-1,-8.299479425E-1,-1.513558788E0,1.756004883E0
1.060652725E1,-1.247820379E0,-2.183268464E0,-2.525288479E0,3.563818007E0
1.061649425E1,-2.042636203E0,-3.959644977E0,-3.635043232E0,5.750190458E0
1.062646125E1,-2.637567007E0,-5.981126831E0,-4.150136446E0,7.743014297E0
1.063642725E1,-3.063631684E0,-7.638154657E0,-2.924141969E0,8.733719249E0
1.064639425E1,-3.262526479E0,-8.676517246E0,-1.285359503E0,9.358321409E0
1.065636125E1,-3.522276170E0,-9.769854771E0,-1.170279575E0,1.045112654E1
1.066632825E1,-3.734424556E0,-1.090041333E1,-2.440592438E0,1.177800616E1
1.067629425E1,-3.841319844E0,-1.212887124E1,-3.786630836E0,1.327417903E1
1.068626125E1,-3.785649966E0,-1.353072716E1,-4.320384854E0,1.469957307E1
1.069622825E1,-3.250782346E0,-1.462990430E1,-4.360740875E0,1.560825893E1
1.070619525E1,-2.327548510E0,-1.490867148E1,-3.854688041E0,1.557384304E1
1.071616125E1,-1.486437063E0,-1.383777030E1,-2.225287725E0,1.409415792E1
1.072612825E1,-8.017360041E-1,-1.184532572E1,-5.311467442E-1,1.188430221E1
1.073609525E1,-5.426356459E-1,-9.559952009E0,1.321418113E-1,9.576251736E0
1.074606225E1,-8.844080320E-1,-7.519200071E0,-1.170913705E-1,7.571938831E0
1.075602825E1,-1.099342324E0,-5.904428903E0,-6.594714931E-1,6.041997755E0
1.076599525E1,-1.315895125E0,-4.516958889E0,-3.989976239E-1,4.721620134E0
1.077596225E1,-2.031532925E0,-2.994384279E0,5.500358820E-1,3.660055014E0
1.078592925E1,-2.584028146E0,-1.238587040E0,1.246589832E0,3.124945684E0
1.079589525E1,-2.912389358E0,6.104803044E-1,1.497467251E0,3.331231926E0
1.080586225E1,-2.866143730E0,2.076688925E0,1.440775133E0,3.821419861E0
1.081582925E1,-2.430377644E0,3.537576579E0,1.130825926E0,4.438462664E0
1.082579625E1,-1.770792423E0,4.815644020E0,7.240444882E-1,5.181734608E0
1.083576225E1,-8.587051338E-1,5.929117602E0,6.510817619E-1,6.026252360E0
1.084572925E1,1.386342672E-1,6.828913459E0,1.068784336E0,6.913434635E0
1.085569625E1,1.130878697E0,7.403908766E0,1.765969055E0,7.695154212E0
1.086566325E1,2.014350590E0,7.938472331E0,2.286028455E0,8.503109863E0
1.087562925E1,3.018471884E0,8.424685269E0,2.521334592E0,9.297506253E0
1.088559625E1,4.013586711E0,9.007839780E0,2.778888069E0,1.024559782E1
1.089556325E1,4.722751059E0,9.598182859E0,2.913736557E0,1.108690004E1
1.090553025E1,5.227438275E0,1.028976872E1,3.031662033E0,1.193299736E1
1.091549625E1,5.609034001E0,1.092294499E1,2.870601647E0,1.261000966E1
1.092546325E1,5.755014417E0,1.136076696E1,2.282563687E0,1.293821139E1
1.093542975E1,5.898948308E0,1.166488649E1,1.532322503E0,1.316112382E1
1.094539675E1,5.882825196E0,1.171616424E1,8.689384921E-1,1.313891894E1
1.095536275E1,5.702849652E0,1.149301811E1,4.300662196E-1,1.283732513E1
1.096532975E1,5.594795446E0,1.117943428E1,2.987985671E-1,1.250482976E1
1.097529675E1,5.582371867E0,1.087280395E1,4.886425296E-1,1.223190553E1
1.098526375E1,5.602626622E0,1.053599380E1,9.165150201E-1,1.196814899E1
1.099522975E1,5.715932212E0,1.005294947E1,1.269411953E0,1.163379048E1
1.100519675E1,5.587743704E0,9.560616252E0,1.436804873E0,1.116658726E1
1.101516375E1,5.295258375E0,9.224952160E0,1.538483276E0,1.074739198E1
1.102513075E1,5.089582565E0,8.978740527E0,1.545472891E0,1.043600108E1
1.103509675E1,5.052911167E0,8.837215104E0,1.527377075E0,1.029374387E1
1.104506375E1,5.077431466E0,8.629431957E0,1.365134236E0,1.010499865E1
1.105503075E1,4.817176867E0,8.266627429E0,1.346449166E0,9.662051923E0
1.106499775E1,4.272682392E0,7.987849143E0,1.571291857E0,9.194047360E0
1.107496375E1,3.792461972E0,7.684054715E0,1.627635627E0,8.722193669E0
1.108493075E1,3.213920037E0,6.899329138E0,8.060255215E-1,7.653737760E0
1.109489775E1,2.354672574E0,5.084157518E0,-1.554308034E0,5.814551923E0
1.110486475E1,1.076755114E0,1.937747971E0,-4.324652152E0,4.859720672E0
1.111483075E1,-1.891368149E0,-3.637952807E0,-7.087327062E0,8.187928858E0
1.112479775E1,-5.234383013E0,-9.565328524E0,-5.370386326E0,1.215464210E1
1.113476475E1,-7.280177005E0,-1.338023269E1,3.666800630E-1,1.523699637E1
1.114473175E1,-1.058207571E1,-1.798589267E1,8.618795872E-1,2.088577262E1
1.115469775E1,-1.280630977E1,-2.253387104E1,-2.006638404E0,2.599622110E1
1.116466475E1,-1.081654906E1,-2.527516035E1,-4.881406192E0,2.792238511E1
1.117463175E1,-4.074463828E0,-2.467321054E1,-9.260046564E0,2.666677777E1
1.118459875E1,2.201780456E0,-2.003037397E1,-9.719527202E0,2.237259322E1
1.119456475E1,3.425693616E-1,-1.331340370E1,-6.212643242E0,1.469561186E1
1.120453175E1,-9.974809036E-1,-8.512818012E0,-1.377396724E0,8.681028763E0
1.121449875E1,-2.063201737E-1,-6.436596864E0,8.807543993E-2,6.440504987E0
1.122446575E1,2.577628076E-2,-5.653497983E0,-1.493883785E0,5.847597166E0
1.123443175E1,4.812930912E-1,-4.848098406E0,-9.843220371E-1,4.970371320E0
1.124439875E1,-4.674290505E-1,-4.104879289E0,-3.937281132E-1,4.150125989E0
1.125436575E1,-1.274310604E0,-3.431027446E0,4.155382276E-2,3.660265506E0
1.126433275E1,-5.970518813E-1,-2.818477812E0,7.803311017E-1,2.984829100E0
1.127429875E1,7.255517542E-2,-2.563905246E0,1.037729920E0,2.766904001E0
1.128426575E1,6.524261829E-1,-2.379494589E0,9.540667892E-1,2.645354014E0
1.129423275E1,1.193085762E0,-1.867880761E0,6.996231535E-1,2.324199804E0
1.130419975E1,1.784576357E0,-7.865031302E-1,8.402761719E-1,2.123526311E0
1.131416575E1,2.019415155E0,5.944565946E-1,1.196670105E0,2.421453191E0
1.132413275E1,1.972096270E0,1.730140826E0,1.083725580E0,2.838487645E0
1.133409975E1,1.906524425E0,2.945641304E0,3.545086451E-1,3.526657689E0
1.134406675E1,1.850532949E0,4.393001425E0,-8.218001398E-1,4.837177812E0
1.135403275E1,1.615804078E0,5.745099878E0,-1.357936313E0,6.120538086E0
1.136399975E1,1.165465562E0,6.665210717E0,-1.180310766E0,6.868513477E0
1.137396675E1,5.473546413E-1,7.113288699E0,-1.010950842E0,7.205587750E0
1.138393375E1,-1.386383602E-1,7.164491597E0,-6.727000876E-1,7.197338803E0
1.139389975E1,-6.107963464E-1,6.900886252E0,-8.217676878E-2,6.928351626E0
1.140386675E1,-9.341119963E-1,6.301267151E0,3.702725923E-1,6.380880403E0
1.141383375E1,-1.103179851E0,5.322249708E0,6.707808852E-1,5.476613436E0
1.142380075E1,-9.151126385E-1,4.229023864E0,9.684601490E-1,4.433958620E0
1.143376675E1,-8.292579710E-1,2.956412460E0,8.277600606E-1,3.180130522E0
1.144373375E1,-9.571079260E-1,1.768685086E0,5.737499960E-1,2.091289453E0
1.145370075E1,-1.003813146E0,8.769004995E-1,4.408731897E-1,1.403910427E0
1.146366775E1,-8.393719000E-1,1.176886636E-1,4.560641098E-1,9.624917040E-1
1.147363375E1,-3.481227547E-1,-5.780259186E-1,8.828969653E-1,1.111220260E0
1.148360075E1,3.451816052E-2,-1.193549446E0,1.067811506E0,1.601865536E0
1.149356775E1,6.078356087E-1,-1.397263516E0,8.159614027E-1,1.728468244E0
1.150353475E1,1.513121709E0,-1.125920550E0,4.453474791E-1,1.937928990E0
1.151350075E1,2.264987980E0,-5.303038681E-1,5.420368910E-2,2.326871458E0
1.152346775E1,2.603843483E0,3.673121470E-1,-2.896862662E-1,2.645531559E0
1.153343475E1,2.573182438E0,1.382673544E0,-6.070779558E-1,2.983554530E0
1.154340175E1,2.299212026E0,2.211698211E0,-6.370577998E-1,3.253279508E0
1.155336775E1,1.740267034E0,2.734623477E0,-5.045916143E-1,3.280443203E0
1.156333475E1,1.153060402E0,2.959637200E0,-4.344834986E-1,3.205897153E0
1.157330175E1,7.981931761E-1,3.018976498E0,-3.017688064E-1,3.137259291E0
1.158326875E1,6.005789217E-1,2.888198842E0,2.581808835E-2,2.950093925E0
1.159323475E1,5.622670877E-1,2.680212797E0,2.968878432E-1,2.754601116E0
1.160320175E1,5.571420032E-1,2.507610008E0,3.169660123E-1,2.588239288E0
1.161316875E1,6.169961491E-1,2.435219139E0,3.968262604E-1,2.543314291E0
1.162313575E1,6.201141769E-1,2.406701099E0,4.557356425E-1,2.526746277E0
1.163310175E1,6.505992204E-1,2.168842798E0,-1.183125615E-2,2.264353861E0
1.164306875E1,6.010642406E-1,1.730429093E0,-6.158179352E-1,1.932587591E0
1.165303575E1,3.292032114E-1,1.205261419E0,-9.436128446E-1,1.565705925E0
1.166300275E1,-3.185153782E-2,6.395152384E-1,-8.883771220E-1,1.095083637E0
1.167296875E1,-2.897669578E-1,1.619854152E-1,-3.640678194E-1,4.926961961E-1
1.168293575E1,-5.154335216E-1,-2.510537124E-1,2.014231306E-1,6.076766897E-1
1.169290275E1,-6.865926334E-1,-9.242114908E-1,-1.633539560E-1,1.162867507E0
1.170286975E1,-8.276722062E-1,-1.753601024E0,-9.050001714E-1,2.139902601E0
1.171283575E1,-9.793606746E-1,-2.611444863E0,-1.603476101E0,3.217130276E0
1.172280275E1,-1.085254042E0,-3.729987981E0,-2.285270802E0,4.507000035E0
1.173276975E1,-1.151673734E0,-5.052737505E0,-2.584188067E0,5.790901195E0
1.174273675E1,-1.420896208E0,-6.949385982E0,-2.760242176E0,7.611297421E0
1.175270275E1,-2.185011226E0,-9.361695730E0,-2.510952276E0,9.935819158E0
1.176266975E1,-3.054182291E0,-1.181548270E1,-1.910028076E0,1.235240334E1
1.177263675E1,-4.176208888E0,-1.445066843E1,-1.867139042E0,1.515746506E1
1.178260375E1,-5.418922309E0,-1.683691948E1,-2.581737499E0,1.787489706E1
1.179256975E1,-5.533862196E0,-1.766621370E1,-3.440173369E0,1.882959187E1
1.180253675E1,-4.219627388E0,-1.619803632E1,-4.739848902E0,1.739677567E1
1.181250375E1,-3.258050435E0,-1.371662886E1,-5.008516767E0,1.496148522E1
1.182247075E1,-2.321586689E0,-1.186769834E1,-2.881861630E0,1.243129740E1
1.183243675E1,-1.461542543E0,-1.051050930E1,-7.720043743E-1,1.063968529E1
1.184240375E1,-1.041949563E0,-8.772179448E0,-9.372531205E-2,8.834340699E0
1.185237075E1,-1.320412099E0,-6.521965628E0,-1.289477697E-1,6.655535387E0
1.186233775E1,-1.981367615E0,-3.901473953E0,-1.895239006E-1,4.379867114E0
1.187230375E1,-2.549654119E0,-1.125841613E0,-1.700041406E-1,2.792338961E0
1.188227075E1,-3.144895995E0,1.229629106E0,1.168965121E-1,3.378760624E0
1.189223775E1,-3.275749957E0,2.992975100E0,3.829655819E-1,4.453661456E0
1.190220475E1,-2.684168438E0,4.498170031E0,6.322823788E-1,5.276179947E0
1.191217075E1,-1.971697783E0,5.221065980E0,6.115123379E-1,5.614362782E0
1.192213775E1,-4.205814511E-1,5.625747097E0,8.113644679E-1,5.699493965E0
1.193210463E1,1.513041602E0,6.020030111E0,1.403501180E0,6.363951052E0
1.194207163E1,3.105362678E0,6.411477225E0,1.888374667E0,7.369957697E0
1.195203863E1,4.243626408E0,6.776303136E0,2.330093218E0,8.328023997E0
1.196200463E1,4.921094461E0,7.308222590E0,2.798345264E0,9.244350942E0
1.197197162E1,5.152723138E0,8.075210638E0,2.825676320E0,9.987193262E0
1.198193863E1,5.226903840E0,8.822295933E0,2.717982302E0,1.060852756E1
1.199190563E1,5.465131100E0,9.541592921E0,2.564842554E0,1.129106154E1
1.200187163E1,5.726851303E0,1.018460655E1,2.306206173E0,1.190972810E1
1.201183863E1,5.901791809E0,1.063033629E1,1.927228392E0,1.231054042E1
1.202180563E1,5.955020767E0,1.092018043E1,1.374492120E0,1.251406575E1
1.203177263E1,5.814444348E0,1.120763891E1,6.474095643E-1,1.264270826E1
1.204173863E1,5.455836951E0,1.131755721E1,5.420602798E-2,1.256408358E1
1.205170563E1,5.135403686E0,1.133923868E1,-2.370882225E-1,1.245017734E1
1.206167263E1,4.936088476E0,1.117583473E1,-1.337796164E-1,1.221810740E1
1.207163963E1,4.848978704E0,1.087937856E1,1.756163713E-1,1.191235969E1
1.208160563E1,4.858666078E0,1.040895135E1,5.820283377E-1,1.150181122E1
1.209157263E1,4.986207885E0,9.885838387E0,9.621746115E-1,1.111385845E1
1.210153963E1,5.137642584E0,9.560368915E0,1.312387819E0,1.093244652E1
1.211150663E1,5.086919158E0,9.366459457E0,1.655715126E0,1.078650554E1
1.212147263E1,5.048781863E0,9.216830962E0,1.982693764E0,1.069444930E1
1.213143963E1,5.163818815E0,9.103382115E0,2.149492753E0,1.068442370E1
1.214140663E1,5.243219910E0,8.909624099E0,2.194044882E0,1.056818762E1
1.215137363E1,5.104935014E0,8.682373232E0,2.129340617E0,1.029456448E1
1.216133963E1,4.869460331E0,8.430801457E0,2.014411401E0,9.942228644E0
1.217130663E1,4.639777899E0,8.018521298E0,1.826298141E0,9.442435473E0
1.218127362E1,4.274601448E0,7.101443995E0,8.358148925E-1,8.330744918E0
1.219124063E1,3.207034063E0,4.542153372E0,-2.666268357E0,6.166458602E0
1.220120663E1,6.473417366E-1,-2.133847797E-1,-5.953198775E0,5.992091458E0
1.221117363E1,-4.531574881E0,-7.673166615E0,-6.208285897E0,1.086073067E1
1.222114063E1,-9.718537853E0,-1.524179203E1,-3.345518642E0,1.838354420E1
1.223110763E1,-1.185838723E1,-2.053538629E1,-1.758987187E0,2.377850865E1
1.224107363E1,-1.286235299E1,-2.373052711E1,-3.396515133E0,2.720504285E1
1.225104063E1,-1.221205607E1,-2.477090115E1,2.709988573E-1,2.761893006E1
1.226100763E1,-7.590989846E0,-2.527351611E1,-3.223929593E-1,2.639086358E1
1.227097463E1,-5.797280431E-2,-2.080895412E1,-5.727713767E0,2.158292467E1
1.228094063E1,4.115772944E0,-1.319803813E1,-8.369760618E0,1.616108568E1
1.229090763E1,8.462727839E-1,-6.446990874E0,-5.501172752E0,8.517204389E0
1.230087463E1,-1.592709623E0,-2.826148190E0,-1.540504512E0,3.591238183E0
1.231084163E1,-1.855555415E0,-2.589023130E0,1.092979384E0,3.367600125E0
1.232080763E1,-3.443024471E0,-3.115621617E0,2.136203640E0,5.111250489E0
1.233077463E1,-3.684204575E0,-3.137799522E0,6.654590419E-1,4.884873072E0
1.234074162E1,-2.989703583E0,-3.085029570E0,-1.485677802E0,4.545654352E0
1.235070863E1,-2.304713086E0,-3.605700150E0,-1.861906368E0,4.666848113E0
1.236067463E1,-1.515345990E0,-4.103915668E0,-1.288422275E0,4.560529491E0
1.237064163E1,-3.929714835E-1,-4.249389716E0,-6.755323327E-1,4.320657760E0
1.238060863E1,4.985669357E-1,-4.014467887E0,-3.564126447E-1,4.060979115E0
1.239057563E1,1.096884154E0,-3.192982619E0,-1.418607607E-1,3.379114874E0
1.240054163E1,1.400893760E0,-1.934696894E0,3.113768050E-1,2.408840160E0
1.241050863E1,1.347203164E0,-6.189154977E-1,5.164842662E-1,1.569958202E0
1.242047563E1,1.400866570E0,7.755279064E-1,4.481203750E-1,1.662733458E0
1.243044263E1,1.680139238E0,2.126804241E0,1.954199405E-1,2.717416621E0
1.244040862E1,1.954530942E0,3.394422122E0,3.951314449E-2,3.917123184E0
1.245037563E1,2.244322751E0,4.661654087E0,-6.290098384E-2,5.174162732E0
1.246034263E1,2.455953658E0,5.878621632E0,-1.701143606E-1,6.373291109E0
1.247030963E1,2.334027810E0,6.746605713E0,-1.060988975E-1,7.139722084E0
1.248027563E1,1.970733284E0,7.094845412E0,-1.084155643E-1,7.364263373E0
1.249024263E1,1.548216990E0,7.112568322E0,-2.286964448E-1,7.282712822E0
1.250020962E1,1.116615876E0,6.657553788E0,-2.769277878E-1,6.756222499E0
1.251017663E1,9.659027231E-1,5.724959144E0,-1.490898196E-1,5.807783833E0
1.252014263E1,9.191589117E-1,4.466059461E0,8.855169564E-3,4.559673084E0
1.253010963E1,9.318184260E-1,3.099562240E0,1.376588054E-1,3.239524904E0
1.254007663E1,1.007768495E0,1.826762556E0,-7.901678726E-2,2.087798464E0
1.255004363E1,9.999352723E-1,8.522153091E-1,-2.504220669E-1,1.337479979E0
1.256000963E1,8.915922135E-1,2.324315000E-1,4.455929160E-2,9.224676731E-1
1.256997663E1,8.610612693E-1,-4.958848178E-2,3.770658875E-1,9.413098377E-1
1.257994363E1,8.382729158E-1,2.271935642E-2,8.283048749E-1,1.178688515E0
1.258991063E1,7.273962584E-1,4.639023024E-1,1.393536501E0,1.638979757E0
1.259987662E1,6.897512993E-1,1.118822030E0,1.381816196E0,1.907075140E0
1.260984363E1,7.336413771E-1,1.702749544E0,5.604790092E-1,1.936936343E0
1.261981063E1,8.650639808E-1,2.171765236E0,-5.734889178E-1,2.407029180E0
1.262977763E1,1.030596025E0,2.660630472E0,-1.268522007E0,3.122535949E0
1.263974363E1,1.067818230E0,3.087262622E0,-1.119573251E0,3.453240584E0
1.264971063E1,1.094354064E0,3.364948062E0,-4.782276884E-1,3.570600510E0
1.265967763E1,1.219253222E0,3.543097520E0,1.753530273E-1,3.751115453E0
1.266964463E1,1.261011697E0,3.543852396E0,1.404100665E-1,3.764140711E0
1.267961063E1,1.024926857E0,3.467912852E0,-3.280995494E-1,3.631052730E0
1.268957763E1,6.875688261E-1,3.342408215E0,-8.335656148E-1,3.512730448E0
1.269954463E1,-1.259192044E-1,3.016120133E0,-4.981079292E-1,3.059566606E0
1.270951162E1,-6.139439026E-1,2.634501019E0,3.588287142E-1,2.728787420E0
1.271947863E1,-4.438112694E-1,1.566120579E0,1.515425804E-1,1.634829430E0
1.272944463E1,-2.142045593E-1,-4.198745227E-1,-5.718237770E-1,7.410537362E-1
1.273941163E1,9.240939617E-2,-2.640157031E0,-7.941688299E-1,2.758563535E0
1.274937863E1,2.103538755E-1,-5.116021335E0,-1.291927096E0,5.280814206E0
1.275934563E1,-2.401714593E-1,-7.778900646E0,-1.968742307E0,8.027759579E0
1.276931163E1,-1.141104307E0,-1.035089084E1,-2.046477824E0,1.061278152E1
1.277927863E1,-2.705131291E0,-1.262642836E1,-2.556802925E0,1.316364956E1
1.278924563E1,-3.866754063E0,-1.389375154E1,-2.025047778E0,1.456327358E1
1.279921263E1,-4.623956796E0,-1.429834612E1,-1.202349214E0,1.507545429E1
1.280917863E1,-5.155361402E0,-1.513998265E1,-1.974120869E0,1.611502340E1
1.281914563E1,-5.514337174E0,-1.588335555E1,-3.744712440E0,1.722532349E1
1.282911263E1,-5.110700954E0,-1.517440989E1,-4.187746322E0,1.655050449E1
1.283907963E1,-4.256149974E0,-1.360333555E1,-2.877189997E0,1.454110632E1
1.284904563E1,-3.133404754E0,-1.227782087E1,-1.443856762E0,1.275334596E1
1.285901263E1,-2.186270716E0,-1.090451223E1,-1.009361569E0,1.116722783E1
1.286897962E1,-1.672906525E0,-8.972890972E0,-1.342441192E0,9.225699811E0
1.287894663E1,-1.744033518E0,-6.781817645E0,-1.173038876E0,7.100050964E0
1.288891263E1,-2.094383477E0,-4.464293017E0,-6.525691473E-1,4.974153273E0
1.289887963E1,-2.509021818E0,-2.282541906E0,-2.930330662E-1,3.404564056E0
1.290884663E1,-2.987800021E0,-3.936351424E-1,-3.049206018E-2,3.013772944E0
1.291881363E1,-3.446470235E0,1.312056136E0,1.928095973E-1,3.692807052E0
1.292877963E1,-2.950715226E0,3.139930247E0,4.763175492E-1,4.335061788E0
1.293874638E1,-2.352524599E0,4.260339212E0,5.620742027E-1,4.899060073E0
1.294871338E1,-1.491244059E0,5.178400016E0,6.910087430E-1,5.432966837E0
1.295868038E1,-3.401579699E-1,5.687278517E0,-6.028011560E-2,5.697760794E0
1.296864637E1,9.705179304E-1,5.688641503E0,-6.706452298E-1,5.809674021E0
1.297861338E1,2.205433504E0,6.077199508E0,1.269290185E-1,6.466250983E0
1.298858038E1,3.371364504E0,6.708490053E0,1.389712422E0,7.635524738E0
1.299854738E1,4.327034015E0,7.446899250E0,1.880647133E0,8.815688597E0
1.300851338E1,5.026389366E0,8.148656344E0,2.074488179E0,9.796361135E0
1.301848038E1,5.478938130E0,8.809992222E0,2.416911507E0,1.065252023E1
1.302844738E1,5.793554585E0,9.432974458E0,2.486751820E0,1.134593392E1
1.303841438E1,6.194078332E0,1.001851639E1,2.223763940E0,1.198675949E1
1.304838038E1,6.773225162E0,1.046340998E1,1.888233165E0,1.260654401E1
1.305834738E1,7.213939746E0,1.078421863E1,1.622632749E0,1.307567341E1
1.306831438E1,7.302215161E0,1.101042168E1,1.304879848E0,1.327608539E1
1.307828137E1,7.173861176E0,1.105112649E1,1.002243168E0,1.321348448E1
1.308824838E1,6.896854012E0,1.096807147E1,7.881181312E-1,1.298022793E1
1.309821438E1,6.655375115E0,1.086762332E1,5.357709051E-1,1.275485417E1
1.310818138E1,6.599292716E0,1.064928010E1,2.344441116E-1,1.253047465E1
1.311814838E1,6.407045621E0,1.010657663E1,2.253727778E-1,1.196845510E1
1.312811538E1,5.869793506E0,9.573759039E0,4.863796206E-1,1.124045831E1
1.313808138E1,5.457874120E0,9.312194957E0,8.919915783E-1,1.083055926E1
1.314804838E1,5.267837858E0,9.228028380E0,1.535623841E0,1.073614289E1
1.315801538E1,5.210353296E0,9.078089983E0,2.140742834E0,1.068373900E1
1.316798238E1,5.188662465E0,8.954022008E0,2.411920323E0,1.062610408E1
1.317794837E1,5.033362171E0,8.745683960E0,2.259316181E0,1.034051412E1
1.318791538E1,4.782359329E0,8.462293391E0,1.857324783E0,9.896010587E0
1.319788238E1,4.433327333E0,8.162681476E0,1.556594296E0,9.418425873E0
1.320784938E1,3.866363177E0,7.789582340E0,1.318873550E0,8.795782210E0
1.321781538E1,2.843698315E0,6.898606423E0,-2.399149127E-1,7.465584361E0
1.322778238E1,9.376840603E-1,4.573374580E0,-5.393035516E0,7.133010480E0
1.323774937E1,-1.751713835E0,9.635685146E-1,-1.034321695E1,1.053466196E1
1.324771638E1,-5.780186681E0,-6.140549412E0,-1.289473370E1,1.540750020E1
1.325768238E1,-6.851287830E0,-1.235897438E1,-7.342824658E0,1.592486944E1
1.326764938E1,-6.153668225E0,-1.512118151E1,8.865662393E-1,1.634942698E1
1.327761638E1,-7.417469628E0,-1.769132983E1,3.316948561E0,1.946802904E1
1.328758338E1,-8.728843979E0,-2.217636760E1,2.021885604E0,2.391802706E1
1.329754938E1,-8.128851825E0,-2.513935058E1,-1.591202796E0,2.646879494E1
1.330751638E1,-4.264528157E0,-2.443975929E1,-6.360964884E0,2.561151906E1
1.331748338E1,3.670741653E-1,-1.883933473E1,-8.683747913E0,2.074759635E1
1.332745038E1,-8.588369885E-1,-1.158202209E1,-7.668840845E0,1.391732577E1
1.333741637E1,-4.259679938E0,-6.741170726E0,-4.428281186E0,9.121289941E0
1.334738338E1,-4.965267252E0,-4.766008760E0,-1.776726762E0,7.108127487E0
1.335735038E1,-4.497322477E0,-3.345471572E0,3.343247876E-1,5.615145818E0
1.336731738E1,-3.368208762E0,-2.610319274E0,1.027711301E0,4.383467520E0
1.337728338E1,-2.466873918E0,-2.601505181E0,3.977895892E-1,3.607150218E0
1.338725038E1,-1.758067420E0,-2.935780560E0,-4.830183122E-1,3.455852317E0
1.339721738E1,-1.206265094E0,-3.429934017E0,-1.203228050E0,3.829788582E0
1.340718438E1,-5.786284742E-1,-3.847859663E0,-1.283808821E0,4.097438222E0
1.341715038E1,-1.710214099E-1,-4.219100554E0,-8.022672236E-1,4.298103129E0
1.342711738E1,2.169705847E-1,-4.236563848E0,-1.029080719E-2,4.242128637E0
1.343708438E1,7.092424080E-1,-3.732757223E0,6.429250422E-1,3.853550815E0
1.344705137E1,1.199988985E0,-2.887114184E0,7.428910875E-1,3.213609971E0
1.345701738E1,1.591229693E0,-1.654199528E0,6.126674554E-1,2.375657682E0
1.346698438E1,1.992494282E0,-8.885078073E-2,5.400473759E-1,2.066295984E0
1.347695138E1,2.537914957E0,1.673056213E0,3.679898393E-1,3.061951329E0
1.348691838E1,2.956896610E0,3.359597275E0,-2.814469546E-2,4.475591976E0
1.349688538E1,3.210483336E0,4.907144174E0,-2.052018937E-1,5.867654984E0
1.350685138E1,3.312283653E0,6.238911273E0,-8.984831572E-2,7.064227459E0
1.351681838E1,3.175989149E0,7.297404072E0,2.102644131E-2,7.958608884E0
1.352678538E1,2.741509451E0,7.916100883E0,1.043260217E-2,8.377388382E0
1.353675238E1,2.135785272E0,7.956469476E0,2.355974749E-2,8.238175787E0
1.354671838E1,1.742346303E0,7.672852035E0,2.388996899E-1,7.871816947E0
1.355668538E1,1.422941856E0,7.234768113E0,4.259499259E-1,7.385666288E0
1.356665238E1,7.890761974E-1,6.478997363E0,4.858781853E-1,6.544931298E0
1.357661938E1,-2.057047543E-1,5.245394490E0,5.180190141E-1,5.274923838E0
1.358658538E1,-1.148027703E0,3.775208008E0,4.858230753E-1,3.975699583E0
1.359655238E1,-1.550512022E0,2.173034667E0,5.153246172E-1,2.718773005E0
1.360651937E1,-1.365140375E0,6.357350135E-1,5.347011204E-1,1.598021445E0
1.361648638E1,-9.959199893E-1,-5.637183666E-1,5.395132327E-1,1.265191507E0
1.362645238E1,-4.874086940E-1,-1.253906745E0,4.764534970E-1,1.427185095E0
1.363641938E1,2.263018638E-1,-1.410734916E0,2.226282044E-1,1.446011361E0
1.364638638E1,1.043013757E0,-9.153547132E-1,-1.428930867E-1,1.395052107E0
1.365635338E1,2.084833804E0,3.351857901E-2,-5.474408877E-1,2.155770630E0
1.366631938E1,2.741603006E0,9.122188514E-1,-8.115632732E-1,3.001193966E0
1.367628638E1,3.054458572E0,1.689410291E0,-8.442079858E-1,3.591171316E0
1.368625338E1,3.054762335E0,2.364239788E0,-8.457598369E-1,3.954303023E0
1.369622038E1,2.733045022E0,2.937819484E0,-6.446312597E-1,4.063971933E0
1.370618637E1,2.202439437E0,3.302379346E0,-1.866745524E-1,3.973826394E0
1.371615338E1,1.537573595E0,3.498023674E0,3.110973081E-1,3.833677571E0
1.372612038E1,9.931966487E-1,3.699102988E0,5.527877279E-1,3.869803196E0
1.373608738E1,8.631244594E-1,3.793447813E0,4.870590305E-1,3.920772455E0
1.374605338E1,9.840358159E-1,3.489058723E0,-3.185013449E-1,3.639134563E0
1.375602038E1,1.200697375E0,2.600585414E0,-1.231462208E0,3.117886761E0
1.376598738E1,1.073471611E0,1.345651898E0,-1.697453428E0,2.417533551E0
1.377595438E1,5.074058792E-1,6.397321701E-2,-1.751585781E0,1.824720814E0
1.378592138E1,-2.085614115E-1,-1.444423649E0,-1.823129681E0,2.335307126E0
1.379588738E1,-8.243290606E-1,-3.193236389E0,-2.077714527E0,3.897842312E0
1.380585438E1,-1.244499452E0,-4.824447003E0,-1.833959309E0,5.309187746E0
1.381582137E1,-1.896621580E0,-6.421038008E0,-1.675340720E0,6.901714935E0
1.382578838E1,-3.230121502E0,-7.903342844E0,-1.563869109E0,8.679988457E0
1.383575438E1,-4.595372390E0,-9.549251604E0,-1.580812293E0,1.071469183E1
1.384572138E1,-4.991322445E0,-1.224855790E1,-2.242914741E0,1.341533216E1
1.385568838E1,-5.132110534E0,-1.566648817E1,-3.183484695E0,1.679023481E1
1.386565538E1,-5.742175686E0,-1.938994247E1,-4.839297177E0,2.079329814E1
1.387562138E1,-6.388601164E0,-2.199716915E1,-6.098371106E0,2.370400400E1
1.388558838E1,-5.829033151E0,-2.160587816E1,-4.958249424E0,2.292107842E1
1.389555538E1,-4.053174408E0,-1.814082752E1,-2.494399101E0,1.875472934E1
1.390552238E1,-2.393712971E0,-1.395560105E1,-5.343749920E-1,1.416948197E1
1.391548838E1,-2.162815196E0,-1.057270847E1,4.651270017E-1,1.080167937E1
1.392545538E1,-2.831487575E0,-7.568076362E0,3.116158099E-1,8.086421095E0
1.393542304E1,-3.289498223E0,-4.677029926E0,1.508895926E-1,5.719980345E0
1.394539004E1,-3.420022109E0,-1.957761236E0,1.335737944E-1,3.942996607E0
1.395535604E1,-3.798220310E0,5.950413162E-1,-1.780278361E-1,3.848668030E0
1.396532304E1,-3.861912276E0,2.640156446E0,-3.515499540E-1,4.691308971E0
1.397529004E1,-2.912133250E0,4.394750327E0,2.803060167E-1,5.279481222E0
1.398525704E1,-1.883603924E0,5.795709869E0,9.767329359E-1,6.171889812E0
1.399522304E1,-1.383081679E0,6.244312347E0,9.436609380E-1,6.464893470E0
1.400519004E1,-6.183869094E-2,6.242326632E0,6.451463994E-1,6.275880789E0
1.401515704E1,1.200179897E0,6.468139669E0,7.806911440E-1,6.624706878E0
1.402512404E1,2.309163110E0,7.514432836E0,1.672778471E0,8.037233537E0
1.403509104E1,3.405520722E0,8.790167238E0,2.282089916E0,9.699100259E0
1.404505704E1,4.322986280E0,9.457746772E0,2.249366559E0,1.063940009E1
1.405502404E1,4.976396257E0,9.815271850E0,2.095730821E0,1.120250726E1
1.406499104E1,5.503376568E0,1.028986462E1,2.096833899E0,1.185601872E1
1.407495804E1,5.932490861E0,1.074671693E1,2.112618896E0,1.245590347E1
1.408492404E1,6.361262507E0,1.101982400E1,1.977770262E0,1.287686907E1
1.409489104E1,6.587783641E0,1.101940768E1,1.584349859E0,1.293585727E1
1.410485804E1,6.461763280E0,1.093520544E1,9.317163920E-1,1.273582341E1
1.411482504E1,6.268850772E0,1.082271319E1,2.987892115E-1,1.251075081E1
1.412479104E1,6.179570221E0,1.062099712E1,1.918447336E-1,1.228940488E1
1.413475804E1,6.085541731E0,1.040408413E1,4.385409547E-1,1.206114020E1
1.414472504E1,6.104184408E0,1.021936591E1,7.641318293E-1,1.192813499E1
1.415469204E1,6.344486260E0,9.951605530E0,1.121263316E0,1.185513349E1
1.416465804E1,6.497662261E0,9.729182709E0,1.474162588E0,1.179193650E1
1.417462504E1,6.479429473E0,9.501131943E0,1.818833731E0,1.164313835E1
1.418459204E1,6.412119250E0,9.239105930E0,2.315223895E0,1.148201260E1
1.419455904E1,6.314306442E0,9.004079436E0,2.881565176E0,1.136869958E1
1.420452504E1,6.165361487E0,8.755079266E0,3.205976887E0,1.117771815E1
1.421449204E1,6.140862823E0,8.549454911E0,3.099617203E0,1.097319472E1
1.422445904E1,6.165994740E0,8.399331742E0,2.579770496E0,1.073422008E1
1.423442604E1,6.107589827E0,8.207830167E0,2.069681476E0,1.043813733E1
1.424439204E1,5.860617471E0,8.001629276E0,1.751717197E0,1.007181321E1
1.425435904E1,5.511470869E0,7.857626973E0,1.527186455E0,9.718585867E0
1.426432604E1,5.120345936E0,7.649805819E0,1.250559068E0,9.289853042E0
1.427429304E1,4.558213334E0,6.549500166E0,-1.369900886E0,8.096288635E0
1.428425904E1,3.256355912E0,4.114397972E0,-5.811181601E0,7.829556571E0
1.429422604E1,1.333026297E0,1.487353907E0,-6.131823027E0,6.448909550E0
1.430419304E1,-4.292100410E0,-6.927613290E0,-9.894003439E0,1.281816117E1
1.431416004E1,-9.370665944E0,-1.464779327E1,-7.987997078E0,1.913570812E1
1.432412704E1,-1.002808711E1,-1.854863573E1,-4.394326989E0,2.153890731E1
1.433409304E1,-1.082946439E1,-2.041775668E1,-2.092050438E0,2.320643794E1
1.434406004E1,-1.313659208E1,-2.205655815E1,4.263646397E0,2.602384464E1
1.435402704E1,-1.590038381E1,-2.796565372E1,2.495325007E0,3.226649408E1
1.436399404E1,-8.920791696E0,-2.785461041E1,-6.235227528E0,2.990548291E1
1.437396004E1,-7.711901495E-1,-1.654030426E1,-1.087849914E1,1.981207063E1
1.438392704E1,-2.073811510E0,-7.460374158E0,-5.277962312E0,9.370953149E0
1.439389404E1,-5.953672984E-1,-4.027414792E0,-1.205995537E0,4.246051973E0
1.440386104E1,1.342594973E0,-3.642004343E0,-1.355580178E0,4.111490546E0
1.441382704E1,1.159958654E0,-4.610702620E0,-2.834029944E0,5.534962371E0
1.442379404E1,7.734328490E-1,-5.783689747E0,-2.258458979E0,6.256988287E0
1.443376104E1,4.768880913E-1,-6.041180075E0,-5.750865233E-1,6.087199969E0
1.444372804E1,-7.037322843E-1,-6.109642784E0,4.428608045E-1,6.165963004E0
1.445369404E1,-1.380676135E0,-5.779839356E0,7.163520375E-1,5.985479915E0
1.446366104E1,-1.058321182E0,-5.026720319E0,7.232333332E-1,5.187583960E0
1.447362804E1,-1.998815122E-1,-4.185673776E0,5.527182922E-1,4.226738115E0
1.448359504E1,8.166999060E-1,-3.138525746E0,2.853438315E-1,3.255574250E0
1.449356204E1,1.662491464E0,-2.030424001E0,7.672795317E-1,2.734084375E0
1.450352804E1,2.160599101E0,-8.867963272E-1,1.494968151E0,2.772999454E0
1.451349504E1,2.291642513E0,3.565912771E-1,1.223109753E0,2.621980208E0
1.452346204E1,2.349313893E0,1.761452665E0,6.722882974E-1,3.012301913E0
1.453342904E1,2.371121961E0,3.141881463E0,-3.359020740E-2,3.936339262E0
1.454339504E1,2.560264477E0,4.560075088E0,-6.050850785E-1,5.264538626E0
1.455336204E1,2.451555382E0,5.811532434E0,-8.551083653E-1,6.365158548E0
1.456332904E1,1.789664604E0,6.588974134E0,-7.710887003E-1,6.871103064E0
1.457329604E1,9.563767317E-1,6.950737274E0,-5.761447231E-1,7.039840044E0
1.458326204E1,8.336053759E-2,7.071396908E0,-1.297367053E-1,7.073078171E0
1.459322904E1,-6.922004056E-1,6.941313901E0,4.565763259E-1,6.990668209E0
1.460319604E1,-1.375631450E0,6.740719905E0,8.758250503E-1,6.935181054E0
1.461316304E1,-1.899962972E0,6.471732198E0,1.062214551E0,6.827992142E0
1.462312904E1,-2.070754001E0,5.914606567E0,9.485424860E-1,6.338006455E0
1.463309604E1,-2.132343308E0,4.931635821E0,6.020841412E-1,5.406516917E0
1.464306304E1,-1.851969610E0,3.705660056E0,3.328644454E-1,4.156020528E0
1.465303004E1,-1.187719188E0,2.656744412E0,1.091020274E-1,2.912193502E0
1.466299604E1,-5.419810501E-1,1.803391235E0,-1.112271979E-2,1.883105711E0
1.467296304E1,8.047932208E-2,1.112415821E0,-2.649007961E-2,1.115637757E0
1.468293004E1,7.187955889E-1,4.958503193E-1,-1.394362128E-1,8.842946880E-1
1.469289704E1,1.343947434E0,9.867585719E-2,-2.302013719E-1,1.367086063E0
1.470286404E1,2.156222752E0,9.049150944E-2,-3.281223536E-1,2.182922250E0
1.471283004E1,3.008842689E0,3.295496589E-1,-5.905826680E-1,3.083913940E0
1.472279704E1,3.797272184E0,8.254479253E-1,-6.719645078E-1,3.943624807E0
1.473276404E1,4.259667367E0,1.267102157E0,-7.785683124E-1,4.511815884E0
1.474273104E1,4.091057349E0,1.556997753E0,-9.138031545E-1,4.471691899E0
1.475269704E1,3.423927757E0,1.840091869E0,-5.552188540E-1,3.926510836E0
1.476266404E1,2.477880717E0,2.109832113E0,2.294510280E-1,3.262503972E0
1.477263104E1,1.684618790E0,2.502462704E0,9.006337631E-1,3.148237797E0
1.478259804E1,1.229789027E0,2.748542774E0,9.349379155E-1,3.152931547E0
1.479256404E1,1.084013848E0,2.672390977E0,4.012245360E-1,2.911656003E0
1.480253104E1,9.797667637E-1,2.459768089E0,-4.942300558E-2,2.648177599E0
1.481249804E1,7.787242869E-1,2.118263798E0,-2.361880437E-1,2.269193210E0
1.482246504E1,6.300863108E-1,1.796544730E0,-5.308932674E-1,1.976468919E0
1.483243104E1,5.216739625E-1,1.135091908E0,-1.121430473E0,1.678744671E0
1.484239804E1,3.321601483E-1,8.125875592E-2,-1.387753605E0,1.429263243E0
1.485236504E1,1.107635137E-1,-1.184927727E0,-1.407272195E0,1.843023957E0
1.486233204E1,-2.876590365E-1,-2.751719567E0,-1.562612250E0,3.177493562E0
1.487229804E1,-9.889667729E-1,-4.611228284E0,-2.155384262E0,5.185283298E0
1.488226504E1,-2.163828810E0,-6.367759933E0,-2.341258769E0,7.121236852E0
1.489223204E1,-3.632542378E0,-7.978006525E0,-2.404965645E0,9.089984158E0
1.490219904E1,-4.737175263E0,-9.670586007E0,-2.533559366E0,1.106254881E1
1.491216504E1,-5.280352653E0,-1.122158218E1,-2.438454988E0,1.263930747E1
1.492213204E1,-5.862046530E0,-1.307795503E1,-2.404032137E0,1.453189141E1
1.493209904E1,-6.712375528E0,-1.565420083E1,-3.514839389E0,1.739149461E1
1.494206529E1,-7.121203490E0,-1.760799765E1,-4.861537938E0,1.960580709E1
1.495203229E1,-6.439615781E0,-1.812283213E1,-5.457112813E0,1.999214286E1
1.496199829E1,-5.287459359E0,-1.702050802E1,-4.856331578E0,1.847265211E1
1.497196529E1,-3.566797455E0,-1.445223782E1,-2.873671727E0,1.516071276E1
1.498193229E1,-2.298176191E0,-1.167993957E1,-6.874808255E-1,1.192372559E1
1.499189929E1,-1.918023851E0,-9.225172015E0,1.284665439E-1,9.423328385E0
1.500186529E1,-1.893344508E0,-6.726422879E0,-1.262533727E-1,6.988952574E0
1.501183229E1,-2.121440005E0,-4.020684646E0,-1.400282434E-1,4.548188720E0
1.502179929E1,-2.755420562E0,-1.707689272E0,2.155786550E-1,3.248848916E0
1.503176629E1,-3.211711251E0,2.475471371E-1,6.549502797E-1,3.287145968E0
1.504173229E1,-2.864701514E0,1.859106429E0,9.021261187E-1,3.532226354E0
1.505169929E1,-2.317300680E0,3.287439126E0,1.551938889E0,4.311108066E0
1.506166629E1,-2.039756742E0,4.693462940E0,1.068735366E0,5.227943881E0
1.507163329E1,-1.306676697E0,5.131248069E0,3.073109436E-1,5.303918434E0
1.508160029E1,5.163880795E-1,5.046048290E0,5.209414525E-1,5.099082270E0
1.509156629E1,2.093532122E0,5.494478275E0,1.156199333E0,5.992408961E0
1.510153329E1,3.289825959E0,6.604349388E0,1.679356588E0,7.567075011E0
1.511150029E1,4.373470556E0,7.775325074E0,1.955621302E0,9.132764060E0
1.512146729E1,5.297553408E0,8.670808024E0,2.031356632E0,1.036211338E1
1.513143329E1,5.974127129E0,9.350530472E0,2.115323818E0,1.129589350E1
1.514140029E1,6.461265097E0,9.881452975E0,2.024634672E0,1.197873971E1
1.515136729E1,6.769441429E0,1.019580864E1,1.677555646E0,1.235289618E1
1.516133429E1,7.047584122E0,1.045038706E1,1.245073357E0,1.266606645E1
1.517130029E1,7.302699895E0,1.060637206E1,8.283316990E-1,1.290390202E1
1.518126729E1,7.339268382E0,1.065777026E1,3.772400614E-1,1.294585792E1
1.519123429E1,7.057150167E0,1.062687240E1,-1.949894392E-1,1.275820545E1
1.520120129E1,6.842428713E0,1.056300560E1,-7.077048826E-1,1.260542598E1
1.521116729E1,6.580656470E0,1.044917552E1,-9.378630582E-1,1.238426000E1
1.522113429E1,6.437333613E0,1.020838016E1,-7.214037395E-1,1.209010806E1
1.523110129E1,6.694150926E0,9.892565024E0,1.206759330E-2,1.194464922E1
1.524106829E1,6.794698477E0,9.607376436E0,5.818154260E-1,1.178168573E1
1.525103429E1,6.710242463E0,9.381587958E0,1.058405675E0,1.158282216E1
1.526100129E1,6.558740521E0,9.107431312E0,1.587512033E0,1.133501552E1
1.527096829E1,6.427935383E0,8.803414689E0,2.028966290E0,1.108761325E1
1.528093529E1,6.221217599E0,8.511681313E0,2.338135625E0,1.079903447E1
1.529090229E1,5.995250781E0,8.313655999E0,2.707868958E0,1.060153113E1
1.530086829E1,5.810253648E0,8.181456885E0,3.029267013E0,1.048197228E1
1.531083529E1,5.474880162E0,8.107792493E0,3.063736349E0,1.025168729E1
1.532080229E1,5.031582279E0,7.993348449E0,2.735907526E0,9.833393598E0
1.533076929E1,4.680808396E0,7.924097536E0,2.334927550E0,9.494902615E0
1.534073529E1,4.302261994E0,7.829508882E0,2.131125333E0,9.184354239E0
1.535070229E1,3.816430294E0,7.552284202E0,1.654051008E0,8.621949988E0
1.536066929E1,2.677703757E0,5.945863443E0,-2.208535744E0,6.884839840E0
1.537063629E1,5.688960761E-1,2.729643989E0,-6.923587482E0,7.463957574E0
1.538060229E1,-2.166440469E0,-1.619496887E0,-8.411618496E0,8.835811236E0
1.539056929E1,-7.003666270E0,-1.023018326E1,-1.379394191E1,1.854672004E1
1.540053629E1,-9.710089796E0,-1.762746069E1,-1.113062289E1,2.299791252E1
1.541050329E1,-9.434233364E0,-1.969419181E1,-4.766078635E0,2.235131888E1
1.542046929E1,-1.161123946E1,-2.015332220E1,6.433086196E-1,2.326781304E1
1.543043629E1,-1.230708619E1,-2.151488379E1,5.725773661E0,2.543892841E1
1.544040329E1,-1.016930322E1,-2.329635264E1,2.005174262E0,2.549814695E1
1.545037029E1,-5.844313679E0,-2.104366603E1,-4.571532122E0,2.231346653E1
1.546033729E1,-2.757866744E0,-1.266281909E1,-7.906394506E0,1.518103720E1
1.547030329E1,-2.907697845E0,-5.468699071E0,-6.482872313E0,8.965991842E0
1.548027029E1,-1.753382338E0,-2.559202915E0,-4.402798143E0,5.385954017E0
1.549023729E1,-6.534169936E-1,-2.438027557E0,-2.970765328E0,3.898253297E0
1.550020429E1,-2.577341563E-1,-4.188866356E0,-3.057865160E0,5.192645528E0
1.551017029E1,5.862009108E-2,-6.375629116E0,-3.588663118E0,7.316459930E0
1.552013729E1,-6.367647082E-2,-7.457129538E0,-3.041880627E0,8.053935273E0
1.553010429E1,-9.779205054E-2,-7.335620304E0,-1.689514664E0,7.528303150E0
1.554007129E1,-2.145352194E-1,-6.662832654E0,-5.833109245E-1,6.691757316E0
1.555003729E1,-4.944294459E-1,-6.007130569E0,-7.172223955E-2,6.027870455E0
1.556000429E1,-5.656713367E-1,-5.301038933E0,-1.520825708E-1,5.333303567E0
1.556997129E1,-3.364300776E-1,-4.175739942E0,-3.028828472E-2,4.189380221E0
1.557993829E1,-3.161782461E-1,-2.846054451E0,2.028706089E-1,2.870740515E0
1.558990429E1,-1.045201492E-1,-1.554326745E0,4.243476427E-1,1.614598097E0
1.559987129E1,4.266271797E-1,-3.373796654E-1,6.782793546E-1,8.694243336E-1
1.560983829E1,1.132035276E0,8.666953540E-1,8.560651159E-1,1.662982918E0
1.561980529E1,1.809975200E0,2.101402767E0,9.471656129E-1,2.930704098E0
1.562977229E1,2.274519819E0,3.361878274E0,8.776869500E-1,4.152830398E0
1.563973829E1,2.647669533E0,4.516080052E0,6.225238144E-1,5.271875273E0
1.564970529E1,3.003455064E0,5.542141269E0,3.250359008E-1,6.312029824E0
1.565967229E1,3.161093075E0,6.309746198E0,2.537422621E-1,7.061854689E0
1.566963929E1,2.920091018E0,6.809537541E0,2.247671159E-1,7.412641454E0
1.567960529E1,2.453721776E0,7.098527403E0,7.840063691E-2,7.511057749E0
1.568957229E1,1.881902969E0,7.193678559E0,-8.752243951E-2,7.436277978E0
1.569953929E1,1.077567877E0,6.974620811E0,-1.347925003E-1,7.058658300E0
1.570950629E1,1.334691292E-1,6.386434770E0,-1.615973063E-1,6.389872986E0
1.571947229E1,-7.161839300E-1,5.594028876E0,-1.993290965E-1,5.643209244E0
1.572943929E1,-1.118234970E0,4.444968554E0,-1.443031427E-1,4.585740757E0
1.573940629E1,-8.972806773E-1,3.216189049E0,1.036630936E-1,3.340618303E0
1.574937329E1,-4.414533797E-1,2.122760307E0,3.732488251E-1,2.200069792E0
1.575933929E1,-1.197334349E-2,1.197749501E0,5.376443164E-1,1.312938932E0
1.576930629E1,2.426176420E-1,5.005444640E-1,5.794558552E-1,8.032292131E-1
1.577927329E1,5.708893919E-1,1.299303943E-1,2.960481830E-1,6.560801261E-1
1.578924029E1,1.133084851E0,1.205380118E-1,-1.807511768E-1,1.153725132E0
1.579920729E1,1.780390920E0,3.918891639E-1,-6.382496086E-1,1.931510162E0
1.580917329E1,2.319916724E0,8.159117013E-1,-7.846881545E-1,2.581368050E0
1.581914029E1,2.466935021E0,1.435126576E0,-3.399258354E-1,2.874179233E0
1.582910729E1,2.335170648E0,2.106710284E0,3.904818852E-1,3.169183851E0
1.583907429E1,2.047318653E0,2.553588418E0,8.252365485E-1,3.375402619E0
1.584904029E1,1.748827942E0,2.788238352E0,8.014076829E-1,3.387466096E0
1.585900729E1,1.470061936E0,2.833951299E0,5.927506694E-1,3.247108778E0
1.586897429E1,1.265954056E0,2.639894491E0,4.169810280E-1,2.957288585E0
1.587894129E1,1.126986790E0,2.105520376E0,2.167872745E-1,2.397980817E0
1.588890729E1,9.044999421E-1,1.083051104E0,-3.192202601E-1,1.446727830E0
1.589887429E1,5.427493742E-1,-2.894208026E-1,-7.629596087E-1,9.800248205E-1
1.590884129E1,3.588854322E-1,-1.836116347E0,-8.114798042E-1,2.039269836E0
1.591880829E1,2.039400646E-1,-3.379272571E0,-7.628476346E-1,3.470304190E0
1.592877529E1,1.106129479E-1,-4.671801930E0,-1.097894261E0,4.800347936E0
1.593874179E1,3.125190586E-2,-5.691787305E0,-1.629358509E0,5.920492256E0
1.594870879E1,-2.770942873E-1,-6.001295632E0,-1.660765074E0,6.233014611E0
1.595867579E1,-7.669421473E-1,-5.589469217E0,-1.638039285E0,5.874822473E0
1.596864279E1,-1.420809377E0,-4.743097031E0,-1.419614790E0,5.150822738E0
1.597860879E1,-2.036117435E0,-4.178013339E0,-1.520642982E0,4.890186576E0
1.598857579E1,-2.871587780E0,-4.087403716E0,-1.444858975E0,5.200048362E0
1.599854279E1,-3.628294084E0,-4.848965548E0,-1.107728985E0,6.156626377E0
1.600850979E1,-4.500962369E0,-6.618925327E0,-1.283033188E0,8.106479439E0
1.601847579E1,-5.529131799E0,-9.380059496E0,-2.167370469E0,1.110199574E1
1.602844279E1,-6.831677438E0,-1.241692730E1,-3.079658902E0,1.450297208E1
1.603840979E1,-7.854261900E0,-1.428011684E1,-2.970891043E0,1.656615105E1
1.604837679E1,-7.888535939E0,-1.471790022E1,-2.331480470E0,1.686064611E1
1.605834279E1,-6.966766831E0,-1.411120014E1,-2.693765766E0,1.596615744E1
1.606830979E1,-5.996495068E0,-1.303323319E1,-3.522644837E0,1.477268246E1
1.607827679E1,-4.820130881E0,-1.141211136E1,-3.244645693E0,1.280615762E1
1.608824379E1,-3.732226588E0,-9.614023551E0,-1.916388970E0,1.048959059E1
1.609821079E1,-2.895187727E0,-7.811732762E0,-6.423854904E-1,8.355713006E0
1.610817679E1,-2.293353116E0,-5.593196817E0,-1.256566644E-2,6.045120102E0
1.611814379E1,-2.150819048E0,-2.871871662E0,4.431838632E-2,3.588263304E0
1.612811079E1,-1.732572682E0,-1.545068264E-1,-4.281329839E-1,1.791362139E0
1.613807779E1,-8.400440374E-1,2.104633353E0,-3.894630079E-1,2.299312282E0
1.614804379E1,-2.853800842E-1,3.676099457E0,7.009419930E-1,3.753194465E0
1.615801079E1,-2.196135262E-1,4.725236126E0,1.363101890E0,4.922817618E0
1.616797779E1,9.615325141E-1,5.437478448E0,1.564133842E0,5.739096734E0
1.617794479E1,2.154803048E0,5.728918878E0,2.257939746E0,6.523954291E0
1.618791079E1,3.252965112E0,6.251280473E0,3.096481926E0,7.697304067E0
1.619787779E1,4.244558161E0,7.175498396E0,3.608796543E0,9.084462764E0
1.620784479E1,4.895490673E0,8.262656000E0,3.551852556E0,1.023977391E1
1.621781179E1,5.173494202E0,9.109177875E0,2.939516931E0,1.088039170E1
1.622777779E1,5.441194938E0,9.670427547E0,2.116538869E0,1.129617228E1
1.623774479E1,5.674122866E0,1.015166684E1,1.203978029E0,1.169194480E1
1.624771179E1,5.918818316E0,1.062120060E1,2.072020070E-1,1.216080775E1
1.625767879E1,6.247865115E0,1.121009825E1,-1.117930257E0,1.288223153E1
1.626764579E1,6.448036357E0,1.163537794E1,-1.947974167E0,1.344447083E1
1.627761179E1,6.483615494E0,1.167126464E1,-1.509490296E0,1.343630340E1
1.628757879E1,6.437534757E0,1.148860113E1,-7.502854764E-1,1.319063069E1
1.629754579E1,6.227153692E0,1.116344331E1,-1.519545168E-4,1.278279741E1
1.630751279E1,6.140403816E0,1.072511966E1,4.222672033E-1,1.236572118E1
1.631747879E1,6.223623143E0,1.027960275E1,8.619531159E-1,1.204768363E1
1.632744579E1,6.182862203E0,1.011310329E1,1.507188832E0,1.194881841E1
