"Time (s)","Linear Acceleration x (m/s^2)","Linear Acceleration y (m/s^2)","Linear Acceleration z (m/s^2)","Absolute acceleration (m/s^2)"
1.000833348E-3,-2.703319824E-1,-1.119943526E-1,-1.873709850E0,1.896420502E0
1.096783334E-2,2.313933268E-1,6.236055493E-2,-3.299794292E0,3.308485164E0
2.093483333E-2,4.945504832E-1,1.240399092E-2,-4.034958869E0,4.065172458E0
3.090183332E-2,-8.013705531E-1,-4.525569499E-2,-3.103649443E0,3.205757743E0
4.086883331E-2,-1.061774840E0,3.982333928E-2,-2.319807381E0,2.551559914E0
5.083583336E-2,-6.307938239E-1,-9.416736156E-2,-1.946676085E0,2.048491181E0
6.080283335E-2,-2.212223876E-1,-1.000154543E-1,-1.545682222E0,1.564632853E0
7.076983334E-2,2.565404472E-1,-2.290412843E-2,-9.121679807E-1,9.478333319E-1
8.073683333E-2,1.234728170E0,-2.402971745E-1,-1.038369021E0,1.631105947E0
9.070383332E-2,1.608069381E0,-8.375534159E-1,-1.360147145E0,2.266579607E0
1.006708333E-1,1.548951985E0,-1.629044806E0,-1.813176550E0,2.888018080E0
1.106378334E-1,1.146929596E0,-1.498589332E0,-1.343994797E0,2.316795092E0
1.206048334E-1,5.600667804E-1,-1.122190027E0,-1.001039227E0,1.604700841E0
1.305718333E-1,1.774621180E-1,-9.517480758E-1,-9.655723554E-1,1.367350422E0
1.405388333E-1,1.092961550E-2,-1.101188582E0,-7.786076349E-1,1.348690327E0
1.505058333E-1,2.255902576E-1,-1.244094533E0,-2.200307250E-2,1.264573567E0
1.604728333E-1,7.089789909E-1,-1.296664656E0,1.437803432E0,2.061860603E0
1.704398334E-1,1.497320486E0,-1.494260784E0,2.167463440E0,3.028643540E0
1.804068334E-1,2.126490245E0,-1.762219089E0,2.154941043E0,3.503019809E0
1.903738333E-1,2.269241537E0,-2.048707805E0,2.090797087E0,3.703794444E0
2.003408333E-1,1.741332104E0,-2.004437951E0,2.385074587E0,3.569116106E0
2.103078333E-1,2.926282927E-1,-1.487235501E0,2.976422217E0,3.340148195E0
2.202758333E-1,-1.324311900E0,-1.050447614E0,3.188904186E0,3.609203805E0
2.302428333E-1,-1.870768993E0,-1.129915514E0,2.565261215E0,3.370022373E0
2.402098333E-1,-1.240436515E0,-1.612144306E0,8.797755754E-1,2.216234887E0
2.501768334E-1,-8.090494090E-1,-1.998841727E0,-2.076913458E-1,2.166348285E0
2.601438334E-1,-1.458007901E0,-2.020578167E0,1.017600296E0,2.691474229E0
2.701108333E-1,-1.684064181E0,-1.653957745E0,-1.105917225E0,2.606664785E0
2.800778333E-1,-1.909105970E0,-5.855460227E-1,-2.221727940E0,2.987243678E0
2.900448333E-1,-2.814175139E0,1.327140198E0,-1.274476665E0,3.362316699E0
3.000118333E-1,-2.374311325E0,3.462525812E0,-4.199739254E-1,4.219338499E0
3.099788334E-1,-2.645414847E-1,5.844411913E0,7.870504296E-1,5.903099286E0
3.199458334E-1,2.964978923E0,6.935421662E0,2.180005717E0,7.851343743E0
3.299128333E-1,3.692832142E0,7.570091897E0,3.790728858E0,9.236499653E0
3.398798333E-1,1.924198803E0,7.225006186E0,8.098073251E0,1.102188939E1
3.498468333E-1,1.193141018E0,4.960073755E0,1.002949161E1,1.125240504E1
3.598138333E-1,-7.234248295E-1,2.019250849E0,9.243418252E0,9.489019889E0
3.697808334E-1,-7.258171009E0,1.052237447E0,9.514487568E0,1.201306471E1
3.797478334E-1,-1.233952537E1,1.409412276E0,1.043873940E1,1.622398255E1
3.897148333E-1,-1.268151615E1,1.812189102E0,1.174118564E1,1.737700554E1
3.996818333E-1,-7.993554271E0,3.010912603E0,1.259158481E1,1.521546951E1
4.096488333E-1,-2.205700576E0,4.387555329E0,1.200282866E1,1.296856402E1
4.196158333E-1,2.244786435E0,5.142075359E0,1.008431160E1,1.154007563E1
4.295828333E-1,5.058194126E0,4.876061545E0,7.606629978E0,1.035481162E1
4.395498334E-1,5.494647260E0,3.483161514E0,5.738003697E0,8.674574864E0
4.495168334E-1,4.607371168E0,1.368575322E0,2.195318406E0,5.283965405E0
4.594838333E-1,2.927263505E0,7.570188376E-1,-6.121146011E-1,3.084904121E0
4.694508333E-1,1.048353288E0,1.212405547E-1,-2.151238586E0,2.396157620E0
4.794178333E-1,-7.540012358E-1,-1.257146395E0,-3.309387819E0,3.619527961E0
4.893848333E-1,-2.233567967E0,-2.322159716E0,-4.361097847E0,5.422215971E0
4.993518334E-1,-2.636819732E0,-3.262671197E0,-5.671976938E0,7.054726361E0
5.093188334E-1,-2.539235843E0,-4.150035582E0,-7.168327956E0,8.663454258E0
5.192868334E-1,-2.687294360E0,-4.944068756E0,-8.049138488E0,9.821099594E0
5.292540833E-1,-2.828282131E0,-5.721473619E0,-8.630383299E0,1.073396274E1
5.392210833E-1,-2.824563010E0,-6.415477890E0,-8.886274413E0,1.131823245E1
5.491880833E-1,-2.901244858E0,-6.976932800E0,-7.956581742E0,1.097278479E1
5.591550833E-1,-2.574363576E0,-7.167571911E0,-6.529381067E0,1.003166248E1
5.691220834E-1,-1.546434174E0,-7.007393870E0,-5.862503783E0,9.266281784E0
5.790890834E-1,-9.369454839E-1,-6.693441659E0,-5.568685874E0,8.757299266E0
5.890560834E-1,-5.107598421E-1,-5.943477194E0,-5.516463806E0,8.125095058E0
5.990230833E-1,1.210570984E-1,-4.938689902E0,-5.475385362E0,7.374629322E0
6.089900833E-1,7.100522473E-1,-4.098881215E0,-5.430537218E0,6.840740887E0
6.189570833E-1,1.224966536E0,-3.611338620E0,-5.384497996E0,6.598115512E0
6.289240833E-1,1.706227614E0,-3.361122229E0,-5.365640141E0,6.557320293E0
6.388910834E-1,1.660623863E0,-3.518323452E0,-5.512528630E0,6.747165585E0
6.488580834E-1,1.005834236E0,-3.898125252E0,-5.982957010E0,7.211300685E0
6.588250833E-1,2.332967417E-1,-4.242302890E0,-6.356625665E0,7.645799568E0
6.687920833E-1,-2.323000107E-1,-4.542601853E0,-6.419789627E0,7.867839204E0
6.787590833E-1,-3.045802208E-1,-4.857261577E0,-6.334582831E0,7.988285097E0
6.887260833E-1,-9.605908200E-2,-5.036746539E0,-6.263346203E0,8.037882103E0
6.986930834E-1,1.183352560E-1,-4.934325541E0,-6.085773280E0,7.835700874E0
7.086600834E-1,4.290511795E-1,-4.625466254E0,-6.080975055E0,7.652272905E0
7.186270833E-1,7.532953307E-1,-4.094386461E0,-6.311476974E0,7.560833019E0
7.285940833E-1,6.307007070E-1,-3.570883489E0,-6.571030784E0,7.505160747E0
7.385610833E-1,2.433159457E-1,-3.063960590E0,-6.692340043E0,7.364405774E0
7.485280833E-1,4.759504720E-2,-1.941231450E0,-6.394982230E0,6.683295785E0
7.584950833E-1,2.183329768E-2,-3.999024805E-1,-5.771922811E0,5.785800862E0
7.684620834E-1,-1.921704098E-2,9.815492874E-1,-4.752614543E0,4.852953049E0
7.784290834E-1,-7.185817361E-2,2.161236447E0,-3.338437956E0,3.977596581E0
7.883960833E-1,2.884773909E-1,3.112862024E0,-1.017916630E0,3.287747474E0
7.983630833E-1,1.106536519E0,3.389687924E0,2.038763300E0,4.107427794E0
8.083300833E-1,1.359875250E0,2.816560803E0,5.295977583E0,6.150581599E0
8.182970833E-1,1.010348871E0,2.272770039E0,8.194697320E0,8.563839832E0
8.282650833E-1,7.107664116E-1,2.172685880E0,1.030584389E1,1.055633322E1
8.382320834E-1,5.527505250E-1,2.221504576E0,1.125735193E1,1.148775819E1
8.481990834E-1,4.734904935E-1,2.331050407E0,1.110671129E1,1.135856615E1
8.581660833E-1,4.568863745E-1,2.841304173E0,9.723318536E0,1.014025039E1
8.681330833E-1,2.148925573E-1,3.705666195E0,7.950072037E0,8.773926496E0
8.781000833E-1,3.520265934E-2,4.430421267E0,6.912711076E0,8.210690973E0
8.880670833E-1,1.539380202E-1,4.606437660E0,7.196257181E0,8.545705486E0
8.980340834E-1,4.446865245E-1,4.117179200E0,8.413156314E0,9.377105621E0
9.080010834E-1,5.375411130E-1,3.251376716E0,9.562004966E0,1.011396757E1
9.179680833E-1,2.432822329E-1,2.391951205E0,9.943880188E0,1.023041397E1
9.279350833E-1,5.284271311E-2,2.055341618E0,9.445883356E0,9.667054045E0
9.379020833E-1,2.534455707E-1,2.138164796E0,8.372626339E0,8.645048014E0
9.478690833E-1,8.396066657E-1,2.214648131E0,6.843705745E0,7.241955125E0
9.578360833E-1,1.474666472E0,2.121893457E0,4.868303459E0,5.511574332E0
9.678030834E-1,1.731698524E0,1.991314606E0,2.791093547E0,3.841134836E0
9.777700834E-1,1.736979290E0,1.853495733E0,7.754390287E-1,2.655908352E0
9.877370833E-1,1.480347773E0,1.518005596E0,-1.014698907E0,2.350613620E0
9.977040833E-1,9.686623165E-1,8.452521524E-1,-2.511486712E0,2.821404506E0
1.007671083E0,2.645626809E-1,1.108979997E-1,-3.722335145E0,3.733372566E0
1.017638083E0,-3.807449190E-1,-3.711277476E-1,-4.614928402E0,4.645456561E0
1.027605083E0,-7.093032190E-1,-5.736025000E-1,-5.500744736E0,5.575869756E0
1.037572083E0,-7.937672724E-1,-7.091766268E-1,-6.424531134E0,6.512111660E0
1.047539083E0,-8.107801118E-1,-7.714620450E-1,-7.096097885E0,7.183809802E0
1.057506083E0,-7.780460098E-1,-8.152731854E-1,-7.411213108E0,7.496406185E0
1.067473083E0,-6.730702163E-1,-9.542720264E-1,-7.283308774E0,7.376330070E0
1.077440083E0,-6.154385971E-1,-1.225624640E0,-6.927147852E0,7.061607309E0
1.087407083E0,-5.338567825E-1,-1.456793142E0,-7.088836228E0,7.256641675E0
1.097374083E0,-3.209593682E-1,-1.647529024E0,-7.212353981E0,7.405093973E0
1.107341083E0,-8.782642163E-2,-1.767701000E0,-7.300396092E0,7.511874826E0
1.117308083E0,8.652146928E-2,-1.812952748E0,-7.251934369E0,7.475616076E0
1.127275083E0,2.267893023E-1,-1.745324144E0,-6.852968320E0,7.075363209E0
1.137242083E0,3.725958373E-1,-1.590138018E0,-6.271681994E0,6.480845747E0
1.147209083E0,5.656157150E-1,-1.425023172E0,-5.628359048E0,5.833441331E0
1.157176083E0,8.450575863E-1,-1.147354250E0,-4.995804920E0,5.195056390E0
1.167143083E0,1.096659621E0,-7.304340331E-1,-4.294702129E0,4.492289236E0
1.177110083E0,1.316574864E0,-3.622205378E-1,-3.730047038E0,3.972130914E0
1.187078083E0,1.483658466E0,-7.135064900E-2,-3.252162289E0,3.575317177E0
1.197045083E0,1.531782513E0,1.771776509E-1,-2.998789571E0,3.372015492E0
1.207012083E0,1.394681678E0,3.609661639E-1,-2.976901104E0,3.307170050E0
1.216979083E0,1.123253562E0,4.566535091E-1,-2.824256031E0,3.073540812E0
1.226946083E0,7.345683070E-1,6.579164261E-1,-2.201533996E0,2.412301092E0
1.236913083E0,3.908347647E-1,1.251512457E0,-1.223578992E0,1.793371348E0
1.246880083E0,-2.078707092E-2,2.041372912E0,3.447354627E-1,2.070381126E0
1.256847083E0,-4.190670222E-1,2.908147203E0,2.465487251E0,3.835565761E0
1.266814083E0,-4.319306774E-1,3.482667424E0,5.022831920E0,6.127346652E0
1.276781083E0,1.813255561E-1,3.304981942E0,7.577176384E0,8.268578266E0
1.286748083E0,8.746498331E-1,2.874458470E0,1.019722367E1,1.063065823E1
1.296715083E0,7.550196746E-1,2.491468769E0,1.388003398E1,1.412206835E1
1.306682083E0,4.506677145E-1,1.296541572E0,1.856227260E1,1.861295478E1
1.316649083E0,9.671795357E-1,-9.650152619E-1,2.341448745E1,2.345431545E1
1.326616083E0,2.225704924E0,-2.966629592E0,2.747725684E1,2.772641876E1
1.336583083E0,3.752517303E0,-3.602541777E0,2.926265503E1,2.972141774E1
1.346550083E0,5.215646780E0,-3.110153886E0,2.809826623E1,2.874697538E1
1.356517083E0,5.745730793E0,-2.143171182E0,2.450930140E1,2.526484633E1
1.366484083E0,5.186693122E0,-1.002137626E0,1.955157120E1,2.025265419E1
1.376451083E0,4.406088956E0,3.577838168E-1,1.471440826E1,1.536409580E1
1.386418083E0,2.863920618E0,1.504362288E0,1.047596044E1,1.096407289E1
1.396385083E0,7.747641870E-1,2.083698860E0,6.886463510E0,7.236396904E0
1.406352083E0,-9.380588669E-1,2.098231529E0,4.137205036E0,4.732757706E0
1.416319083E0,-2.110751880E0,1.598447788E0,2.315550023E0,3.517396870E0
1.426286083E0,-2.732771080E0,8.417868000E-1,8.921009213E-1,2.995410964E0
1.436253083E0,-3.040110090E0,-1.560218400E-1,-6.242481583E-1,3.107458437E0
1.446220083E0,-3.188227079E0,-1.418580710E0,-2.157172340E0,4.102506020E0
1.456187083E0,-3.452515964E0,-2.352238086E0,-3.245374256E0,5.290117632E0
1.466154083E0,-3.070241961E0,-2.665738599E0,-4.001042680E0,5.704462333E0
1.476121083E0,-2.025638055E0,-2.601881450E0,-4.766888182E0,5.796224594E0
1.486088083E0,-1.005389117E0,-2.342570007E0,-5.733941637E0,6.275071968E0
1.496055083E0,-5.023927689E-2,-2.048089609E0,-6.871142635E0,7.170062492E0
1.506022083E0,7.690874907E-1,-2.012369260E0,-8.182334552E0,8.461189298E0
1.515989083E0,1.354370827E0,-2.276535062E0,-9.432004405E0,9.796919890E0
1.525955708E0,1.776889607E0,-2.661379792E0,-1.041917228E1,1.089951513E1
1.535922708E0,2.033092377E0,-2.996012436E0,-1.097415959E1,1.155602586E1
1.545889708E0,2.311549943E0,-3.188779641E0,-1.102828609E1,1.171045144E1
1.555856708E0,2.567142849E0,-3.407747927E0,-1.104542896E1,1.184079682E1
1.565823708E0,2.665509973E0,-3.685321686E0,-1.117662060E1,1.206662286E1
1.575790708E0,2.660793609E0,-4.030614973E0,-1.107302665E1,1.208046352E1
1.585758708E0,2.506609549E0,-4.462385948E0,-1.086737656E1,1.201232089E1
1.595725708E0,2.219884605E0,-4.704004008E0,-1.072142772E1,1.191656636E1
1.605692708E0,1.898645301E0,-4.775803139E0,-1.059285330E1,1.177377130E1
1.615659708E0,1.693690599E0,-4.872835344E0,-1.046315153E1,1.166578982E1
1.625626708E0,1.711423888E0,-4.875893730E0,-1.045730314E1,1.166441171E1
1.635593708E0,1.855241420E0,-4.728704402E0,-1.037738340E1,1.155390204E1
1.645560708E0,1.990977953E0,-4.538770465E0,-1.019616766E1,1.133694251E1
1.655527708E0,2.033288844E0,-4.472062798E0,-1.003669187E1,1.117447059E1
1.665494708E0,1.984585484E0,-4.464195661E0,-9.950749497E0,1.108535241E1
1.675461708E0,1.899188800E0,-4.300148225E0,-9.714144255E0,1.079179278E1
1.685428708E0,1.868443848E0,-4.046728437E0,-9.461608858E0,1.045892612E1
1.695395708E0,1.778858657E0,-3.853299327E0,-9.094148192E0,1.003572544E1
1.705362708E0,1.646496990E0,-3.656443749E0,-8.555560573E0,9.448711550E0
1.715329708E0,1.474045205E0,-3.425454173E0,-8.035431445E0,8.858594926E0
1.725296708E0,1.292840285E0,-3.098614698E0,-7.539688130E0,8.253468734E0
1.735263708E0,1.112546214E0,-2.559162569E0,-7.037474286E0,7.570542679E0
1.745230708E0,9.069642511E-1,-1.852960421E0,-6.573205363E0,6.889345050E0
1.755197708E0,5.409829304E-1,-1.004722388E0,-6.042281690E0,6.149089171E0
1.765164708E0,-2.954735479E-1,8.531526178E-2,-5.159245123E0,5.168403385E0
1.775131708E0,-1.588047199E0,1.530162542E0,-3.763590760E0,4.362098890E0
1.785098708E0,-2.863898984E0,3.155648732E0,-2.359981261E0,4.871298375E0
1.795065708E0,-3.260186131E0,4.042352673E0,-1.033377838E0,5.295025826E0
1.805032708E0,-2.142073368E0,3.917879778E0,4.453753996E-1,4.487384485E0
1.814999708E0,-4.085554826E-1,3.767277137E0,2.378098859E0,4.473773440E0
1.824966708E0,7.259885412E-1,3.847406796E0,5.210977194E0,6.517966073E0
1.834933708E0,1.147908128E0,3.654015401E0,9.328936704E0,1.008457147E1
1.844900708E0,7.375372307E-1,2.627888695E0,1.403473025E1,1.429767161E1
1.854867708E0,-1.787932366E-1,1.131021515E0,1.775538374E1,1.779226878E1
1.864834708E0,-9.122625594E-1,-2.533858743E-1,1.975358549E1,1.977626272E1
1.874801708E0,-1.339041182E0,-1.210302889E0,2.000665532E1,2.008790983E1
1.884768708E0,-1.790502802E0,-1.241760617E0,1.904128236E1,1.916554991E1
1.894735708E0,-1.891942053E0,-6.154939994E-1,1.779561141E1,1.790648104E1
1.904702708E0,-1.419362922E0,-2.567176178E-2,1.682177753E1,1.688157129E1
1.914669708E0,-9.736629284E-1,6.586998068E-1,1.570345309E1,1.574739166E1
1.924636708E0,-7.447192926E-1,1.482620147E0,1.410584292E1,1.420308325E1
1.934603708E0,-5.191932081E-1,2.096986803E0,1.217204825E1,1.236226815E1
1.944570708E0,-2.234931538E-1,2.430318734E0,9.963917427E0,1.025846230E1
1.954537708E0,1.425524864E-1,2.794373835E0,7.646067694E0,8.141940648E0
1.964504708E0,5.300778732E-1,3.171684721E0,5.299921530E0,6.199172102E0
1.974471708E0,1.029151178E0,3.209946854E0,3.109912981E0,4.586335105E0
1.984439708E0,1.547600547E0,2.822719090E0,1.168995234E0,3.424815378E0
1.994405708E0,1.805251527E0,2.173108342E0,-5.430566454E-1,2.876846096E0
2.004372708E0,1.647664533E0,1.478528412E0,-2.079748188E0,3.037465589E0
2.014340708E0,1.155057811E0,8.015024078E-1,-3.407313479E0,3.685966603E0
2.024307708E0,5.827823362E-1,7.775978208E-2,-4.597573282E0,4.635014770E0
2.034274708E0,1.218287846E-1,-6.572045276E-1,-5.580451641E0,5.620338118E0
2.044241708E0,-1.929255183E-1,-1.354278587E0,-6.352302818E0,6.497925965E0
2.054208708E0,-2.842229202E-1,-1.825441085E0,-6.891279861E0,7.134616735E0
2.064175708E0,-2.648391080E-1,-2.115540457E0,-7.254947439E0,7.561740112E0
2.074142708E0,-1.071306387E-1,-2.347569084E0,-7.578949844E0,7.934925225E0
2.084109708E0,4.014727503E-2,-2.551380217E0,-7.936291904E0,8.336419015E0
2.094076708E0,5.280532748E-2,-2.625726103E0,-8.188543711E0,8.599388006E0
2.104043708E0,1.274438658E-1,-2.531212294E0,-8.260154561E0,8.640221698E0
2.114010708E0,2.578538780E-1,-2.422223410E0,-8.156300994E0,8.512279411E0
2.123977708E0,3.201270171E-1,-2.366927753E0,-8.109914448E0,8.454320827E0
2.133944708E0,3.981032923E-1,-2.200919161E0,-8.168991791E0,8.469649241E0
2.143911708E0,6.382332364E-1,-1.977780349E0,-8.099729767E0,8.362091788E0
2.153878708E0,9.723929863E-1,-1.715782987E0,-7.922865527E0,8.164634563E0
2.163845708E0,1.297437073E0,-1.418960195E0,-7.615021318E0,7.854001570E0
2.173812708E0,1.672659918E0,-1.038757276E0,-7.384684875E0,7.642668290E0
2.183779708E0,1.929001268E0,-7.366980091E-1,-7.246681815E0,7.535128876E0
2.193746708E0,1.789459513E0,-5.714615420E-1,-7.216347045E0,7.456835677E0
2.203713708E0,1.379135832E0,-3.657605883E-1,-7.089624433E0,7.231775097E0
2.213680708E0,9.550059982E-1,-6.817707270E-2,-6.673371676E0,6.741704094E0
2.223647708E0,6.849799713E-1,1.564080486E-1,-5.888382390E0,5.930152460E0
2.233614708E0,7.529522453E-1,1.653677371E-1,-4.705612285E0,4.768340440E0
2.243581708E0,8.737285312E-1,-1.130065057E-1,-2.921017510E0,3.050985957E0
2.253548708E0,9.084788261E-1,-5.024987496E-1,-3.354266953E-1,1.091031548E0
2.263515708E0,5.743734553E-1,-7.370459184E-1,2.554997597E0,2.720506253E0
2.273482708E0,-8.758178875E-2,-5.707103209E-1,5.434790483E0,5.465375415E0
2.283449708E0,-6.466095190E-1,1.401747161E-1,7.606852757E0,7.635572126E0
2.293416708E0,-1.407799760E0,1.142824997E0,8.528344123E0,8.718979449E0
2.303383708E0,-2.292147127E0,2.090303143E0,9.341473719E0,9.843090822E0
2.313350708E0,-2.566747285E0,2.353520526E0,1.069253195E1,1.124533192E1
2.323317708E0,-2.150174539E0,1.790881556E0,1.228981117E1,1.260436298E1
2.333284708E0,-1.624206966E0,9.443036932E-1,1.409812810E1,1.422276252E1
2.343251708E0,-1.957462882E0,4.246397111E-1,1.659170947E1,1.671217529E1
2.353218708E0,-2.769537202E0,3.635129187E-1,1.930450062E1,1.950554337E1
2.363185708E0,-2.811762285E0,1.385031433E-1,2.065655697E1,2.084750671E1
2.373152708E0,-2.031806136E0,-2.737015866E-1,1.989932617E1,2.000465773E1
2.383119708E0,-1.084264547E0,-1.290715845E-1,1.772670432E1,1.776030222E1
2.393086708E0,-9.823103026E-2,6.013109931E-1,1.483598591E1,1.484849158E1
2.403053708E0,5.598416626E-1,1.263506850E0,1.206947406E1,1.214833636E1
2.413020708E0,2.005890253E-1,1.700814115E0,1.021308249E1,1.035567760E1
2.422987708E0,-8.913653415E-1,2.053697673E0,9.262191907E0,9.528924663E0
2.432954708E0,-2.171560291E0,2.530449232E0,8.494364784E0,9.125408511E0
2.442921708E0,-2.856916239E0,3.003433137E0,7.482816941E0,8.554246336E0
2.452888708E0,-2.617570114E0,3.084399825E0,5.725526909E0,7.010481721E0
2.462855708E0,-2.397175692E0,2.901823440E0,3.714424447E0,5.288097914E0
2.472822708E0,-2.559227473E0,2.528686296E0,2.002311172E0,4.117420270E0
2.482790708E0,-2.808570290E0,1.977843791E0,1.055955691E0,3.593741165E0
2.492757708E0,-2.729668839E0,1.279951998E0,7.338021755E-1,3.102875235E0
2.502724708E0,-2.150995926E0,4.379479739E-1,4.485533613E-1,2.240487005E0
2.512691708E0,-1.158610871E0,-3.746515721E-1,-3.802397561E-1,1.275666580E0
2.522659250E0,-7.950400651E-2,-1.244832451E0,-2.115353054E0,2.455737621E0
2.532626250E0,1.676673301E0,-2.308343622E0,-4.794081243E0,5.578790066E0
2.542593250E0,3.773090147E0,-2.918719262E0,-7.570820460E0,8.948321285E0
2.552560250E0,5.100779398E0,-3.114471762E0,-9.547976911E0,1.126417986E1
2.562527250E0,5.137391739E0,-3.390675519E0,-1.060420157E1,1.226126280E1
2.572494250E0,4.414893108E0,-3.866957254E0,-1.069191215E1,1.219678748E1
2.582461250E0,3.700764182E0,-4.433558590E0,-1.066524417E1,1.212845952E1
2.592428250E0,2.994313527E0,-4.808356927E0,-1.053811868E1,1.196403591E1
2.602395250E0,2.175808878E0,-4.859305471E0,-1.043180344E1,1.171193908E1
2.612362250E0,1.546503463E0,-4.758930413E0,-1.029999667E1,1.145115815E1
2.622329250E0,1.299448662E0,-4.634071309E0,-1.004888332E1,1.114195852E1
2.632296250E0,1.368186482E0,-4.413383357E0,-9.874096009E0,1.090172734E1
2.642263250E0,1.620047110E0,-4.156662816E0,-9.934047511E0,1.088979790E1
2.652230250E0,1.928357635E0,-4.019805810E0,-1.007455026E1,1.101698529E1
2.662197250E0,2.265282387E0,-4.073885246E0,-1.020116469E1,1.121569465E1
2.672164250E0,2.459210849E0,-4.232223752E0,-1.030208647E1,1.140580648E1
2.682131250E0,2.523842755E0,-4.421102559E0,-1.039426197E1,1.157396268E1
2.692098250E0,2.482589479E0,-4.563725504E0,-1.044690212E1,1.166741637E1
2.702065250E0,2.368855288E0,-4.625414506E0,-1.044622267E1,1.166745486E1
2.712032250E0,2.264874544E0,-4.588586403E0,-1.029070895E1,1.149275740E1
2.721999250E0,2.464973573E0,-4.414456321E0,-9.905697870E0,1.112143739E1
2.731966250E0,2.813502417E0,-4.337217234E0,-9.343303898E0,1.067822911E1
2.741933250E0,3.164650228E0,-4.349470074E0,-8.765279734E0,1.028411541E1
2.751900250E0,3.373472133E0,-4.328590252E0,-8.333647045E0,9.978310522E0
2.761867250E0,3.159031346E0,-4.235154377E0,-7.928282388E0,9.527521885E0
2.771834250E0,2.583674389E0,-3.971140896E0,-7.423454254E0,8.806418479E0
2.781801250E0,2.017481189E0,-3.526858633E0,-6.851648603E0,7.965805091E0
2.791768250E0,1.492007413E0,-2.893750774E0,-6.250517997E0,7.047613418E0
2.801735250E0,9.330758697E-1,-1.949471346E0,-5.558403545E0,5.963800724E0
2.811702250E0,2.335243446E-1,-6.346971327E-1,-4.656730732E0,4.705583405E0
2.821669250E0,-5.309409222E-1,1.076776457E0,-3.476742148E0,3.678190012E0
2.831636250E0,-1.052458764E0,2.736826416E0,-2.233745137E0,3.686123386E0
2.841603250E0,-1.048254616E0,3.677577341E0,-1.042318230E0,3.963564069E0
2.851570250E0,-7.502386987E-1,3.662285410E0,4.052266628E-1,3.760239511E0
2.861537250E0,-5.541973454E-1,3.185352295E0,2.049305829E0,3.827957461E0
2.871504250E0,-1.257947756E0,2.911100632E0,4.092794849E0,5.177635476E0
2.881471250E0,-3.430879804E0,3.502985621E0,7.636821492E0,9.075400101E0
2.891438250E0,-5.137668897E0,3.972560307E0,1.219121893E1,1.381313491E1
2.901405250E0,-4.083910589E0,2.198653073E0,1.566265122E1,1.633496386E1
2.911372250E0,-1.987614927E0,-4.790711492E-1,1.742799814E1,1.754751382E1
2.921339250E0,-1.285894816E0,-1.584831816E0,1.836241945E1,1.847548823E1
2.931306250E0,-1.741918726E0,-1.245121889E0,1.911982450E1,1.923934245E1
2.941273250E0,-2.553170342E0,-4.468445125E-1,1.972391906E1,1.989349974E1
2.951240250E0,-3.066942962E0,7.277659486E-1,1.914400390E1,1.940176971E1
2.961207250E0,-3.289668669E0,2.188233188E0,1.692410029E1,1.737916727E1
2.971174250E0,-2.902372201E0,3.418112116E0,1.370854450E1,1.442329529E1
2.981141250E0,-1.939364873E0,4.331092275E0,1.089356390E1,1.188230748E1
2.991108250E0,-9.096576248E-1,4.792294626E0,8.880442400E0,1.013192094E1
3.001075250E0,-9.461847425E-2,4.696319598E0,7.149216916E0,8.554278048E0
3.011042250E0,3.458613440E-1,4.248541870E0,5.209758049E0,6.731367396E0
3.021009250E0,5.695891173E-1,3.862102311E0,3.252187432E0,5.081042129E0
3.030977250E0,8.250510456E-1,3.284982126E0,1.563124466E0,3.730304933E0
3.040944250E0,9.639708030E-1,2.303421436E0,-3.377351761E-2,2.497224594E0
3.050911250E0,9.679062715E-1,1.172645358E0,-1.522633667E0,2.151825497E0
3.060878250E0,9.145090596E-1,7.562408656E-2,-2.681811426E0,2.834459092E0
3.070845250E0,6.703708492E-1,-8.875857013E-1,-3.557830750E0,3.727648736E0
3.080812250E0,4.390889119E-1,-1.698908800E0,-4.428923210E0,4.763869329E0
3.090779250E0,3.321886535E-1,-2.232503189E0,-5.289883615E0,5.751285808E0
3.100746250E0,2.672524001E-1,-2.533617838E0,-6.100316475E0,6.610938231E0
3.110713250E0,2.815687229E-1,-2.584280161E0,-6.818894255E0,7.297609455E0
3.120680250E0,3.447164592E-1,-2.568423389E0,-7.379680828E0,7.821465161E0
3.130647250E0,4.079684222E-1,-2.566180105E0,-7.682485907E0,8.110012841E0
3.140614250E0,4.089424221E-1,-2.638660144E0,-7.607817548E0,8.062794125E0
3.150581250E0,4.823419355E-1,-2.760146281E0,-7.263379709E0,7.785097689E0
3.160548250E0,4.924691668E-1,-2.860115250E0,-6.882767485E0,7.469623376E0
3.170515250E0,4.194241409E-1,-2.857264148E0,-6.672243163E0,7.270399153E0
3.180482250E0,2.766197857E-1,-2.746884504E0,-6.615203574E0,7.168180474E0
3.190449250E0,2.444938673E-1,-2.462032716E0,-6.562952855E0,7.013824386E0
3.200416250E0,4.430354901E-1,-2.085407416E0,-6.480050447E0,6.821748920E0
3.210383250E0,6.441142197E-1,-1.719966963E0,-6.372135989E0,6.631537269E0
3.220350250E0,8.289040683E-1,-1.356560171E0,-6.282872395E0,6.480881343E0
3.230317250E0,1.057714534E0,-9.363617125E-1,-6.197763247E0,6.356713189E0
3.240284250E0,1.218468087E0,-5.927378055E-1,-6.098617859E0,6.247330820E0
3.250251250E0,1.164887711E0,-5.454373392E-1,-5.689505137E0,5.833089573E0
3.260218250E0,1.064279349E0,-7.865589711E-1,-4.937744992E0,5.112014393E0
3.270185250E0,9.468567337E-1,-1.140543852E0,-3.721281477E0,4.005660218E0
3.280152250E0,8.450394599E-1,-1.400533279E0,-1.856644167E0,2.474411590E0
3.290119250E0,6.578031363E-1,-1.458748158E0,2.661465454E-1,1.622185297E0
3.300086250E0,2.926467115E-1,-1.164280916E0,2.416356606E0,2.698142212E0
3.310053250E0,-1.703359701E-1,-4.349372426E-1,4.777055905E0,4.799838317E0
3.320020250E0,-6.293144783E-1,5.847241965E-1,7.231114773E0,7.281961271E0
3.329987250E0,-5.280037196E-1,1.277304086E0,8.828277050E0,8.935813860E0
3.339954250E0,-2.768995750E-1,1.614741054E0,9.959066577E0,1.009292173E1
3.349921250E0,-5.531256969E-1,1.578179584E0,1.137269528E1,1.149499007E1
3.359888250E0,-7.024304017E-1,1.075323131E0,1.306912340E1,1.313208722E1
3.369855250E0,-2.615006402E-2,3.808127832E-1,1.499535411E1,1.500021157E1
3.379822250E0,1.078637333E0,-2.916754889E-1,1.675721959E1,1.679443186E1
3.389789250E0,1.429347188E0,-6.686162460E-1,1.795421480E1,1.802342670E1
3.399756250E0,8.455801812E-1,-6.259160766E-1,1.826085682E1,1.829113634E1
3.409723250E0,-2.862983894E-1,-4.235468665E-1,1.715438470E1,1.716200084E1
3.419690250E0,-1.773345317E0,-3.795015451E-1,1.418579658E1,1.430124469E1
3.429657250E0,-3.451337165E0,3.255609807E-1,9.596184865E0,1.020316040E1
3.439624250E0,-5.376142910E0,2.749628310E0,4.499295035E0,7.530406645E0
3.449591250E0,-7.054998391E0,6.315805083E0,9.087760109E-1,9.512532259E0
3.459558250E0,-7.262583902E0,9.339606704E0,9.464677477E-1,1.186883227E1
3.469525250E0,-5.800244969E0,1.030177072E1,4.277611302E0,1.257248106E1
3.479492250E0,-4.209733899E0,9.474644641E0,7.710346720E0,1.292053393E1
3.489459250E0,-3.114986025E0,7.759057535E0,9.986264316E0,1.302426914E1
3.499426250E0,-2.012593501E0,5.009487405E0,1.067874773E1,1.196583259E1
3.509393250E0,-1.266762434E0,1.829007887E0,9.163454654E0,9.429679640E0
3.519360250E0,-1.168033659E0,-6.859982640E-1,6.293921878E0,6.438039209E0
3.529327000E0,-1.380337581E0,-2.258028039E0,3.132142925E0,4.100529450E0
3.539294000E0,-1.354154919E0,-3.383888948E0,-2.316432953E-2,3.644856176E0
3.549261000E0,-7.743426758E-1,-4.105274269E0,-3.030573866E0,5.161129853E0
3.559228000E0,5.176773906E-2,-4.319238507E0,-5.942886041E0,7.346862982E0
3.569195000E0,9.367979148E-1,-4.434708445E0,-8.414008253E0,9.557183906E0
3.579162000E0,1.995431339E0,-4.735940039E0,-1.013234297E1,1.136112883E1
3.589129000E0,3.036688592E0,-5.155396485E0,-1.105552476E1,1.257076840E1
3.599096000E0,3.764642967E0,-5.504550104E0,-1.133337042E1,1.314982485E1
3.609063000E0,4.262383398E0,-5.636032349E0,-1.125702098E1,1.329109831E1
3.619030000E0,4.418824484E0,-5.525303042E0,-1.095246408E1,1.303884400E1
3.628997000E0,4.364973674E0,-5.293566776E0,-1.079967867E1,1.279483895E1
3.638964000E0,4.210533506E0,-5.115961694E0,-1.083838724E1,1.270323952E1
3.648931000E0,4.061442371E0,-5.004766948E0,-1.095479244E1,1.271025113E1
3.658899000E0,4.080572706E0,-4.824781464E0,-1.114582448E1,1.281245461E1
3.668865000E0,4.172369022E0,-4.564069321E0,-1.138875057E1,1.295928360E1
3.678833000E0,4.371755860E0,-4.286829438E0,-1.148319128E1,1.301356362E1
3.688800000E0,4.717652872E0,-4.098545001E0,-1.128712362E1,1.290168513E1
3.698767000E0,5.135615939E0,-4.098557280E0,-1.073353497E1,1.258497103E1
3.708734000E0,5.361661695E0,-4.356025972E0,-1.005220103E1,1.219709490E1
3.718701000E0,5.341203457E0,-4.724359043E0,-9.411958396E0,1.180817444E1
3.728668000E0,5.115450062E0,-4.958538276E0,-8.929783545E0,1.142348306E1
3.738635000E0,4.920366483E0,-5.098854495E0,-8.600318086E0,1.114332960E1
3.748602000E0,4.727601032E0,-5.175453020E0,-8.467542436E0,1.099248836E1
3.758569000E0,4.516687286E0,-5.183020486E0,-8.369156601E0,1.083083319E1
3.768536000E0,4.379437931E0,-5.087088143E0,-8.269394331E0,1.065086029E1
3.778503000E0,4.196357516E0,-4.960091296E0,-8.154676053E0,1.042644060E1
3.788470000E0,3.881203702E0,-4.860384867E0,-8.008752354E0,1.014037462E1
3.798437000E0,3.349808744E0,-4.620526819E0,-7.905243773E0,9.750044401E0
3.808404000E0,2.658329008E0,-4.022991665E0,-7.628748826E0,9.024909069E0
3.818371000E0,2.050931355E0,-3.227542588E0,-7.208901785E0,8.160368590E0
3.828338000E0,1.424441375E0,-2.474187323E0,-6.746166002E0,7.325393632E0
3.838305000E0,3.845906693E-1,-1.541995845E0,-6.125562413E0,6.328362825E0
3.848272000E0,-1.015154113E0,-5.370784521E-2,-5.223412467E0,5.321415245E0
3.858239000E0,-2.312491052E0,1.644393747E0,-4.015865371E0,4.917196390E0
3.868206000E0,-2.899310599E0,2.755454768E0,-2.955301489E0,4.973161954E0
3.878173000E0,-2.137513709E0,2.846814297E0,-1.991876231E0,4.079324382E0
3.888140000E0,-5.447333345E-1,2.400100177E0,-2.186309016E-1,2.470832802E0
3.898107000E0,2.073519149E-1,2.198444035E0,3.909809743E0,4.490296562E0
3.908074000E0,-4.368182918E-1,2.271544463E0,1.107916272E1,1.131806392E1
3.918041000E0,-2.108913515E0,2.444930195E0,1.827552866E1,1.855855995E1
3.928008000E0,-4.050091756E0,1.970564592E0,2.161816667E1,2.208237981E1
3.937975000E0,-4.841555956E0,7.388895455E-1,2.079636156E1,2.136528202E1
3.947942000E0,-5.389002691E0,3.633304855E-1,1.843981436E1,1.921458074E1
3.957909000E0,-5.709325444E0,6.736077216E-1,1.700643728E1,1.795185375E1
3.967876000E0,-5.207894542E0,5.780048686E-1,1.788194672E1,1.863384753E1
3.977843000E0,-4.862346316E0,8.239653638E-1,1.940445292E1,2.002134171E1
3.987810000E0,-4.962355338E0,1.719149522E0,1.982237447E1,2.050626673E1
3.997777000E0,-4.529248859E0,2.877658944E0,1.880534253E1,1.955596901E1
4.007744000E0,-3.365025246E0,4.014194822E0,1.696906889E1,1.775912312E1
4.017711000E0,-1.846682558E0,4.836489344E0,1.470256063E1,1.558740372E1
4.027678000E0,-2.784248212E-1,5.177765594E0,1.184247111E1,1.292791162E1
4.037645000E0,9.250371176E-1,5.148473382E0,8.641856706E0,1.010169091E1
4.047612000E0,1.562749659E0,4.689145356E0,5.479179620E0,7.379138160E0
4.057579000E0,1.641033206E0,3.970323455E0,2.643137941E0,5.044069438E0
4.067546000E0,1.552292937E0,3.068778111E0,2.499322164E-1,3.448112320E0
4.077513000E0,1.532954441E0,2.077682659E0,-1.826773666E0,3.162881056E0
4.087480000E0,1.557916643E0,1.120903347E0,-3.583783616E0,4.065345445E0
4.097447000E0,1.585835052E0,2.884381780E-1,-4.867382523E0,5.127326986E0
4.107414000E0,1.681967955E0,-4.390671310E-1,-5.668600171E0,5.929150365E0
4.117381000E0,1.907933457E0,-1.029233039E0,-6.139435517E0,6.510929211E0
4.127348000E0,2.092808675E0,-1.497886789E0,-6.454864735E0,6.949013724E0
4.137315000E0,2.136536931E0,-1.925177335E0,-6.761816660E0,7.348010776E0
4.147282000E0,2.097869002E0,-2.322695321E0,-7.077928832E0,7.739059662E0
4.157249000E0,1.905067006E0,-2.716595342E0,-7.238944779E0,7.963133307E0
4.167216000E0,1.672677898E0,-3.056693378E0,-7.192300370E0,7.991896544E0
4.177183000E0,1.596055692E0,-3.340529505E0,-7.166584901E0,8.066379007E0
4.187150000E0,1.574758086E0,-3.569147743E0,-7.205910349E0,8.194133426E0
4.197117000E0,1.546531530E0,-3.724838631E0,-7.310045752E0,8.348829349E0
4.207084000E0,1.605391649E0,-3.775310335E0,-7.368464114E0,8.433535075E0
4.217051000E0,1.695919411E0,-3.652693638E0,-7.288247332E0,8.326875923E0
4.227018000E0,1.798806433E0,-3.417466291E0,-7.106862609E0,8.088403834E0
4.236985000E0,1.912707563E0,-3.095009890E0,-6.906303697E0,7.806059646E0
4.246952000E0,2.029838987E0,-2.748450388E0,-6.700769974E0,7.521605154E0
4.256919000E0,2.139911944E0,-2.384941270E0,-6.492616113E0,7.240250824E0
4.266886000E0,2.295113128E0,-2.013992155E0,-6.358717214E0,7.053863713E0
4.276853000E0,2.331767276E0,-1.686108660E0,-6.354040026E0,6.975236605E0
4.286820000E0,2.214396993E0,-1.405719175E0,-6.376980407E0,6.895323020E0
4.296787000E0,2.018376982E0,-1.146267399E0,-6.340607802E0,6.752116845E0
4.306754000E0,1.783380893E0,-9.330714843E-1,-6.176992768E0,6.496638320E0
4.316721000E0,1.453369305E0,-7.837727728E-1,-5.841403520E0,6.070302890E0
4.326688000E0,1.053822335E0,-6.616969433E-1,-5.326158571E0,5.469584032E0
4.336655000E0,4.962812591E-1,-5.843148914E-1,-4.286920069E0,4.354928548E0
4.346622000E0,-1.568451279E-1,-2.145328805E-1,-2.568049752E0,2.581763793E0
4.356589000E0,-1.029532709E0,6.821879259E-1,-5.023068148E-1,1.333277953E0
4.366556000E0,-2.159387265E0,1.926531258E0,1.495946975E0,3.257657655E0
4.376523000E0,-3.226572534E0,3.321163819E0,3.703369702E0,5.929236593E0
4.386490000E0,-3.886824923E0,3.998637427E0,6.470223032E0,8.541679890E0
4.396457000E0,-4.029319522E0,3.502035449E0,1.002784854E1,1.136034394E1
4.406424000E0,-3.694059765E0,2.552246482E0,1.349362658E1,1.422104067E1
4.416391000E0,-3.090551680E0,1.740710837E0,1.600619152E1,1.639450368E1
4.426359000E0,-2.656095956E0,1.008144471E0,1.811320293E1,1.833464811E1
4.436326000E0,-2.713117126E0,2.827450365E-1,2.084243060E1,2.102017751E1
4.446293000E0,-3.245862499E0,-2.760651773E-1,2.363926845E1,2.386266641E1
4.456260000E0,-3.865074743E0,-1.560773885E-1,2.506990904E1,2.536658239E1
4.466227000E0,-4.359969335E0,3.669449419E-1,2.405682748E1,2.445148113E1
4.476194000E0,-4.656103618E0,1.215414232E0,2.084722999E1,2.139540911E1
4.486161000E0,-4.411103528E0,2.697829873E0,1.633413845E1,1.713301489E1
4.496128000E0,-3.946545460E0,4.593073557E0,1.167344448E1,1.315069777E1
4.506095000E0,-3.758307801E0,6.566398035E0,7.885666126E0,1.092822908E1
4.516062000E0,-3.180327491E0,7.875655108E0,5.834774532E0,1.030461160E1
4.526029500E0,-2.123682705E0,7.803772362E0,5.922672801E0,1.002431765E1
4.535996500E0,-6.393371907E-1,6.389056077E0,6.526217723E0,9.155343105E0
4.545963500E0,9.330282149E-1,4.388762486E0,5.926709134E0,7.433549554E0
4.555930500E0,2.007170793E0,2.339038581E0,4.291938735E0,5.283992258E0
4.565897500E0,2.570977745E0,4.193956357E-1,2.095385397E0,3.343121181E0
4.575864500E0,2.658055650E0,-1.442899280E0,-5.222692090E-1,3.069199130E0
4.585831500E0,2.602301572E0,-3.149017697E0,-3.287344986E0,5.243560144E0
4.595798500E0,2.514420552E0,-4.506348531E0,-5.937657461E0,7.866718752E0
4.605765500E0,2.442348649E0,-5.414104203E0,-7.933219777E0,9.910275842E0
4.615732500E0,2.635293024E0,-5.877128254E0,-9.333812698E0,1.134043497E1
4.625699500E0,3.020585652E0,-6.103007948E0,-1.016681113E1,1.223661278E1
4.635666500E0,3.411450091E0,-6.248839846E0,-1.064931752E1,1.280991627E1
4.645633500E0,3.640946289E0,-6.156869575E0,-1.086757186E1,1.301029020E1
4.655600500E0,3.626497234E0,-5.804389476E0,-1.089637408E1,1.286753230E1
4.665567500E0,3.194366363E0,-5.267220976E0,-1.060746081E1,1.226645092E1
4.675534500E0,2.728923612E0,-4.648867396E0,-1.014063315E1,1.148439954E1
4.685501500E0,2.430558323E0,-4.078281182E0,-9.715756332E0,1.081369096E1
4.695468500E0,2.217371472E0,-3.668798331E0,-9.500933722E0,1.042327007E1
4.705435500E0,2.331812592E0,-3.476548313E0,-9.433556841E0,1.032064595E1
4.715402500E0,2.775055512E0,-3.622609421E0,-9.731189473E0,1.074803613E1
4.725369500E0,3.292456914E0,-3.939602769E0,-1.002843677E1,1.126633421E1
4.735336500E0,3.653504062E0,-4.157382023E0,-1.017092289E1,1.157927415E1
4.745303500E0,3.750946449E0,-4.264795375E0,-1.016250290E1,1.164193043E1
4.755270500E0,3.620045124E0,-4.481292043E0,-1.003136155E1,1.156783989E1
4.765237500E0,3.353212116E0,-4.790789260E0,-9.819250295E0,1.142862063E1
4.775204500E0,3.206490272E0,-5.079897237E0,-9.415540985E0,1.116867709E1
4.785171500E0,3.265803258E0,-5.284311218E0,-8.850533307E0,1.081301789E1
4.795138500E0,3.422529103E0,-5.532623171E0,-8.372479573E0,1.060292596E1
4.805105500E0,3.548136359E0,-5.686262271E0,-8.011304079E0,1.044527852E1
4.815072500E0,3.728687561E0,-5.624035032E0,-7.780360111E0,1.029887782E1
4.825039500E0,4.044768451E0,-5.425330272E0,-7.550072200E0,1.013893242E1
4.835006500E0,4.163018155E0,-5.190814240E0,-7.270731997E0,9.855902618E0
4.844973500E0,3.689599801E0,-4.853267344E0,-6.890753027E0,9.200534109E0
4.854940500E0,2.609998554E0,-4.262624304E0,-6.455198611E0,8.164046026E0
4.864907500E0,1.047804673E0,-3.239013655E0,-5.885189810E0,6.798864846E0
4.874874500E0,-6.550451508E-1,-1.678621008E0,-5.042669769E0,5.354938939E0
4.884841500E0,-1.983695392E0,1.436827531E-1,-3.984721346E0,4.453503829E0
4.894808500E0,-2.925338310E0,1.786463253E0,-2.638090040E0,4.325340939E0
4.904775500E0,-3.091561787E0,3.240649414E0,-1.060998330E0,4.602747045E0
4.914742500E0,-1.485314983E0,4.203415983E0,1.657954609E-1,4.461205516E0
4.924709500E0,6.835193369E-1,3.994466901E0,9.816358262E-1,4.169721022E0
4.934676500E0,1.339736562E0,3.804818893E0,2.201327004E0,4.595365213E0
4.944643500E0,9.406006515E-2,4.633618442E0,4.455849638E0,6.429141713E0
4.954610500E0,-2.089228279E0,5.182780166E0,7.770406981E0,9.571066278E0
4.964577500E0,-3.203399434E0,4.149578622E0,1.088109179E1,1.207803499E1
4.974544500E0,-3.408918832E0,2.492763342E0,1.276861861E1,1.344887423E1
4.984511500E0,-3.721733759E0,1.842848538E0,1.371645344E1,1.433138123E1
4.994478500E0,-3.620979509E0,1.896572464E0,1.424146207E1,1.481646792E1
5.004445500E0,-3.316896229E0,1.504859886E0,1.536499988E1,1.579080825E1
5.014412500E0,-3.286402999E0,1.199828187E0,1.668830664E1,1.705108826E1
5.024379500E0,-3.435396778E0,1.655033925E0,1.696355613E1,1.738687220E1
5.034346500E0,-3.198428131E0,2.456449502E0,1.573910006E1,1.624756466E1
5.044313500E0,-2.613430870E0,3.065980218E0,1.355989775E1,1.414570898E1
5.054280500E0,-2.006860599E0,3.416397713E0,1.096794984E1,1.166169741E1
5.064247500E0,-1.511991150E0,3.526534697E0,8.456632701E0,9.286398702E0
5.074214500E0,-1.101315467E0,3.333909580E0,6.197448667E0,7.122936110E0
5.084181500E0,-7.900512207E-1,3.036112933E0,4.214792910E0,5.254202313E0
5.094148500E0,-5.439097542E-1,2.762549779E0,2.507044582E0,3.769985629E0
5.104115500E0,-3.321636567E-1,2.427050286E0,1.096910759E0,2.684048994E0
5.114082500E0,-1.507336181E-1,1.999898611E0,-1.962682253E-1,2.015151680E0
5.124049500E0,1.213355720E-1,1.681398143E0,-1.225652415E0,2.084237481E0
5.134016500E0,3.245017576E-1,1.422125585E0,-1.906011039E0,2.400129299E0
5.143983500E0,4.685116625E-1,1.176415643E0,-2.450442950E0,2.758283450E0
5.153950500E0,6.436568213E-1,9.830871052E-1,-2.947885466E0,3.173449713E0
5.163917500E0,9.059722710E-1,8.147858199E-1,-3.402264408E0,3.613871164E0
5.173884500E0,1.204855330E0,5.216985208E-1,-3.779444316E0,4.001005505E0
5.183851500E0,1.449125688E0,1.026405618E-1,-4.125090190E0,4.373427651E0
5.193818500E0,1.605309496E0,-3.614190307E-1,-4.528239337E0,4.817944976E0
5.203785500E0,1.607281469E0,-7.891270682E-1,-4.881324624E0,5.199365859E0
5.213752500E0,1.522681322E0,-1.129899580E0,-5.158463935E0,5.495905898E0
5.223719500E0,1.353318767E0,-1.277012018E0,-5.179646643E0,5.503723351E0
5.233686500E0,1.228394466E0,-1.337105315E0,-4.946951433E0,5.269642500E0
5.243653500E0,1.288569917E0,-1.390281941E0,-4.597481480E0,4.972940002E0
5.253620500E0,1.405494349E0,-1.370665409E0,-4.155099270E0,4.595540009E0
5.263587500E0,1.494671697E0,-1.307842047E0,-3.955387035E0,4.426011850E0
5.273554500E0,1.555728908E0,-1.213810633E0,-4.094004053E0,4.544721980E0
5.283521500E0,1.485193653E0,-1.149639488E0,-4.455376014E0,4.835064277E0
5.293488500E0,1.404559380E0,-1.186283989E0,-4.805555819E0,5.145233083E0
5.303455500E0,1.383930987E0,-1.238458986E0,-5.232870923E0,5.552655557E0
5.313423500E0,1.345958000E0,-1.152716585E0,-5.734409414E0,6.001983821E0
5.323390500E0,1.391789061E0,-1.023999488E0,-6.029778004E0,6.272469571E0
5.333357500E0,1.435733225E0,-9.973373544E-1,-5.835735229E0,6.091946927E0
5.343324500E0,1.385115487E0,-1.150954819E0,-5.023662810E0,5.336705907E0
5.353291500E0,1.177804357E0,-1.398355776E0,-3.999845170E0,4.397883964E0
5.363257500E0,8.511799134E-1,-1.627970380E0,-2.975747448E0,3.497122771E0
5.373225500E0,4.644213890E-1,-1.716645159E0,-1.808999884E0,2.536737750E0
5.383192500E0,1.282545823E-1,-1.634263153E0,-5.545592880E-1,1.730549420E0
5.393159500E0,6.577094346E-3,-1.511295623E0,6.079139614E-1,1.628992665E0
5.403126500E0,1.448311463E-1,-1.369359434E0,1.399184327E0,1.963119482E0
5.413093500E0,1.558728822E-1,-7.458772606E-1,1.954846984E0,2.098107713E0
5.423060500E0,-1.247370435E-1,5.141868952E-1,2.461032257E0,2.517265831E0
5.433027500E0,-5.906197979E-1,1.835846790E0,3.229487371E0,3.761482934E0
5.442994500E0,-8.100586385E-1,2.651973084E0,4.847736463E0,5.584774396E0
5.452961500E0,-4.713792832E-1,2.962190094E0,7.736289062E0,8.297405440E0
5.462928500E0,3.980778569E-1,2.925247678E0,1.151442828E1,1.188686664E1
5.472895500E0,1.237647831E0,2.641303085E0,1.527232151E1,1.554837800E1
5.482862500E0,1.572285006E0,2.207204918E0,1.822825742E1,1.842859741E1
5.492829500E0,1.272603802E0,1.887073954E0,1.974512574E1,1.987587882E1
5.502796500E0,3.428253235E-1,1.958153000E0,1.930995022E1,1.941200839E1
5.512763500E0,-8.533344662E-1,2.402249029E0,1.733463798E1,1.752109169E1
5.522730500E0,-1.558602229E0,3.067966810E0,1.470518954E1,1.510245876E1
5.532697333E0,-1.769191748E0,3.827517784E0,1.221848567E1,1.292560729E1
5.542664333E0,-1.897395898E0,4.205093549E0,1.041351686E1,1.138965567E1
5.552631333E0,-2.177514803E0,4.198054086E0,9.174457945E0,1.032162329E1
5.562598333E0,-2.524814855E0,3.801452066E0,8.341330871E0,9.508077017E0
5.572565333E0,-2.533914292E0,3.279364413E0,7.639476712E0,8.691176965E0
5.582532333E0,-1.820176252E0,2.623558540E0,6.845507272E0,7.553613097E0
5.592499333E0,-5.065150559E-1,1.734662770E0,5.810483444E0,6.085008650E0
5.602466333E0,8.670887254E-1,6.308151662E-1,4.580208220E0,4.704049104E0
5.612433333E0,1.824531112E0,-4.183194557E-1,3.052109161E0,3.580401552E0
5.622400333E0,2.254744682E0,-1.242966605E0,1.279749684E0,2.875169354E0
5.632367333E0,2.275642046E0,-1.732283245E0,-7.175556868E-1,2.948599350E0
5.642334333E0,2.117688578E0,-1.966286769E0,-2.677891452E0,3.939795833E0
5.652301333E0,1.761538181E0,-2.229206236E0,-4.550225453E0,5.364413190E0
5.662268333E0,1.204527740E0,-2.663711077E0,-6.156741521E0,6.815549130E0
5.672235333E0,5.112678190E-1,-3.223295170E0,-7.284642524E0,7.982295612E0
5.682202333E0,-2.016789463E-1,-3.839741973E0,-7.948550591E0,8.829708337E0
5.692169333E0,-7.750646608E-1,-4.459338672E0,-8.373440271E0,9.518452006E0
5.702136333E0,-1.202348629E0,-5.002711651E0,-8.764488605E0,1.016312091E1
5.712103333E0,-1.681575899E0,-5.391036937E0,-9.295805211E0,1.087671694E1
5.722070333E0,-2.185754554E0,-5.630412591E0,-9.896701344E0,1.159412638E1
5.732037333E0,-2.543423034E0,-5.715894206E0,-1.038450063E1,1.212346076E1
5.742004333E0,-2.600587753E0,-5.636102516E0,-1.065089744E1,1.232762445E1
5.751971333E0,-2.223185212E0,-5.462437288E0,-1.061670526E1,1.214476036E1
5.761938333E0,-1.596856907E0,-5.191268569E0,-1.021151427E1,1.156608166E1
5.771905333E0,-9.963402580E-1,-4.927198370E0,-9.413918967E0,1.067201237E1
5.781872333E0,-6.770031998E-1,-4.646777601E0,-8.599529296E0,9.798100812E0
5.791839333E0,-1.512445186E-1,-4.454307727E0,-7.980608536E0,9.140779225E0
5.801806333E0,3.091585176E-1,-4.400126842E0,-7.234800857E0,8.473431339E0
5.811773333E0,6.007508299E-1,-4.544816778E0,-6.896313729E0,8.281026758E0
5.821740333E0,7.817120679E-1,-4.857900093E0,-6.849098632E0,8.433292308E0
5.831707333E0,8.123497237E-1,-5.205162722E0,-6.923793304E0,8.700146249E0
5.841674333E0,7.147700733E-1,-5.464417740E0,-7.087694267E0,8.978093757E0
5.851641333E0,6.481849051E-1,-5.519077511E0,-7.466952860E0,9.307832469E0
5.861608333E0,5.844952780E-1,-5.398619022E0,-7.548295231E0,9.298574244E0
5.871575333E0,5.684554884E-1,-5.085776027E0,-7.210750090E0,8.842125101E0
5.881542333E0,7.272116326E-1,-4.534496443E0,-6.548143027E0,7.998041751E0
5.891509333E0,9.135854919E-1,-3.988761773E0,-5.744191806E0,7.052701499E0
5.901476333E0,1.216584845E0,-3.466854506E0,-5.052503031E0,6.247155011E0
5.911443333E0,1.727112114E0,-3.078919230E0,-4.603119366E0,5.800979897E0
5.921410333E0,2.007276482E0,-2.772632133E0,-4.230420763E0,5.441792688E0
5.931377333E0,1.654141640E0,-2.236285168E0,-4.237743816E0,5.069085575E0
5.941344333E0,5.571950667E-1,-1.201604571E0,-4.615088031E0,4.801391197E0
5.951311333E0,-1.150474617E0,3.168992078E-1,-5.140472052E0,5.277164946E0
5.961278333E0,-2.177922354E0,1.364399825E0,-5.141977710E0,5.748466529E0
5.971245333E0,-1.601055062E0,9.592439139E-1,-4.255367324E0,4.646684545E0
5.981212333E0,-5.982448594E-1,1.201392317E-1,-2.367152871E0,2.444533301E0
5.991179333E0,-5.670116647E-1,7.579447442E-1,2.458374113E-1,9.779665106E-1
6.001146333E0,-1.585441388E0,2.790921054E0,3.024664085E0,4.410380659E0
6.011113333E0,-2.347818321E0,4.226574465E0,5.373294731E0,7.228310926E0
6.021080333E0,-1.558234878E0,3.527657363E0,6.536876612E0,7.589678402E0
6.031047333E0,-9.688160983E-1,2.241079300E0,6.931804574E0,7.349214633E0
6.041014333E0,-1.603873712E0,2.280899716E0,7.179237691E0,7.701712031E0
6.050981333E0,-2.577014703E0,3.108511696E0,7.598159117E0,8.604410015E0
6.060948333E0,-2.567383754E0,3.173588575E0,8.362838684E0,9.305922557E0
6.070915333E0,-2.280072919E0,2.860226055E0,9.632695464E0,1.030380743E1
6.080882333E0,-2.121163432E0,3.226024358E0,1.139729452E1,1.203349034E1
6.090849333E0,-1.642519568E0,3.686672977E0,1.317863473E1,1.378280964E1
6.100816333E0,-8.521161988E-1,3.594986882E0,1.413072984E1,1.460573718E1
6.110783333E0,-8.068894476E-2,3.191860831E0,1.389131676E1,1.425353176E1
6.120750333E0,2.660154216E-1,2.864838046E0,1.263255858E1,1.295606413E1
6.130717333E0,9.233806014E-2,2.580418075E0,1.072496763E1,1.103141035E1
6.140684333E0,-1.036538842E-1,2.172414862E0,8.664947945E0,8.933725614E0
6.150651333E0,-1.319460757E-1,1.757208171E0,6.691213869E0,6.919359318E0
6.160618333E0,-2.388659222E-1,1.609424181E0,4.857655680E0,5.122901700E0
6.170585333E0,-3.138987091E-1,1.563881680E0,3.295110673E0,3.660875941E0
6.180552333E0,-3.156259766E-1,1.518216973E0,2.090328140E0,2.602705183E0
6.190519333E0,-2.212636104E-1,1.414877376E0,1.112739172E0,1.813566663E0
6.200486333E0,1.127372414E-2,1.248628756E0,2.017230928E-1,1.264868797E0
6.210453333E0,2.231629322E-1,9.919245869E-1,-6.149452382E-1,1.188222928E0
6.220420333E0,3.753544074E-1,6.752249153E-1,-1.342436514E0,1.548856162E0
6.230387333E0,4.740577465E-1,3.309433427E-1,-2.043981355E0,2.124173727E0
6.240354333E0,4.691300055E-1,2.377302468E-2,-2.804463791E0,2.843530424E0
6.250321333E0,4.144714031E-1,-2.665912262E-1,-3.600279781E0,3.633850840E0
6.260288333E0,3.672349638E-1,-5.006029361E-1,-4.293161387E0,4.337821978E0
6.270255333E0,3.768936870E-1,-6.865920487E-1,-4.784427490E0,4.848113437E0
6.280222333E0,4.565219468E-1,-8.102206063E-1,-5.019862120E0,5.105280151E0
6.290189333E0,5.966934469E-1,-9.003767779E-1,-5.081778871E0,5.195305372E0
6.300156333E0,7.581154829E-1,-9.546295837E-1,-4.957037880E0,5.104731264E0
6.310123333E0,9.044119415E-1,-9.911831599E-1,-4.674638414E0,4.863398947E0
6.320090333E0,1.035017397E0,-9.595345205E-1,-4.341543004E0,4.565190375E0
6.330057333E0,1.069981992E0,-8.718640003E-1,-4.102097184E0,4.328072274E0
6.340024333E0,1.034861276E0,-7.739672846E-1,-4.028439224E0,4.230636571E0
6.349991333E0,1.030225896E0,-7.107328632E-1,-4.124520671E0,4.310240987E0
6.359958333E0,1.098028308E0,-7.078370297E-1,-4.364537179E0,4.555862621E0
6.369925333E0,1.165951466E0,-7.220913720E-1,-4.658369122E0,4.856054123E0
6.379892333E0,1.278424559E0,-7.766648975E-1,-4.981629515E0,5.201366200E0
6.389859333E0,1.487296458E0,-9.044862011E-1,-5.396363751E0,5.670175286E0
6.399826333E0,1.534424285E0,-1.070547710E0,-5.710839288E0,6.009510434E0
6.409793333E0,1.453933707E0,-1.163821617E0,-5.806625451E0,6.097975329E0
6.419760333E0,1.320210809E0,-1.257627621E0,-5.705689060E0,5.989947534E0
6.429727333E0,1.062147893E0,-1.332964902E0,-5.413137658E0,5.675122279E0
6.439694333E0,5.280404109E-1,-1.271240231E0,-5.019784352E0,5.205104546E0
6.449661333E0,-9.915372089E-2,-9.235887623E-1,-4.644756804E0,4.736730246E0
6.459628333E0,-7.537172073E-1,-2.679890031E-1,-3.993806165E0,4.073130911E0
6.469595333E0,-1.308978746E0,6.943217754E-1,-2.789952756E0,3.159010045E0
6.479562333E0,-1.584067438E0,1.958732751E0,-1.047359115E0,2.728161424E0
6.489529333E0,-2.112115743E0,3.771157934E0,9.530914736E-1,4.426177632E0
6.499496333E0,-2.285142602E0,5.846612220E0,2.307220665E0,6.687900893E0
6.509463333E0,-1.697737311E0,6.858039610E0,3.381845931E0,7.832745442E0
6.519430333E0,-7.366181946E-1,6.053435839E0,5.846169001E0,8.447744303E0
6.529397208E0,1.964693695E-2,4.571309635E0,1.022256784E1,1.119813159E1
6.539364208E0,4.251674954E-1,3.316268238E0,1.590783199E1,1.625538437E1
6.549331208E0,8.661938091E-1,2.086410506E0,2.127864692E1,2.139822925E1
6.559299208E0,1.485970017E0,3.437082531E-1,2.491536012E1,2.496199936E1
6.569265208E0,1.581449640E0,-9.653726730E-1,2.634695965E1,2.641202776E1
6.579232208E0,1.400253198E0,-1.036097962E0,2.564486342E1,2.570395354E1
6.589199208E0,1.470268050E0,-3.720463452E-1,2.290825891E1,2.295840658E1
6.599167208E0,1.534009864E0,4.650711608E-1,1.934527208E1,1.941156947E1
6.609134208E0,2.040135787E0,1.010472247E0,1.600961331E1,1.617068107E1
6.619100208E0,2.550113418E0,1.530273931E0,1.272616783E1,1.306905369E1
6.629068208E0,2.295299800E0,1.907556166E0,9.616734905E0,1.006919867E1
6.639035208E0,1.244535998E0,2.079719537E0,7.323006105E0,7.713658122E0
6.649002208E0,-3.953613136E-2,2.003111072E0,5.669630451E0,6.013212662E0
6.658969208E0,-1.026031834E0,1.017181635E0,3.642499017E0,3.918571027E0
6.668936208E0,-1.949340076E0,-3.209612685E-1,1.103572492E0,2.262921809E0
6.678903208E0,-2.953974171E0,-7.717728245E-1,-1.138546443E0,3.258509583E0
6.688870208E0,-3.093751277E0,-7.148425788E-1,-2.890918382E0,4.294147875E0
6.698837208E0,-2.138459496E0,-1.131353198E0,-4.462180418E0,5.075827338E0
6.708804208E0,-7.387207071E-1,-1.809314464E0,-5.903288696E0,6.218371535E0
6.718771208E0,1.624074746E-1,-2.526966338E0,-7.166481990E0,7.600684125E0
6.728738208E0,4.202930737E-1,-3.303354370E0,-8.209690166E0,8.859334568E0
6.738705208E0,3.593426844E-1,-3.890680870E0,-9.081051013E0,9.885950248E0
6.748672208E0,2.162531679E-1,-4.298728229E0,-9.816732484E0,1.071886498E1
6.758639208E0,1.825953520E-1,-4.587794983E0,-1.019304057E1,1.117941322E1
6.768606208E0,1.638525774E-1,-4.883893890E0,-1.013538118E1,1.125189845E1
6.778573208E0,5.272723060E-2,-5.225018697E0,-9.583354320E0,1.091532320E1
6.788540208E0,2.591149762E-2,-5.591847864E0,-8.852837695E0,1.047101567E1
6.798507208E0,1.277425124E-1,-5.935496914E0,-8.328617855E0,1.022801629E1
6.808474208E0,3.379778355E-1,-6.242582155E0,-8.017464121E0,1.016679851E1
6.818441208E0,9.244051798E-1,-6.192491983E0,-7.926289657E0,1.010086876E1
6.828408208E0,2.045975548E0,-5.797876262E0,-8.111961558E0,1.017866914E1
6.838375208E0,3.519306954E0,-5.226928983E0,-8.527495692E0,1.060304158E1
6.848342208E0,4.520231868E0,-4.755410682E0,-8.606951752E0,1.082247871E1
6.858309208E0,4.731627132E0,-4.524629851E0,-8.220615689E0,1.050900057E1
6.868276208E0,4.312849255E0,-4.473716975E0,-7.680805417E0,9.879756279E0
6.878243208E0,3.415799250E0,-4.569259309E0,-7.220365251E0,9.202145919E0
6.888210208E0,2.299166125E0,-4.778765631E0,-7.064329378E0,8.833318481E0
6.898177208E0,1.478804108E0,-5.034741529E0,-7.262191554E0,8.959626668E0
6.908144208E0,9.874581912E-1,-5.250690898E0,-7.641259528E0,9.323823023E0
6.918111208E0,6.436781636E-1,-5.413206071E0,-8.075029959E0,9.742855351E0
6.928078208E0,3.610648356E-1,-5.467269427E0,-8.602761637E0,1.019945639E1
6.938045208E0,2.334694538E-1,-5.359336258E0,-9.148724349E0,1.060547737E1
6.948012208E0,3.257816400E-1,-5.134150043E0,-9.394549481E0,1.071089120E1
6.957979208E0,4.074759404E-1,-4.960195962E0,-9.255870482E0,1.050907793E1
6.967946208E0,2.198972623E-1,-4.596654099E0,-8.930862941E0,1.004678539E1
6.977913208E0,-2.764633727E-1,-4.140966550E0,-8.494232637E0,9.453889361E0
6.987880208E0,-1.222017420E0,-3.636724892E0,-7.985253564E0,8.859083982E0
6.997847208E0,-2.787749817E0,-2.654313725E0,-7.279852484E0,8.234875991E0
7.007814208E0,-4.751168819E0,-9.070838267E-1,-6.305893468E0,7.947370549E0
7.017781208E0,-6.240376001E0,1.310297878E0,-5.137050261E0,8.188312314E0
7.027748208E0,-6.029602588E0,2.632467942E0,-3.898845629E0,7.647678868E0
7.037715208E0,-3.784239033E0,2.006305405E0,-2.575927706E0,4.998112642E0
7.047682208E0,-9.249602998E-1,7.931660324E-1,-7.151828867E-1,1.412851893E0
7.057649208E0,1.218733477E0,9.767539859E-1,2.270413612E0,2.755746288E0
7.067616208E0,2.595154228E0,2.613998342E0,6.549803637E0,7.514502011E0
7.077583208E0,2.961946265E0,4.874384564E0,1.115995837E1,1.253305316E1
7.087550208E0,3.601173528E0,5.335734556E0,1.361862368E1,1.506338026E1
7.097517208E0,4.359926065E0,3.169160478E0,1.364154944E1,1.466780163E1
7.107484208E0,3.243083902E0,1.563655685E0,1.280508653E1,1.330161093E1
7.117451208E0,7.585679112E-1,2.429238899E0,1.263146165E1,1.288528037E1
7.127418208E0,-1.422246037E-1,3.714314227E0,1.331292773E1,1.382209835E1
7.137385208E0,1.082912963E0,3.733717628E0,1.374314832E1,1.428241834E1
7.147352208E0,2.139660368E0,4.018463582E0,1.343600110E1,1.418634278E1
7.157319208E0,2.463772847E0,4.989775271E0,1.282777957E1,1.398284530E1
7.167286208E0,2.997571011E0,5.743704733E0,1.238902673E1,1.398082828E1
7.177253208E0,3.648083108E0,6.260483991E0,1.199459695E1,1.401329819E1
7.187220208E0,4.039330248E0,6.461844556E0,1.093639827E1,1.332953229E1
7.197187208E0,4.087946630E0,6.068005346E0,8.981004569E0,1.158405972E1
7.207154208E0,3.670054313E0,5.071034027E0,6.467216978E0,9.000532218E0
7.217121208E0,2.818721057E0,3.954281911E0,3.959574226E0,6.265761078E0
7.227088208E0,1.700961173E0,2.886539987E0,1.835945608E0,3.820481421E0
7.237055208E0,6.311958200E-1,1.815100869E0,2.168024772E-1,1.933908644E0
7.247022208E0,-1.804971883E-1,8.566703027E-1,-9.689678335E-1,1.305895059E0
7.256989208E0,-7.068447572E-1,8.631718218E-2,-1.829911866E0,1.963582849E0
7.266956208E0,-1.093816267E0,-6.101297638E-1,-2.419525212E0,2.724480612E0
7.276923208E0,-1.401680649E0,-1.202604445E0,-2.962614017E0,3.491138483E0
7.286890208E0,-1.689932301E0,-1.594676919E0,-3.481254444E0,4.185450772E0
7.296857208E0,-1.809971399E0,-1.800363254E0,-3.968167879E0,4.718438368E0
7.306824208E0,-1.627079118E0,-1.912756095E0,-4.408676641E0,5.073702007E0
7.316791208E0,-1.248667786E0,-2.013995371E0,-4.785454845E0,5.340030587E0
7.326758208E0,-8.766300657E-1,-2.080490492E0,-5.005559245E0,5.491133245E0
7.336725208E0,-6.903044459E-1,-2.085845665E0,-5.073193989E0,5.528523276E0
7.346692208E0,-6.200744158E-1,-2.110812106E0,-4.995337728E0,5.458334823E0
7.356659208E0,-6.204060991E-1,-2.184194955E0,-4.814898500E0,5.323425485E0
7.366626208E0,-5.941980746E-1,-2.250323748E0,-4.596088089E0,5.151801048E0
7.376593208E0,-5.347711408E-1,-2.275648624E0,-4.421983734E0,5.001849356E0
7.386560208E0,-4.309177934E-1,-2.230961570E0,-4.241906449E0,4.812135700E0
7.396527208E0,-3.159921585E-1,-2.116573368E0,-4.013239971E0,4.548167646E0
7.406494208E0,-2.082417150E-1,-1.891198580E0,-3.766176399E0,4.219488280E0
7.416461208E0,-8.914394550E-2,-1.481892022E0,-3.605210738E0,3.898909473E0
7.426428208E0,1.016960537E-1,-1.146210096E0,-3.512418349E0,3.696109080E0
7.436395208E0,4.331830048E-1,-1.025569173E0,-3.532985346E0,3.704244201E0
7.446362208E0,7.704894338E-1,-9.935539135E-1,-3.636351839E0,3.847578205E0
7.456329208E0,1.129120366E0,-9.509516850E-1,-3.716815374E0,3.999242232E0
7.466296208E0,1.479139884E0,-1.075963986E0,-3.744285008E0,4.167160127E0
7.476263208E0,1.766080298E0,-1.352097868E0,-3.715965189E0,4.330774244E0
7.486230208E0,1.740567434E0,-1.634196787E0,-3.518872506E0,4.252368499E0
7.496197208E0,1.461277225E0,-1.766464899E0,-3.105525230E0,3.860053927E0
7.506164208E0,1.031556138E0,-1.616838743E0,-2.455058742E0,3.115379433E0
7.516131208E0,5.337073861E-1,-1.276779006E0,-1.831485937E0,2.295506249E0
7.526098208E0,7.960099719E-2,-7.466572791E-1,-1.175566335E0,1.394915631E0
7.536065125E0,1.083816504E-1,-1.195898858E-1,-5.668004340E-1,5.893310232E-1
7.546032125E0,7.217748915E-1,5.128306335E-1,5.199344158E-3,8.854271770E-1
7.555999125E0,1.604240478E0,1.001104715E0,9.296827304E-1,2.107156412E0
7.565966125E0,2.610217240E0,1.395891467E0,2.465744528E0,3.852485316E0
7.575933125E0,3.124674861E0,1.701003273E0,4.856152360E0,6.019902065E0
7.585900125E0,2.662785755E0,1.916786873E0,7.896535515E0,8.551010059E0
7.595867125E0,1.477067777E0,1.998502589E0,1.038333236E1,1.067657870E1
7.605834125E0,-1.410037417E-1,1.737551294E0,1.150171877E1,1.163307789E1
7.615801125E0,-1.367102408E0,1.254218694E0,1.191764058E1,1.206118528E1
7.625768125E0,-1.509216500E0,6.979473415E-1,1.233824249E1,1.244978284E1
7.635735125E0,-1.042699688E0,6.510143727E-1,1.285646367E1,1.291509584E1
7.645702125E0,-5.385753028E-1,1.617479013E0,1.333648617E1,1.344500520E1
7.655669125E0,-1.931362739E-1,3.156215912E0,1.353836246E1,1.390274284E1
7.665636125E0,-1.700185942E-1,4.719014396E0,1.291563282E1,1.375178440E1
7.675603125E0,-4.488366223E-1,5.968426094E0,1.173672188E1,1.317475635E1
7.685570125E0,-6.274058741E-1,6.769563636E0,1.034814031E1,1.238162500E1
7.695537125E0,-7.948869411E-1,7.283588855E0,9.213048983E0,1.177126941E1
7.705504125E0,-5.963328199E-1,7.125059144E0,8.212609096E0,1.088894067E1
7.715471125E0,-8.946594436E-2,6.431955929E0,7.258459277E0,9.698623216E0
7.725438125E0,1.452808155E-1,5.556201484E0,6.626705632E0,8.649029366E0
7.735405125E0,2.498338005E-1,4.449294325E0,6.296593471E0,7.713995479E0
7.745372125E0,4.840648541E-1,3.116937826E0,5.842698678E0,6.639785240E0
7.755339125E0,7.783483109E-1,1.831557273E0,4.991876761E0,5.373942848E0
7.765306125E0,1.179137814E0,7.698040670E-1,3.799828295E0,4.052364662E0
7.775273125E0,1.622606290E0,-1.682375506E-1,2.363373815E0,2.871705214E0
7.785240125E0,2.016208104E0,-1.017068491E0,6.872291028E-1,2.360467596E0
7.795207125E0,2.337199047E0,-1.906092900E0,-1.020747267E0,3.183962078E0
7.805174125E0,2.417429278E0,-2.626825671E0,-2.685365948E0,4.467143125E0
7.815141125E0,2.369809553E0,-3.084919350E0,-4.046049868E0,5.612775093E0
7.825108125E0,2.212617393E0,-3.623877974E0,-5.020985370E0,6.575595896E0
7.835075125E0,1.915038701E0,-4.287608579E0,-5.849636400E0,7.501280328E0
7.845042125E0,1.363237691E0,-4.857903017E0,-6.748945184E0,8.426499856E0
7.855009125E0,7.141686872E-1,-5.259893246E0,-7.612319319E0,9.280297371E0
7.864976125E0,2.052939508E-1,-5.580667403E0,-8.482793729E0,1.015597281E1
7.874943125E0,-1.188957116E-1,-5.870829633E0,-9.418179833E0,1.109877868E1
7.884910125E0,-3.677763429E-1,-6.142255629E0,-1.027228789E1,1.197424161E1
7.894877125E0,-4.355476188E-1,-6.286587716E0,-1.093288643E1,1.261898936E1
7.904844125E0,-3.703661112E-1,-6.272198303E0,-1.122415612E1,1.286309929E1
7.914811125E0,-1.382217461E-1,-6.128050988E0,-1.116342460E1,1.273554722E1
7.924778125E0,2.765303964E-1,-5.984504768E0,-1.092870216E1,1.246303724E1
7.934745125E0,6.958504569E-1,-6.032201090E0,-1.073520493E1,1.233354299E1
7.944712125E0,8.063333774E-1,-6.106167784E0,-1.056412242E1,1.222849709E1
7.954679125E0,6.672547218E-1,-6.030149302E0,-1.032106536E1,1.197214766E1
7.964646125E0,5.492534515E-1,-5.906916894E0,-9.973050778E0,1.160409791E1
7.974613125E0,5.480062769E-1,-5.938341000E0,-9.665856779E0,1.135750818E1
7.984580125E0,5.385310832E-1,-5.987385106E0,-9.508201227E0,1.124920827E1
7.994547125E0,5.137527760E-1,-6.025796635E0,-9.331007203E0,1.111943625E1
8.004514125E0,3.490762528E-1,-6.091072027E0,-9.032458313E0,1.089992274E1
8.014481125E0,3.577958766E-2,-6.151433419E0,-8.622472016E0,1.059190431E1
8.024448125E0,-2.655456709E-1,-6.191223137E0,-7.951565416E0,1.008112846E1
8.034415125E0,-5.524803105E-1,-6.167102787E0,-7.301494199E0,9.573411556E0
8.044382125E0,-1.075332852E0,-5.979104279E0,-6.804613600E0,9.121885495E0
8.054349125E0,-1.769009022E0,-5.672772160E0,-6.512637565E0,8.816132085E0
8.064316125E0,-2.460901279E0,-5.353712990E0,-6.467621605E0,8.749194656E0
8.074283125E0,-3.339597166E0,-4.775549077E0,-6.244708788E0,8.541379635E0
8.084250125E0,-4.396595124E0,-3.566451885E0,-5.725343306E0,8.051657202E0
8.094217125E0,-5.466081857E0,-1.685464005E0,-4.851998498E0,7.500715246E0
8.104184125E0,-6.335177493E0,6.151978379E-1,-3.667639121E0,7.346054653E0
8.114151125E0,-5.956867903E0,2.536930286E0,-2.280014740E0,6.864310431E0
8.124118125E0,-3.809650740E0,3.378289654E0,-8.554447263E-1,5.163144916E0
8.134085125E0,-1.205067584E0,4.102878372E0,1.054404425E0,4.404266966E0
8.144052125E0,8.610167574E-1,5.697511729E0,3.743969843E0,6.871702842E0
8.154019125E0,2.931091970E0,7.068489672E0,6.787023422E0,1.022832016E1
8.163986125E0,4.994514440E0,6.803938832E0,9.976299491E0,1.306772014E1
8.173953125E0,5.568768904E0,5.282717267E0,1.271073118E1,1.484860182E1
8.183920125E0,3.932562721E0,4.371705281E0,1.470041003E1,1.583284281E1
8.193887125E0,1.010299535E0,4.871790739E0,1.626594822E1,1.700988306E1
8.203854125E0,-2.958418494E-1,5.525148675E0,1.708605062E1,1.795961904E1
8.213821125E0,4.001853396E-1,5.418515342E0,1.704909271E1,1.789391011E1
8.223788125E0,1.332803372E0,5.523761716E0,1.643302656E1,1.738771608E1
8.233755125E0,2.031205335E0,6.151071476E0,1.583822791E1,1.711171934E1
8.243722125E0,2.594478582E0,6.497276344E0,1.543995534E1,1.695105129E1
8.253689125E0,2.718676366E0,6.610984223E0,1.477565083E1,1.641390176E1
8.263656125E0,2.422743227E0,6.644616823E0,1.347426294E1,1.521763382E1
8.273623125E0,2.068916367E0,6.262146939E0,1.141007419E1,1.317894883E1
8.283590125E0,1.865500360E0,5.529647523E0,8.918744001E0,1.065838111E1
8.293557125E0,1.684955589E0,4.681765878E0,6.278842494E0,8.011358820E0
8.303524125E0,1.553722728E0,3.627432204E0,3.751223899E0,5.444630332E0
8.313491125E0,1.285313602E0,2.371828012E0,1.666630123E0,3.171002230E0
8.323458125E0,8.999498581E-1,1.222937260E0,1.331066018E-1,1.524205582E0
8.333425125E0,5.419416179E-1,2.373145097E-1,-9.630989832E-1,1.130300201E0
8.343392125E0,1.069480594E-1,-6.848431465E-1,-1.793797123E0,1.923059059E0
8.353359125E0,-3.051077676E-1,-1.579528245E0,-2.506561602E0,2.978397436E0
8.363326125E0,-5.527959871E-1,-2.349977260E0,-3.168618441E0,3.983480808E0
8.373293125E0,-5.595294944E-1,-2.940108669E0,-3.823262181E0,4.855372894E0
8.383260125E0,-3.038233901E-1,-3.292142626E0,-4.581245517E0,5.649630272E0
8.393227125E0,1.308993556E-2,-3.532802328E0,-5.348982008E0,6.410341033E0
8.403194125E0,2.182996385E-1,-3.774945468E0,-5.976301709E0,7.072061237E0
8.413161125E0,1.141392027E-1,-4.124633523E0,-6.418633048E0,7.630496685E0
8.423128125E0,-6.402308645E-1,-4.594286562E0,-6.371303930E0,7.881045511E0
8.433095125E0,-1.582099850E0,-4.926721237E0,-5.632777205E0,7.648777753E0
8.443062125E0,-2.225840287E0,-5.029822267E0,-4.595044945E0,7.167141346E0
8.453029125E0,-2.539132347E0,-4.996364499E0,-3.849858826E0,6.799431172E0
8.462996125E0,-2.544909104E0,-4.807732737E0,-3.488597378E0,6.462288146E0
8.472963125E0,-2.069383414E0,-4.448202065E0,-3.794188655E0,6.201992976E0
8.482930125E0,-1.340846948E0,-4.040564010E0,-4.421723533E0,6.138050754E0
8.492897125E0,-8.686574603E-1,-3.513410037E0,-4.859612743E0,6.059245158E0
8.502864125E0,-4.075550606E-1,-2.989582545E0,-5.171144791E0,5.987022914E0
8.512831125E0,-3.624096952E-2,-2.617956322E0,-5.400986559E0,6.002138330E0
8.522798125E0,1.790333745E-1,-2.396876607E0,-5.594732296E0,6.089178917E0
8.532764875E0,2.395923292E-1,-2.304170172E0,-5.838744206E0,6.281523587E0
8.542731875E0,2.819979816E-1,-2.328419160E0,-6.134994557E0,6.568045132E0
8.552698875E0,2.212019954E-1,-2.447594186E0,-6.373279704E0,6.830691167E0
8.562665875E0,1.760286000E-2,-2.403219666E0,-6.416052087E0,6.851386649E0
8.572632875E0,-1.222566546E-1,-2.144396759E0,-6.163057684E0,6.526611997E0
8.582600875E0,4.630342467E-2,-1.720298792E0,-5.536950111E0,5.798222872E0
8.592566875E0,5.620555647E-1,-1.264246377E0,-4.805582716E0,5.000784998E0
8.602533875E0,1.313399533E0,-1.007062443E0,-4.135599976E0,4.454478674E0
8.612500875E0,2.298918788E0,-1.050571575E0,-3.498954551E0,4.316411840E0
8.622468875E0,3.244053663E0,-1.256225751E0,-2.781469615E0,4.454049901E0
8.632434875E0,3.891621102E0,-1.271218597E0,-1.831083648E0,4.484816479E0
8.642401875E0,4.318031057E0,-9.136689609E-1,-6.565511012E-1,4.462201534E0
8.652369875E0,4.281094196E0,-2.179958940E-1,8.859233379E-1,4.377230847E0
8.662336875E0,3.870271163E0,8.860408670E-1,2.598343007E0,4.745045171E0
8.672303875E0,3.393093050E0,2.387115850E0,4.005114096E0,5.766484323E0
8.682270875E0,2.900661598E0,4.031329502E0,5.055002131E0,7.086501380E0
8.692237875E0,2.765860765E0,5.458816107E0,5.974990178E0,8.552728611E0
8.702204875E0,3.758224478E0,6.295559683E0,7.462147034E0,1.046145120E1
8.712171875E0,5.592785758E0,6.522035794E0,1.014634354E1,1.329528077E1
8.722138875E0,6.995087235E0,6.665456300E0,1.412859093E1,1.711656025E1
8.732105875E0,6.933261700E0,7.183460550E0,1.846808448E1,2.099386500E1
8.742072875E0,5.447478356E0,7.211755811E0,2.127370953E1,2.311396027E1
8.752039875E0,3.305941763E0,6.501180530E0,2.144065222E1,2.264721101E1
8.762006875E0,1.219476512E0,5.702342114E0,1.954940306E1,2.040056343E1
8.771973875E0,-5.164040863E-1,5.341901615E0,1.663246340E1,1.747688258E1
8.781940875E0,-1.850508099E0,5.344370894E0,1.345775508E1,1.459787150E1
8.791907875E0,-2.777132151E0,5.447173131E0,1.112384363E1,1.269346506E1
8.801874875E0,-3.378717670E0,5.460497766E0,1.020395732E1,1.205626451E1
8.811841875E0,-3.649220392E0,5.448159556E0,1.003041547E1,1.198367584E1
8.821808875E0,-3.824875720E0,5.186038234E0,9.825607388E0,1.175020116E1
8.831775875E0,-3.803914621E0,4.553791670E0,9.448608744E0,1.115719464E1
8.841742875E0,-3.367495694E0,3.538739006E0,8.656883465E0,9.940036837E0
8.851709875E0,-2.767118209E0,2.337385865E0,7.164811440E0,8.028377099E0
8.861676875E0,-1.987329144E0,1.141471220E0,4.883981014E0,5.394970270E0
8.871643875E0,-9.876805316E-1,-1.556031793E-1,2.020890700E0,2.254711601E0
8.881610875E0,5.852697417E-2,-1.425389793E0,-1.134597234E0,1.822765029E0
8.891577875E0,7.144038914E-1,-2.857301570E0,-4.029249648E0,4.990931567E0
8.901544875E0,6.120612453E-1,-4.310919966E0,-6.130747139E0,7.519621693E0
8.911511875E0,1.069907440E-1,-5.653462899E0,-7.375811725E0,9.293852182E0
8.921478875E0,-4.526801799E-1,-6.854251783E0,-8.068620241E0,1.059661830E1
8.931445875E0,-8.989063494E-1,-7.902665736E0,-8.679194101E0,1.177236461E1
8.941412875E0,-1.313212130E0,-8.871481542E0,-9.488869747E0,1.305627665E1
8.951379875E0,-1.640886587E0,-9.601509925E0,-1.041636094E1,1.426120882E1
8.961346875E0,-1.826009727E0,-9.925716398E0,-1.125041714E1,1.511376999E1
8.971313875E0,-1.905035139E0,-9.953013539E0,-1.179492155E1,1.555029941E1
8.981280875E0,-1.774882843E0,-9.754246214E0,-1.177975621E1,1.539669396E1
8.991247875E0,-1.353568151E0,-9.340000221E0,-1.112128957E1,1.458598068E1
9.001214875E0,-8.526319233E-1,-8.760810122E0,-1.016075342E1,1.344320219E1
9.011181875E0,-4.768091539E-1,-8.207109205E0,-9.227278767E0,1.235826290E1
9.021148875E0,-1.933805779E-1,-7.771873462E0,-8.487318304E0,1.150973437E1
9.031115875E0,1.035439566E-1,-7.535020882E0,-8.057647941E0,1.103235929E1
9.041082875E0,4.041348414E-1,-7.567443109E0,-7.890529840E0,1.094029165E1
9.051049875E0,6.910594676E-1,-7.692486985E0,-7.807322792E0,1.098208579E1
9.061016875E0,9.087494060E-1,-7.766601613E0,-7.778051046E0,1.102923407E1
9.070983875E0,1.123889228E0,-7.829144601E0,-7.763014930E0,1.108255535E1
9.080950875E0,1.394392241E0,-7.853006503E0,-7.626739722E0,1.103545195E1
9.090917875E0,1.621206467E0,-7.794846003E0,-7.408218749E0,1.087518458E1
9.100884875E0,1.838327764E0,-7.647199130E0,-7.184032992E0,1.065220322E1
9.110851875E0,1.965814753E0,-7.467574419E0,-6.943611272E0,1.038474038E1
9.120818875E0,1.991891873E0,-7.313342412E0,-6.714933100E0,1.012634865E1
9.130785875E0,1.953561620E0,-7.206928350E0,-6.462998797E0,9.875554298E0
9.140752875E0,1.855654964E0,-7.100100889E0,-6.243235289E0,9.634981830E0
9.150719875E0,1.723227809E0,-6.925798899E0,-6.076906562E0,9.373633118E0
9.160686875E0,1.502212997E0,-6.588217505E0,-5.955137712E0,9.006937268E0
9.170653875E0,1.239954266E0,-5.994493566E0,-5.724535221E0,8.381034733E0
9.180620875E0,1.080090659E0,-5.139699635E0,-5.288546941E0,7.453310467E0
9.190587875E0,8.988695119E-1,-3.985125389E0,-4.477954452E0,6.061457485E0
9.200554875E0,3.341558030E-1,-2.565882189E0,-3.235242201E0,4.142729005E0
9.210521875E0,-4.971178494E-1,-8.499910283E-1,-1.713159342E0,1.975987306E0
9.220488875E0,-1.605425417E0,1.066090670E0,-2.440312064E-1,1.942547635E0
9.230455875E0,-2.143173521E0,2.410878934E0,8.268968654E-1,3.330058318E0
9.240422875E0,-1.439762103E0,2.586349783E0,1.473878413E0,3.306726129E0
9.250389875E0,-5.609407930E-1,2.445259978E0,2.128636758E0,3.290143672E0
9.260356875E0,-9.687840848E-1,3.436515643E0,3.628796067E0,5.090809687E0
9.270323875E0,-2.393507149E0,5.780221179E0,6.071818315E0,8.718188516E0
9.280290875E0,-2.723541834E0,7.503056493E0,8.512723871E0,1.166961887E1
9.290257875E0,-9.471623969E-1,6.968853117E0,9.989184415E0,1.221662129E1
9.300224875E0,2.521583976E-1,6.294090863E0,1.001133601E1,1.182818719E1
9.310191875E0,-2.399347933E-1,6.545674333E0,9.254950131E0,1.133832100E1
9.320158875E0,-3.338320135E-1,6.295355616E0,9.124850752E0,1.109080012E1
9.330125875E0,7.933095816E-1,4.785382340E0,1.016396471E1,1.126212248E1
9.340092875E0,1.058096796E0,3.555751188E0,1.272200929E1,1.325188499E1
9.350059875E0,5.544449019E-1,3.539176670E0,1.595625512E1,1.635344790E1
9.360026875E0,4.857423107E-1,3.963755862E0,1.778634358E1,1.822913393E1
9.369993875E0,9.528971267E-1,4.122829949E0,1.725659286E1,1.776782870E1
9.379960875E0,1.947363425E0,4.233601941E0,1.541220679E1,1.610129585E1
9.389927875E0,3.029510550E0,4.507793086E0,1.265977620E1,1.377563306E1
9.399894875E0,3.548497132E0,4.432885868E0,9.381595559E0,1.096615905E1
9.409861875E0,3.481916057E0,3.827270739E0,6.355187250E0,8.195129390E0
9.419828875E0,2.690719074E0,2.981708685E0,4.017969199E0,5.681076685E0
9.429795875E0,1.607083248E0,2.024777052E0,2.168193757E0,3.373944701E0
9.439762875E0,5.518110967E-1,1.042470843E0,7.313001519E-1,1.387818740E0
9.449729875E0,-2.715660372E-1,1.578140116E-1,-3.914950615E-1,5.019180790E-1
9.459696875E0,-7.894965392E-1,-4.683075947E-1,-1.095874633E0,1.429530692E0
9.469663875E0,-9.321808802E-1,-7.993751907E-1,-1.397212645E0,1.860151893E0
9.479630875E0,-7.443050905E-1,-9.416405788E-1,-1.478299493E0,1.904218065E0
9.489597875E0,-3.659463836E-1,-1.015861918E0,-1.514034167E0,1.859621373E0
9.499564875E0,3.562635407E-3,-1.112355887E0,-1.747811111E0,2.071760602E0
9.509531875E0,2.571128165E-1,-1.401294587E0,-2.230978820E0,2.647073859E0
9.519498875E0,3.415203711E-1,-1.828363231E0,-2.893780010E0,3.439987066E0
9.529465583E0,3.351294375E-1,-2.257926590E0,-3.670070393E0,4.322032036E0
9.539432583E0,1.495608129E-1,-2.631785572E0,-4.435877303E0,5.160006898E0
9.549399583E0,-6.849786557E-2,-2.895264618E0,-5.230307504E0,5.978575562E0
9.559366583E0,-2.974255677E-1,-3.019251025E0,-5.945267027E0,6.674618996E0
9.569333583E0,-4.614611629E-1,-2.959981308E0,-6.389070695E0,7.056533150E0
9.579300583E0,-3.934815799E-1,-2.734084072E0,-6.490804646E0,7.054118543E0
9.589267583E0,-7.317812316E-2,-2.410997925E0,-6.289699019E0,6.736362504E0
9.599234583E0,2.666760108E-1,-2.155236327E0,-5.930824404E0,6.315919397E0
9.609201583E0,4.896959055E-1,-1.829697858E0,-5.589986696E0,5.902164653E0
9.619168583E0,5.850497402E-1,-1.433801597E0,-5.361383952E0,5.580547294E0
9.629135583E0,5.876923893E-1,-1.169417695E0,-5.357069292E0,5.514627049E0
9.639102583E0,4.197846948E-1,-1.075901421E0,-5.479488938E0,5.599873398E0
9.649069583E0,2.358147720E-1,-1.052785916E0,-5.644805512E0,5.746981474E0
9.659036583E0,1.174389875E-1,-1.055853365E0,-5.839717768E0,5.935564156E0
9.669003583E0,1.270441356E-1,-1.217624772E0,-5.988068646E0,6.111932297E0
9.678970583E0,2.608649017E-1,-1.381576021E0,-5.927466933E0,6.091934590E0
9.688937583E0,5.641352731E-1,-1.498651897E0,-5.317598832E0,5.553473098E0
9.698904583E0,9.760169443E-1,-1.644851876E0,-4.255727513E0,4.665765043E0
9.708871583E0,1.349659872E0,-1.799797828E0,-2.919974366E0,3.686068949E0
9.718838583E0,1.735486496E0,-1.807436046E0,-1.295240128E0,2.820706548E0
9.728805583E0,2.006734006E0,-1.644900700E0,5.441611844E-1,2.651186731E0
9.738772583E0,2.116908998E0,-1.420206529E0,2.198955374E0,3.366555365E0
9.748739583E0,1.782699108E0,-9.599341777E-1,3.348285252E0,3.912863895E0
9.758706583E0,9.788277009E-1,-2.527494049E-1,3.861928064E0,3.992051390E0
9.768673583E0,1.190949921E-1,4.576966524E-1,4.217906553E0,4.244338055E0
9.778640583E0,-3.025320143E-1,1.013744057E0,5.320059341E0,5.424226583E0
9.788607583E0,-2.235101838E-1,1.192328548E0,7.031205486E0,7.135086177E0
9.798574583E0,5.295494311E-2,1.132296062E0,8.628380628E0,8.702519799E0
9.808541583E0,3.689131147E-1,9.546903947E-1,9.961248758E0,1.001369100E1
9.818508583E0,6.370904712E-1,9.735991207E-1,1.144772558E1,1.150670242E1
9.828475583E0,6.129479755E-1,1.476517847E0,1.294526885E1,1.304361130E1
9.838442583E0,3.152467116E-1,2.152532867E0,1.381839029E1,1.398859137E1
9.848409583E0,1.159963332E-2,2.861208387E0,1.382329260E1,1.411630498E1
9.858376583E0,-4.642464841E-1,3.503209862E0,1.297452948E1,1.344717143E1
9.868343583E0,-1.125133661E0,4.151239231E0,1.196478551E1,1.271435429E1
9.878310583E0,-1.502085820E0,4.972856353E0,1.080791389E1,1.199152054E1
9.888277583E0,-1.492048928E0,5.820960485E0,9.573738574E0,1.130337389E1
9.898244583E0,-1.297469671E0,6.663749498E0,8.605081812E0,1.096067598E1
9.908211583E0,-1.056618035E0,7.561908134E0,7.593825746E0,1.076870864E1
9.918178583E0,-9.664206402E-1,8.263238967E0,6.423043018E0,1.051049802E1
9.928145583E0,-9.344470417E-1,8.358166759E0,5.025977138E0,9.797580775E0
9.938112583E0,-7.232235391E-1,7.634625278E0,3.491594660E0,8.426255912E0
9.948079583E0,-5.990852505E-1,6.337076669E0,2.156465412E0,6.720698395E0
9.958046583E0,-5.023953270E-1,4.679052770E0,1.160161845E0,4.846845510E0
9.968013583E0,-3.578915517E-1,2.859685480E0,4.532761574E-1,2.917421238E0
9.977980583E0,-2.068836261E-1,1.047957577E0,1.266407508E-1,1.075664352E0
9.987947583E0,1.546895519E-2,-3.917017606E-1,2.607267612E-1,4.707950741E-1
9.997914583E0,3.537645869E-1,-1.276287548E0,6.100973117E-1,1.458176264E0
1.000788158E1,6.983774042E-1,-1.782554682E0,8.806731230E-1,2.107324688E0
1.001784858E1,9.991910680E-1,-2.221781734E0,6.807533115E-1,2.529450916E0
1.002781558E1,1.082866844E0,-2.705734431E0,-1.450518787E-1,2.917985514E0
1.003778258E1,1.036162209E0,-3.170462945E0,-1.265386584E0,3.567445952E0
1.004774958E1,9.999256244E-1,-3.610367398E0,-2.499065471E0,4.503324575E0
1.005771658E1,9.014895031E-1,-4.021380465E0,-3.725553453E0,5.555531721E0
1.006768358E1,8.195460382E-1,-4.425908970E0,-4.865158827E0,6.627978299E0
1.007765058E1,7.621192177E-1,-4.762466225E0,-5.828633786E0,7.565373887E0
1.008761758E1,7.112531193E-1,-4.955790085E0,-6.611706939E0,8.293395265E0
1.009758458E1,7.215512355E-1,-5.016600543E0,-7.232587686E0,8.831604714E0
1.010755158E1,7.885119411E-1,-5.033770891E0,-7.863319822E0,9.369759820E0
1.011751858E1,7.466758440E-1,-5.047737551E0,-8.492265633E0,9.907358618E0
1.012748558E1,6.196373364E-1,-4.941394240E0,-9.008667746E0,1.029356216E1
1.013745258E1,5.198209798E-1,-4.813233505E0,-9.309403496E0,1.049297022E1
1.014741958E1,5.099682753E-1,-4.702074135E0,-9.495816239E0,1.060849164E1
1.015738658E1,5.591128072E-1,-4.704089670E0,-9.652080739E0,1.075191747E1
1.016735358E1,6.052378370E-1,-4.896965926E0,-9.813757421E0,1.098437175E1
1.017732058E1,6.269446018E-1,-5.166003919E0,-9.968931999E0,1.124545514E1
1.018728758E1,6.892051694E-1,-5.443217490E0,-1.013158634E1,1.152183415E1
1.019725458E1,7.076149817E-1,-5.660628662E0,-1.038648518E1,1.185000043E1
1.020722158E1,6.776819153E-1,-5.803569696E0,-1.083252833E1,1.230789763E1
1.021718858E1,6.394314770E-1,-5.893960633E0,-1.112268120E1,1.260403434E1
1.022715558E1,5.818463431E-1,-6.064724473E0,-1.115081333E1,1.270669375E1
1.023712258E1,3.819189303E-1,-6.274751197E0,-1.088002877E1,1.256556368E1
1.024708958E1,1.720914504E-1,-6.382967956E0,-1.047075525E1,1.226411884E1
1.025705658E1,-9.577739239E-4,-6.505507470E0,-1.006023393E1,1.198039795E1
1.026702358E1,-2.969216108E-1,-6.508615265E0,-9.627920628E0,1.162527809E1
1.027699058E1,-6.028736615E-1,-6.185501052E0,-9.173883163E0,1.108079475E1
1.028695758E1,-7.798019287E-1,-5.471504565E0,-8.603596035E0,1.022581625E1
1.029692458E1,-7.591825998E-1,-4.602007810E0,-7.884021889E0,9.160384012E0
1.030689158E1,-9.818176746E-1,-3.449369577E0,-7.042368405E0,7.902978501E0
1.031685858E1,-1.911358025E0,-1.754941791E0,-6.116684001E0,6.644315868E0
1.032682558E1,-2.867926546E0,4.159557188E-1,-5.036212689E0,5.810461262E0
1.033679258E1,-2.935508372E0,2.273531347E0,-3.555715812E0,5.140940490E0
1.034675958E1,-1.792906739E0,3.107484632E0,-1.649344584E0,3.948583654E0
1.035672658E1,-2.143318824E-1,3.473475893E0,9.293050003E-1,3.602024531E0
1.036669358E1,5.586122856E-1,4.821990003E0,4.354638428E0,6.521235398E0
1.037666058E1,-8.109895152E-1,7.915464706E0,8.429416836E0,1.159169331E1
1.038662758E1,-1.254762047E0,9.754974192E0,1.111494651E1,1.484169751E1
1.039659458E1,7.840005219E-1,7.629927040E0,1.169548146E1,1.398623359E1
1.040656158E1,9.661719874E-1,5.069335996E0,1.169661349E1,1.278446021E1
1.041652858E1,-3.289387710E-1,3.812266492E0,1.233818285E1,1.291790744E1
1.042649558E1,-1.058774195E0,2.889673803E0,1.462520314E1,1.494549378E1
1.043646258E1,-1.136902498E0,1.912903152E0,1.727901576E1,1.742171436E1
1.044642958E1,-1.519506430E0,1.216074968E0,1.918052561E1,1.927901193E1
1.045639658E1,-1.859485329E0,8.316959676E-1,2.011944811E1,2.022230442E1
1.046636358E1,-1.649025765E0,4.582106227E-1,1.963138336E1,1.970584826E1
1.047633058E1,-1.210524644E0,3.869269243E-1,1.791663825E1,1.796165384E1
1.048629758E1,-7.155709957E-1,8.779784337E-1,1.552494462E1,1.556620678E1
1.049626458E1,-6.675912291E-3,1.535707164E0,1.239499791E1,1.248977238E1
1.050623158E1,6.750129537E-1,2.058069344E0,8.752316456E0,9.016337131E0
1.051619858E1,1.000629775E0,2.280646239E0,5.091538458E0,5.668012975E0
1.052616558E1,9.232041617E-1,2.225402915E0,1.478977185E0,2.827029815E0
1.053613246E1,7.302527694E-1,1.855241420E0,-1.490661677E0,2.489430069E0
1.054609946E1,4.903384414E-1,1.087133338E0,-3.552487564E0,3.747326857E0
1.055606646E1,-1.026581034E-2,3.237568223E-1,-4.462182173E0,4.473923737E0
1.056603346E1,-3.769273084E-1,-8.920892268E-2,-4.236854455E0,4.254523252E0
1.057600046E1,-3.046536765E-1,-1.686740452E-1,-3.420767337E0,3.438446447E0
1.058596746E1,1.583311978E-1,-1.352987230E-1,-2.804993548E0,2.812714582E0
1.059593446E1,6.496189347E-1,-1.720040345E-1,-2.769490424E0,2.849853919E0
1.060590146E1,9.569405495E-1,-4.118591595E-1,-3.320532612E0,3.480129310E0
1.061586846E1,1.128159741E0,-7.196764719E-1,-4.139675485E0,4.350585219E0
1.062583546E1,1.109025313E0,-1.031006207E0,-4.975798087E0,5.201103493E0
1.063580246E1,1.057855452E0,-1.335187428E0,-5.753756096E0,6.000624371E0
1.064576946E1,8.599766108E-1,-1.614498980E0,-6.399064171E0,6.655387967E0
1.065573646E1,6.299630807E-1,-1.889362262E0,-6.885471822E0,7.167723868E0
1.066570346E1,4.579893056E-1,-2.154506302E0,-7.154450174E0,7.485840561E0
1.067567046E1,3.690857537E-1,-2.348652865E0,-7.199030516E0,7.581453353E0
1.068563746E1,3.449687666E-1,-2.430080898E0,-7.024540245E0,7.440998742E0
1.069560446E1,3.716493192E-1,-2.352379588E0,-6.652858474E0,7.066281824E0
1.070557146E1,5.951502205E-1,-2.144426579E0,-6.158403885E0,6.548183530E0
1.071553846E1,9.266149887E-1,-1.821623438E0,-5.619220435E0,5.979344913E0
1.072550546E1,1.388662408E0,-1.497768382E0,-5.169375424E0,5.558249336E0
1.073547246E1,1.867896110E0,-1.281932158E0,-4.865334828E0,5.366923599E0
1.074543946E1,2.130754474E0,-1.109974608E0,-4.761719828E0,5.333491725E0
1.075540646E1,2.186502705E0,-8.629154214E-1,-4.913587806E0,5.446903912E0
1.076537346E1,2.053834352E0,-6.212622777E-1,-5.184857681E0,5.611323510E0
1.077534046E1,1.719840078E0,-4.074997678E-1,-5.336151463E0,5.621247049E0
1.078530746E1,1.254375692E0,-1.657817200E-1,-5.282958757E0,5.432365524E0
1.079527446E1,6.277981491E-1,2.356173554E-1,-5.097396784E0,5.141313064E0
1.080524146E1,2.547601162E-1,7.976183948E-1,-4.412719406E0,4.491457489E0
1.081520846E1,3.700753219E-1,1.351800537E0,-2.633661359E0,2.983369335E0
1.082517546E1,7.768431645E-1,1.984861327E0,2.997078091E-1,2.152436889E0
1.083514246E1,1.174592773E0,2.830812806E0,3.818720648E0,4.896508625E0
1.084510946E1,8.891213994E-1,3.696802986E0,6.958463200E0,7.929508136E0
1.085507646E1,1.854551156E-1,4.146155662E0,8.427509474E0,9.394036210E0
1.086504346E1,-5.074281717E-1,3.948229166E0,8.180411988E0,9.097534676E0
1.087501046E1,-7.980094273E-1,3.164728289E0,7.730305606E0,8.391063636E0
1.088497746E1,-2.754519506E-1,1.775416986E0,8.709976183E0,8.893349446E0
1.089494446E1,4.047049449E-1,5.291952360E-1,1.144742620E1,1.146679556E1
1.090491146E1,2.881761862E-1,3.136838239E-1,1.483377449E1,1.483988911E1
1.091487846E1,-4.799211151E-1,5.460004261E-1,1.767583471E1,1.769077651E1
1.092484546E1,-1.476785357E0,8.247041595E-1,1.892873515E1,1.900415866E1
1.093481246E1,-2.585786988E0,1.162076808E0,1.841253243E1,1.862949455E1
1.094477946E1,-2.948785644E0,1.109115360E0,1.658126050E1,1.687790489E1
1.095474646E1,-2.158172068E0,5.018878618E-1,1.404908400E1,1.422274092E1
1.096471346E1,-1.164930834E0,3.410090321E-1,1.209231796E1,1.215308622E1
1.097468046E1,-8.466687135E-1,7.013340488E-1,1.175027806E1,1.180159955E1
1.098464746E1,-1.012461909E0,8.636740977E-1,1.317839733E1,1.324542066E1
1.099461446E1,-8.899288999E-1,6.995351529E-1,1.497420005E1,1.501692346E1
1.100458146E1,-8.244323736E-2,4.438317347E-1,1.559456157E1,1.560109400E1
1.101454846E1,9.786781584E-1,3.624110109E-1,1.487270876E1,1.490927961E1
1.102451546E1,1.925140936E0,3.692288643E-1,1.292027902E1,1.306813328E1
1.103448246E1,2.984116568E0,2.777836740E-1,9.380861149E0,9.847978034E0
1.104444946E1,3.996906359E0,3.783581221E-1,4.582772809E0,6.092636698E0
1.105441646E1,4.455581251E0,5.987753481E-1,2.266924578E-1,4.501347095E0
1.106438346E1,4.195136910E0,6.251886830E-1,-3.125237364E0,5.268504832E0
1.107435046E1,3.416537754E0,5.236012048E-1,-5.611504449E0,6.590589551E0
1.108431746E1,2.702117636E0,4.902100950E-2,-7.542697107E0,8.012248276E0
1.109428446E1,2.343784181E0,-9.103875035E-1,-9.165340966E0,9.503978363E0
1.110425146E1,2.213886677E0,-1.954795529E0,-1.078981325E1,1.118671488E1
1.111421846E1,2.262638569E0,-3.223655943E0,-1.209024570E1,1.271556260E1
1.112418546E1,2.446535255E0,-4.598721090E0,-1.273646244E1,1.376049584E1
1.113415246E1,2.258197609E0,-5.368660228E0,-1.308904837E1,1.432637974E1
1.114411946E1,1.676531214E0,-5.682323586E0,-1.348266188E1,1.472690496E1
1.115408646E1,1.020404474E0,-6.207187790E0,-1.378231882E1,1.515000718E1
1.116405346E1,4.347439921E-1,-6.954671280E0,-1.377795095E1,1.543983119E1
1.117402046E1,6.425373718E-2,-7.580699331E0,-1.361208415E1,1.558075627E1
1.118398746E1,-2.180214755E-1,-7.951518638E0,-1.323765887E1,1.544376231E1
1.119395446E1,-3.112833957E-1,-8.086466528E0,-1.283845308E1,1.517609027E1
1.120392146E1,-3.562283112E-1,-8.028498986E0,-1.251517807E1,1.487324365E1
1.121388846E1,-2.473445311E-1,-7.962409077E0,-1.219363968E1,1.456523211E1
1.122385546E1,2.512283979E-1,-8.000398437E0,-1.190434167E1,1.434513302E1
1.123382246E1,1.112095247E0,-7.976375152E0,-1.183756179E1,1.431737355E1
1.124378946E1,1.630405307E0,-7.713221796E0,-1.178633082E1,1.417990149E1
1.125375646E1,1.810091413E0,-7.299414929E0,-1.165412411E1,1.386998551E1
1.126372346E1,1.750896541E0,-6.871295248E0,-1.121798614E1,1.327115481E1
1.127369046E1,1.396661545E0,-6.486558398E0,-1.046718962E1,1.239306910E1
1.128365746E1,1.017181489E0,-6.313304814E0,-9.736522134E0,1.164870547E1
1.129362446E1,7.151744083E-1,-6.281587762E0,-9.082656659E0,1.106636667E1
1.130359146E1,5.867255522E-1,-6.151306534E0,-8.474596517E0,1.048816500E1
1.131355846E1,5.822942398E-1,-5.771772537E0,-7.843501854E0,9.755662260E0
1.132352546E1,7.019567773E-1,-5.297468038E0,-7.098716269E0,8.885250902E0
1.133349246E1,8.461271882E-1,-4.623419144E0,-6.204786338E0,7.784041964E0
1.134345946E1,6.188532248E-1,-3.745427554E0,-5.140962633E0,6.390673179E0
1.135342646E1,1.079238135E-1,-2.643743128E0,-3.976492560E0,4.776349899E0
1.136339346E1,-8.562800011E-1,-1.250589328E0,-3.157844946E0,3.502738045E0
1.137336046E1,-2.409429994E0,3.977527517E-1,-2.590092001E0,3.559794477E0
1.138332746E1,-4.359940683E0,2.174987929E0,-1.959234150E0,5.251500139E0
1.139329446E1,-5.332674708E0,2.932473959E0,-7.502363598E-1,6.131857603E0
1.140326146E1,-4.499027525E0,1.996869461E0,1.513357059E0,5.149658814E0
1.141322846E1,-3.083008772E0,7.791441169E-1,4.424958213E0,5.449060821E0
1.142319546E1,-1.719109761E0,-3.944441047E-1,7.438334833E0,7.644589564E0
1.143316246E1,-2.236566419E0,-7.624637648E-1,1.038413577E1,1.064959417E1
1.144312946E1,-4.838375948E0,1.240648769E0,1.266902767E1,1.361812591E1
1.145309646E1,-5.138097498E0,3.536470286E0,1.241705828E1,1.389568294E1
1.146306346E1,-1.556304274E0,3.181317717E0,9.724624804E0,1.034945375E1
1.147303046E1,2.441546119E0,1.715323689E0,8.171488552E0,8.699236056E0
1.148299746E1,5.225242061E0,9.799708316E-1,1.018269919E1,1.148698656E1
1.149296446E1,5.412690346E0,1.868776554E0,1.500211934E1,1.605780580E1
1.150293146E1,3.040473494E0,3.750057380E0,1.996267023E1,2.053815016E1
1.151289846E1,1.178771851E0,4.308358886E0,2.251032080E1,2.294920482E1
1.152286546E1,1.341003800E0,4.063413759E0,2.264610952E1,2.304681971E1
1.153283333E1,2.400591489E0,4.500371215E0,2.098727081E1,2.159818781E1
1.154280033E1,3.287857494E0,4.659925066E0,1.812340515E1,1.899954533E1
1.155276733E1,3.734821874E0,4.196819154E0,1.518017758E1,1.618641334E1
1.156273433E1,3.533826760E0,3.450077090E0,1.243494959E1,1.337979577E1
1.157270133E1,2.849418354E0,2.579782775E0,9.735166749E0,1.046651498E1
1.158266833E1,2.158232733E0,1.766367250E0,7.293158408E0,7.808212431E0
1.159263533E1,1.560166213E0,1.000055433E0,5.009034246E0,5.340847644E0
1.160260233E1,1.246938911E0,1.624397439E-1,2.788824243E0,3.059212967E0
1.161256933E1,1.228271529E0,-6.976378776E-1,6.746353698E-1,1.565401686E0
1.162253633E1,1.260194110E0,-1.379606094E0,-1.101751084E0,2.169160580E0
1.163250333E1,1.226085182E0,-1.812853784E0,-2.534003170E0,3.348267579E0
1.164247033E1,1.139275956E0,-2.162936525E0,-3.710572886E0,4.443489087E0
1.165243733E1,1.037363227E0,-2.420758682E0,-4.844131070E0,5.513782811E0
1.166240433E1,9.106820570E-1,-2.545161119E0,-6.016099028E0,6.595501076E0
1.167237133E1,6.138057621E-1,-2.725561755E0,-6.882371628E0,7.427818228E0
1.168233833E1,2.939207467E-1,-3.058378546E0,-7.451027969E0,8.059645558E0
1.169230533E1,-2.945936881E-2,-3.471932813E0,-7.731342317E0,8.475189635E0
1.170227233E1,-4.702010693E-1,-3.807058377E0,-7.886664830E0,8.770077803E0
1.171223933E1,-8.947518296E-1,-3.882551778E0,-7.905989293E0,8.853217260E0
1.172220633E1,-1.177350320E0,-3.810332525E0,-7.808149588E0,8.767667177E0
1.173217333E1,-1.242326627E0,-3.677052553E0,-7.684648792E0,8.609176383E0
1.174214033E1,-1.223109680E0,-3.443669711E0,-7.454379008E0,8.301965114E0
1.175210733E1,-1.147834014E0,-2.965617147E0,-7.100254671E0,7.779847324E0
1.176207433E1,-7.389741109E-1,-2.252775486E0,-6.902893601E0,7.298699897E0
1.177204133E1,-5.200367421E-2,-1.654293960E0,-7.031685542E0,7.223849006E0
1.178200833E1,8.047644963E-1,-1.506401796E0,-7.326924325E0,7.523344491E0
1.179197533E1,1.463569480E0,-1.680678059E0,-7.649380141E0,7.967416828E0
1.180194233E1,1.889711341E0,-2.009060321E0,-7.883757010E0,8.352302492E0
1.181190933E1,2.066997457E0,-2.310270865E0,-7.728195931E0,8.326754608E0
1.182187633E1,2.050109822E0,-2.260081289E0,-7.065902279E0,7.696615667E0
1.183184333E1,2.017558811E0,-1.960925457E0,-6.211293705E0,6.818793272E0
1.184181033E1,1.956697628E0,-1.737726418E0,-5.147765284E0,5.774759400E0
1.185177733E1,2.178713044E0,-1.582531082E0,-3.995491918E0,4.818210334E0
1.186174433E1,2.545595859E0,-1.584659761E0,-2.779642360E0,4.088718196E0
1.187171133E1,2.718716127E0,-1.589238423E0,-1.505420634E0,3.490470947E0
1.188167833E1,2.630147182E0,-1.318519063E0,-3.846573275E-1,2.967175084E0
1.189164533E1,2.132175347E0,-8.892428023E-1,3.419252908E-1,2.335345237E0
1.190161233E1,1.197082042E0,-4.118079963E-1,5.929649699E-1,1.397926570E0
1.191157933E1,-5.536377668E-2,6.193663180E-3,7.740351123E-1,7.760372828E-1
1.192154633E1,-1.455870159E0,3.514714551E-1,1.369024973E0,2.029117907E0
1.193151333E1,-2.704252455E0,5.375830668E-1,2.425703380E0,3.672330838E0
1.194148033E1,-3.430898808E0,3.643315288E-1,3.547063102E0,4.948278563E0
1.195144733E1,-3.699108251E0,-1.553552574E-1,5.092773390E0,6.296338453E0
1.196141433E1,-3.437535105E0,-4.497651967E-1,7.468390691E0,8.233820246E0
1.197138133E1,-2.722579967E0,-1.518837655E-1,1.094976500E1,1.128418646E1
1.198134833E1,-1.850026434E0,4.950957361E-1,1.450540772E1,1.463128740E1
1.199131533E1,-1.232235941E0,1.213392265E0,1.691968565E1,1.700783609E1
1.200128233E1,-1.036240781E0,1.882717194E0,1.746061157E1,1.759236696E1
1.201124933E1,-1.477349905E0,2.599617408E0,1.643199278E1,1.670182505E1
1.202121633E1,-2.204798204E0,3.613755274E0,1.498766853E1,1.557403513E1
1.203118333E1,-2.487893196E0,4.819946401E0,1.388758390E1,1.490927505E1
1.204115033E1,-2.226535082E0,6.090694882E0,1.333282815E1,1.482627158E1
1.205111733E1,-1.441598129E0,7.082658060E0,1.376542972E1,1.554764631E1
1.206108433E1,-5.829226694E-1,7.548977602E0,1.477056375E1,1.659808468E1
1.207105133E1,2.504501335E-1,7.827168242E0,1.560054444E1,1.745578055E1
1.208101833E1,1.161553482E0,8.013165248E0,1.576732691E1,1.772480244E1
1.209098533E1,1.929593883E0,7.639153361E0,1.434161318E1,1.636343073E1
1.210095233E1,2.163674736E0,6.847139815E0,1.147582730E1,1.353733446E1
1.211091933E1,1.855161751E0,5.819553645E0,7.868547817E0,9.961067940E0
1.212088633E1,1.287759054E0,4.579579645E0,4.302315204E0,6.414108606E0
1.213085333E1,8.119170298E-1,3.200405952E0,1.266405753E0,3.536324512E0
1.214082033E1,5.298723435E-1,1.799044707E0,-1.116298957E0,2.182532914E0
1.215078733E1,4.889090896E-1,4.031804296E-1,-2.945118563E0,3.012525503E0
1.216075433E1,4.347901851E-1,-1.248039941E0,-4.645723933E0,4.830051455E0
1.217072133E1,8.915205851E-2,-3.035936932E0,-6.473981622E0,7.151034833E0
1.218068833E1,-4.316544695E-1,-4.696835614E0,-8.119681637E0,9.390198094E0
1.219065533E1,-1.028605779E0,-6.015747026E0,-9.291283559E0,1.111643793E1
1.220062233E1,-1.515331956E0,-7.013722311E0,-1.013404567E1,1.241722245E1
1.221058933E1,-1.921720899E0,-7.746639803E0,-1.066901328E1,1.332408661E1
1.222055633E1,-2.259836437E0,-8.072660083E0,-1.093886579E1,1.378163584E1
1.223052333E1,-2.419539392E0,-7.884524750E0,-1.089891645E1,1.366770943E1
1.224049033E1,-2.339615409E0,-7.373406765E0,-1.058171084E1,1.310776609E1
1.225045733E1,-2.002152859E0,-6.862334974E0,-1.015354848E1,1.241752004E1
1.226042433E1,-1.346689779E0,-6.633229955E0,-9.985911144E0,1.206365344E1
1.227039133E1,-4.694877090E-1,-6.685580077E0,-1.004495048E1,1.207553021E1
1.228035833E1,1.146940121E-1,-6.709930222E0,-1.031051113E1,1.230215258E1
1.229032533E1,6.741402568E-1,-6.381081644E0,-1.060170832E1,1.239229145E1
1.230029233E1,1.339401809E0,-5.882659720E0,-1.052485486E1,1.213145714E1
1.231025933E1,2.098209018E0,-5.491155887E0,-1.016833375E1,1.174522393E1
1.232022633E1,2.645791993E0,-5.218730602E0,-9.845604866E0,1.145300395E1
1.233019333E1,2.842046185E0,-5.098615344E0,-9.536536834E0,1.118117345E1
1.234016033E1,2.663569282E0,-5.061882550E0,-8.968193904E0,1.063699949E1
1.235012733E1,2.233572645E0,-4.947606906E0,-8.214938627E0,9.846465229E0
1.236009433E1,1.808054974E0,-4.654397693E0,-7.388297870E0,8.917366544E0
1.237006133E1,1.566163118E0,-4.424859980E0,-6.568801240E0,8.073500015E0
1.238002833E1,1.445385370E0,-4.357732775E0,-5.976190612E0,7.536167994E0
1.238999533E1,1.333638939E0,-4.415905554E0,-5.756303728E0,7.376574225E0
1.239996233E1,1.084268494E0,-4.523270373E0,-5.777175949E0,7.416965349E0
1.240992933E1,5.703648236E-1,-4.579133502E0,-5.813362613E0,7.422194051E0
1.241989633E1,-7.373433955E-2,-4.259721746E0,-5.509376396E0,6.964473733E0
1.242986333E1,-5.112666495E-1,-3.596130012E0,-4.874761709E0,6.079214289E0
1.243983033E1,-9.970856318E-1,-2.894999739E0,-3.984339523E0,5.024954197E0
1.244979733E1,-1.590605795E0,-2.146625717E0,-2.745208107E0,3.830691363E0
1.245976433E1,-2.048345424E0,-9.611729103E-1,-1.453061741E0,2.689044582E0
1.246973133E1,-2.577195382E0,7.459667230E-1,-1.448828942E-1,2.686892897E0
1.247969833E1,-2.667060947E0,2.488635793E0,9.037444818E-1,3.758094769E0
1.248966533E1,-1.128154918E0,3.327899519E0,1.603511769E0,3.862499025E0
1.249963233E1,1.777602529E0,3.402997064E0,2.294972502E0,4.472936234E0
1.250959933E1,3.786668843E0,3.828315929E0,3.429872037E0,6.384268632E0
1.251956633E1,3.571379918E0,5.007906318E0,4.820652745E0,7.814894311E0
1.252953333E1,1.779900046E0,6.135295104E0,6.543895025E0,9.145078036E0
1.253949946E1,2.936243659E-1,5.916571816E0,8.057481880E0,1.000075255E1
1.254946646E1,-2.636684589E-1,4.658860288E0,8.389290318E0,9.599723552E0
1.255943346E1,-1.289131249E0,4.125626380E0,7.863548448E0,8.973184864E0
1.256940046E1,-2.579959946E0,5.145171459E0,7.023671933E0,9.080801181E0
1.257936746E1,-2.261259503E0,6.178476791E0,6.534583334E0,9.272952569E0
1.258933446E1,-9.749515086E-1,6.093809109E0,6.480291352E0,8.948699118E0
1.259930146E1,-1.896091969E-1,5.914555696E0,7.239265206E0,9.350127350E0
1.260926846E1,5.661446322E-1,5.946252283E0,8.874251368E0,1.069723204E1
1.261923546E1,1.203637794E0,5.751720096E0,1.076300143E1,1.226267620E1
1.262920246E1,1.502924165E0,5.556016127E0,1.188894010E1,1.320889825E1
1.263916946E1,1.602085926E0,5.391754975E0,1.170384064E1,1.298528347E1
1.264913646E1,1.789282488E0,4.816433102E0,1.031453636E1,1.152342050E1
1.265910346E1,1.834108851E0,3.766215283E0,8.059254756E0,9.082946662E0
1.266907046E1,1.415274548E0,2.591057669E0,5.430240764E0,6.180946258E0
1.267903746E1,7.778052507E-1,1.356656065E0,2.813935695E0,3.219274885E0
1.268900446E1,2.781016894E-1,7.856260478E-2,5.608953309E-1,6.309645036E-1
1.269897146E1,-1.666880384E-1,-1.064879712E0,-1.010538613E0,1.477478254E0
1.270893846E1,-5.582074390E-1,-1.909362663E0,-1.846750093E0,2.714359451E0
1.271890546E1,-8.609422054E-1,-2.447185466E0,-2.116288608E0,3.347927069E0
1.272887246E1,-1.164134809E0,-2.801293430E0,-2.102793235E0,3.691096602E0
1.273883946E1,-1.450832198E0,-3.111875891E0,-2.162213809E0,4.057567521E0
1.274880646E1,-1.606309223E0,-3.307483966E0,-2.414044617E0,4.398555549E0
1.275877346E1,-1.479334743E0,-3.278311037E0,-2.795735652E0,4.555424500E0
1.276874046E1,-1.187412940E0,-3.200231413E0,-3.286171449E0,4.738180387E0
1.277870746E1,-8.679897813E-1,-3.122644123E0,-4.224013969E0,5.324153134E0
1.278867446E1,-5.823394827E-1,-3.048255261E0,-5.277505644E0,6.122339849E0
1.279864146E1,-2.518371662E-1,-2.920534530E0,-6.078371875E0,6.748299678E0
1.280860846E1,7.201957047E-2,-2.743858570E0,-6.533016281E0,7.086201267E0
1.281857546E1,1.814755006E-1,-2.627869692E0,-6.551091778E0,7.060838191E0
1.282854246E1,7.564045876E-2,-2.627383204E0,-6.323715781E0,6.848229352E0
1.283850946E1,-1.840317571E-1,-2.769614385E0,-6.010730115E0,6.620687883E0
1.284847646E1,-4.339625483E-1,-2.844080431E0,-5.640080962E0,6.331479309E0
1.285844346E1,-5.255800487E-1,-2.865719807E0,-5.385069269E0,6.122708178E0
1.286841046E1,-3.794096708E-1,-3.015321404E0,-5.224166173E0,6.043842079E0
1.287837746E1,-3.430323880E-2,-3.104461037E0,-5.064390421E0,5.940278224E0
1.288834446E1,4.358323782E-1,-2.862953489E0,-4.755723508E0,5.568065968E0
1.289831146E1,9.151188511E-1,-2.559840554E0,-4.538322276E0,5.290235841E0
1.290827846E1,1.273397562E0,-2.274780897E0,-4.506430392E0,5.206158311E0
1.291824546E1,1.383135912E0,-1.688969118E0,-4.142006770E0,4.682083053E0
1.292821246E1,1.374065419E0,-1.002456592E0,-3.267159812E0,3.683382716E0
1.293817946E1,1.202210708E0,-4.908012486E-1,-2.138850090E0,2.502174286E0
1.294814646E1,9.862969342E-1,-3.779698670E-2,-1.090289957E0,1.470694545E0
1.295811346E1,6.221893537E-1,4.575884789E-1,-5.143678665E-2,7.740494499E-1
1.296808046E1,3.522243207E-1,1.218811465E0,1.124502600E0,1.695308071E0
1.297804746E1,5.535255368E-1,2.124239360E0,2.446092036E0,3.286662384E0
1.298801446E1,8.274416797E-1,2.884932588E0,3.907790700E0,4.927303920E0
1.299798146E1,8.166027691E-1,3.568272123E0,5.645647511E0,6.728502199E0
1.300794846E1,7.602013309E-1,4.006108122E0,7.921332387E0,8.909226405E0
1.301791546E1,7.424246259E-1,4.128674533E0,1.073552302E1,1.152599680E1
1.302788246E1,4.116077657E-1,4.203828796E0,1.328285667E1,1.393828823E1
1.303784946E1,1.001599536E-1,4.054338296E0,1.487704973E1,1.541993190E1
1.304781646E1,2.212513678E-1,3.527770506E0,1.596886757E1,1.635539203E1
1.305778346E1,5.656831773E-1,3.130754212E0,1.636248108E1,1.666890537E1
1.306775046E1,7.461901597E-1,3.213319235E0,1.598884984E1,1.632560993E1
1.307771746E1,1.506654250E-1,3.918754814E0,1.506274795E1,1.556488725E1
1.308768446E1,-6.375613913E-1,5.152476971E0,1.350121626E1,1.446503868E1
1.309765146E1,-8.860734652E-1,6.452140517E0,1.139186011E1,1.312210807E1
1.310761846E1,-5.318107686E-1,7.502077670E0,9.106055462E0,1.181034454E1
1.311758546E1,-6.447870880E-3,8.205201843E0,7.091455781E0,1.084500456E1
1.312755246E1,2.535186061E-1,8.353514130E0,5.346163065E0,9.921034700E0
1.313751946E1,6.749740697E-2,7.595302168E0,4.041477345E0,8.603877617E0
1.314748646E1,-5.674534218E-1,6.232671710E0,2.989695396E0,6.935883404E0
1.315745346E1,-1.171280545E0,4.796292660E0,1.879740084E0,5.282967365E0
1.316742046E1,-1.550025972E0,3.216002523E0,7.116330421E-1,3.640284924E0
1.317738746E1,-1.525797011E0,1.753108689E0,-3.984649426E-1,2.358012066E0
1.318735446E1,-9.377613898E-1,4.462980902E-1,-1.476784480E0,1.805400457E0
1.319732146E1,-7.292566049E-2,-6.637589639E-1,-2.703816252E0,2.785052323E0
1.320728846E1,6.818715184E-1,-1.486360465E0,-3.689186110E0,4.035382306E0
1.321725546E1,1.245539526E0,-2.111351804E0,-4.420331896E0,5.054553316E0
1.322722246E1,1.639408411E0,-2.646409459E0,-4.959558030E0,5.855626253E0
1.323718946E1,1.725217616E0,-3.191966373E0,-5.396024612E0,6.502469282E0
1.324715646E1,1.552221309E0,-3.826342494E0,-5.841276636E0,7.153376867E0
1.325712346E1,1.205156974E0,-4.422930399E0,-6.359886072E0,7.839825731E0
1.326709046E1,8.689151763E-1,-4.992412366E0,-6.956040114E0,8.606142508E0
1.327705746E1,6.680573253E-1,-5.622847463E0,-7.532748070E0,9.423640892E0
1.328702446E1,3.937298673E-1,-6.174172071E0,-7.969096538E0,1.008870277E1
1.329699146E1,1.412316003E-1,-6.391879113E0,-8.337614965E0,1.050675441E1
1.330695846E1,1.260758823E-1,-6.315005769E0,-8.510849254E0,1.059857292E1
1.331692546E1,4.215964546E-1,-6.192936956E0,-8.493466651E0,1.051994237E1
1.332689246E1,7.773125497E-1,-6.030546328E0,-8.393722508E0,1.036466504E1
1.333685946E1,9.359874176E-1,-5.902587615E0,-8.366924134E0,1.028212198E1
1.334682646E1,1.030678251E0,-5.874737327E0,-8.504689797E0,1.038771317E1
1.335679246E1,1.093562424E0,-5.905398957E0,-8.754888647E0,1.061685880E1
1.336676046E1,1.119742090E0,-5.875189902E0,-8.956929828E0,1.077024933E1
1.337672646E1,1.125910902E0,-5.681992634E0,-9.104928703E0,1.079131328E1
1.338669346E1,1.073866371E0,-5.427545782E0,-9.190486332E0,1.072737066E1
1.339666046E1,1.017347184E0,-5.172108412E0,-9.195089260E0,1.059883801E1
1.340662746E1,1.048089724E0,-4.987158642E0,-9.062613573E0,1.039717309E1
1.341659446E1,1.044281579E0,-4.867366735E0,-8.658171022E0,9.987277327E0
1.342656146E1,8.823964436E-1,-4.706897503E0,-8.133944165E0,9.438991221E0
1.343652846E1,7.526473861E-1,-4.516217462E0,-7.539910909E0,8.821165159E0
1.344649546E1,6.312120460E-1,-4.493237904E0,-7.113908504E0,8.437731313E0
1.345646246E1,5.125699939E-1,-4.523450468E0,-6.861848486E0,8.234640051E0
1.346642946E1,2.678957400E-1,-4.356124790E0,-6.509288279E0,7.836990827E0
1.347639646E1,-1.501020458E-2,-3.991998206E0,-6.063284304E0,7.259455320E0
1.348636346E1,-2.256429191E-1,-3.590759345E0,-5.446578469E0,6.527609396E0
1.349633046E1,-5.733577574E-1,-3.051081805E0,-4.610543575E0,5.558322711E0
1.350629746E1,-1.320093133E0,-2.133915040E0,-3.688082741E0,4.460739130E0
1.351626446E1,-2.425624443E0,-6.911496609E-1,-2.781388924E0,3.754659257E0
1.352623146E1,-3.256790653E0,6.727128053E-1,-2.261338733E0,4.021552031E0
1.353619975E1,-3.034630956E0,1.189719520E0,-1.888438987E0,3.767043852E0
1.354616675E1,-1.528261027E0,8.020684183E-1,-1.098242170E0,2.045734924E0
1.355613375E1,-8.846005881E-2,6.736238015E-1,5.449634224E-1,8.709646030E-1
1.356610075E1,6.706770971E-2,1.705448619E0,3.427934269E0,3.829332373E0
1.357606775E1,-2.006435141E-1,3.066543013E0,7.582544712E0,8.181621367E0
1.358603475E1,-2.719715416E-1,4.088072637E0,1.188433484E1,1.257074862E1
1.359600175E1,-8.771649398E-2,4.406343602E0,1.437960605E1,1.503983471E1
1.360596875E1,6.000594697E-1,4.289668261E0,1.434753524E1,1.498709754E1
1.361593575E1,1.310007710E0,4.497174250E0,1.250285682E1,1.335148400E1
1.362590275E1,1.936435564E0,5.385404314E0,1.060699187E1,1.205241216E1
1.363586975E1,3.462906174E0,5.763272440E0,9.906116531E0,1.197239212E1
1.364583675E1,4.628250114E0,5.838231990E0,1.057030176E1,1.293201187E1
1.365580375E1,4.090894504E0,6.122051160E0,1.182005990E1,1.392583011E1
1.366577075E1,3.055402605E0,6.035313563E0,1.265885936E1,1.435295145E1
1.367573775E1,2.440642724E0,5.550345497E0,1.244810232E1,1.384623860E1
1.368570475E1,2.114087716E0,5.297283851E0,1.175308823E1,1.306390700E1
1.369567175E1,2.216180979E0,5.209100822E0,1.053933373E1,1.196343366E1
1.370563875E1,2.530912624E0,4.993922701E0,8.899882638E0,1.051440410E1
1.371560575E1,2.855132253E0,4.571330393E0,6.774774089E0,8.657159217E0
1.372557275E1,2.991581416E0,3.994136533E0,4.519953248E0,6.732953540E0
1.373553975E1,2.906524601E0,3.322619776E0,2.499676505E0,5.073073039E0
1.374550675E1,2.438272263E0,2.520749286E0,8.584542882E-1,3.610580612E0
1.375547375E1,1.673150646E0,1.656646880E0,-6.591496038E-1,2.445074675E0
1.376544075E1,8.755013338E-1,7.568203247E-1,-1.947355531E0,2.265275514E0
1.377540775E1,1.650635357E-1,-7.726189166E-2,-2.921127437E0,2.926807284E0
1.378537475E1,-3.829516947E-1,-6.911540464E-1,-3.564597148E0,3.651122943E0
1.379534175E1,-7.807988059E-1,-1.252665089E0,-4.087107262E0,4.345487587E0
1.380530875E1,-1.037153531E0,-1.882756078E0,-4.568319077E0,5.048761936E0
1.381527575E1,-1.263873909E0,-2.478199682E0,-4.976541853E0,5.701299829E0
1.382524275E1,-1.428879704E0,-3.026241371E0,-5.060316081E0,6.066847030E0
1.383520975E1,-1.486503868E0,-3.535667464E0,-4.752526835E0,6.107139222E0
1.384517675E1,-1.415293990E0,-3.870687777E0,-4.378840638E0,6.013279162E0
1.385514375E1,-1.489510944E0,-4.134398080E0,-4.238888701E0,6.105740558E0
1.386511075E1,-1.623907588E0,-4.288619563E0,-4.416499046E0,6.366694388E0
1.387507775E1,-1.736891436E0,-4.255963448E0,-4.749365830E0,6.609575820E0
1.388504475E1,-1.752518120E0,-4.139171455E0,-5.219607099E0,6.888276879E0
1.389501175E1,-1.652745617E0,-4.080857758E0,-5.692163866E0,7.196228011E0
1.390497875E1,-1.502678436E0,-3.970495363E0,-5.973907274E0,7.328740958E0
1.391494575E1,-1.306205704E0,-3.699347694E0,-5.926034365E0,7.106984593E0
1.392491275E1,-1.147637109E0,-3.414926553E0,-5.683288377E0,6.728934617E0
1.393487975E1,-1.143366888E0,-3.080785953E0,-5.382483045E0,6.306318551E0
1.394484675E1,-1.235718981E0,-2.636823826E0,-5.020852638E0,5.804205587E0
1.395481375E1,-1.375811251E0,-2.130691762E0,-4.580150333E0,5.235501987E0
1.396478075E1,-1.319136383E0,-1.660043235E0,-4.058426085E0,4.578939465E0
1.397474775E1,-9.012043782E-1,-1.283956171E0,-3.620054480E0,3.945314591E0
1.398471475E1,-3.119021042E-1,-9.331860897E-1,-3.264564233E0,3.409618576E0
1.399468175E1,4.104456316E-1,-5.614361984E-1,-2.983595581E0,3.063579412E0
1.400464875E1,1.116688455E0,-1.795393413E-1,-2.487272807E0,2.732353106E0
1.401461575E1,1.679002393E0,2.242570925E-1,-1.622956685E0,2.345917450E0
1.402458275E1,1.904930181E0,5.554968891E-1,-7.262481576E-1,2.113000751E0
1.403454975E1,1.443749173E0,9.001639393E-1,-2.234571934E-2,1.701530524E0
1.404451675E1,7.214388227E-1,1.290373783E0,6.444953120E-1,1.612734535E0
1.405448375E1,2.795832917E-2,1.612651552E0,1.391634986E0,2.130275717E0
1.406445075E1,-6.496324564E-1,2.005166953E0,2.287025551E0,3.110177279E0
1.407441775E1,-1.025158114E0,2.645109915E0,3.359136515E0,4.396743539E0
1.408438475E1,-8.252986751E-1,3.359948985E0,4.473887714E0,5.655620776E0
1.409435175E1,-6.076948644E-2,4.058786565E0,5.599271489E0,6.915871783E0
1.410431875E1,9.956359608E-1,4.774327009E0,7.061526808E0,8.581995701E0
1.411428575E1,1.936416707E0,4.984716260E0,9.298795477E0,1.072682167E1
1.412425275E1,2.371123715E0,4.585297637E0,1.228099591E1,1.332178827E1
1.413421975E1,2.046673121E0,3.894712817E0,1.533572872E1,1.595437978E1
1.414418675E1,1.212487701E0,3.116887832E0,1.771439710E1,1.802733981E1
1.415415375E1,7.200916243E-1,2.450340039E0,1.875890628E1,1.893196406E1
1.416412075E1,6.123433004E-1,2.223281545E0,1.843781462E1,1.858146800E1
1.417408775E1,5.234954432E-1,2.450181579E0,1.709430455E1,1.727694086E1
1.418405475E1,2.329483573E-1,3.051901585E0,1.523300016E1,1.553745996E1
1.419402175E1,-1.129008903E-1,3.760195574E0,1.322829747E1,1.375280595E1
1.420398875E1,-3.609541771E-1,4.279791729E0,1.113361433E1,1.193332616E1
1.421395575E1,-2.405280664E-1,4.545274615E0,9.117480921E0,1.019047759E1
1.422392275E1,5.825091250E-2,4.333816201E0,7.426597132E0,8.598819744E0
1.423388975E1,2.169602790E-1,3.625325452E0,6.180584713E0,7.168659832E0
1.424385675E1,-6.296354905E-3,2.530348660E0,5.240885702E0,5.819758322E0
1.425382375E1,-1.101739682E-1,1.373786945E0,4.313688623E0,4.528502888E0
1.426379075E1,-1.732076108E-1,4.325425154E-1,2.749034525E0,2.788240435E0
1.427375775E1,-4.449379548E-1,-2.111204454E-1,8.088833481E-1,9.470131451E-1
1.428372475E1,-5.678283014E-1,-7.676970229E-1,-8.191130519E-1,1.258067522E0
1.429369175E1,-4.244340353E-1,-1.182837932E0,-2.055241338E0,2.408997049E0
1.430365875E1,-5.446796863E-1,-1.225298658E0,-3.034598504E0,3.317652912E0
1.431362575E1,-8.460927627E-1,-1.133293012E0,-4.010246197E0,4.252328841E0
1.432359275E1,-8.968765616E-1,-1.262660612E0,-5.198136708E0,5.423958391E0
1.433355975E1,-9.620310623E-1,-7.298363015E-1,-6.956577473E0,7.060604431E0
1.434352675E1,-6.604664699E-1,9.478760496E-1,-9.378957295E0,9.449842587E0
1.435349375E1,9.122559082E-1,7.196972296E-1,-9.887247566E0,9.955292029E0
1.436346075E1,1.933695266E0,-5.788205552E-1,-8.335508214E0,8.576415790E0
1.437342775E1,1.869340080E0,-2.474125927E0,-7.259176145E0,7.893755110E0
1.438339475E1,7.896319753E-1,-3.389521571E0,-7.876964300E0,8.611558611E0
1.439336175E1,-5.483914988E-1,-3.221046623E0,-8.934666554E0,9.513366440E0
1.440332875E1,-1.137657812E0,-3.264564818E0,-9.961615963E0,1.054445074E1
1.441329575E1,-9.111979276E-1,-3.708093959E0,-1.079492605E1,1.145035681E1
1.442326275E1,-5.260706301E-1,-3.943425094E0,-1.157640643E1,1.224093695E1
1.443322975E1,-2.788370499E-1,-3.883922950E0,-1.233235902E1,1.293250504E1
1.444319675E1,1.427216171E-1,-3.918232950E0,-1.277718829E1,1.336523324E1
1.445316375E1,7.599694888E-1,-4.165743249E0,-1.264298300E1,1.333326628E1
1.446313075E1,1.322323408E0,-4.661745304E0,-1.212891685E1,1.306105020E1
1.447309775E1,1.667544335E0,-5.133241385E0,-1.140458950E1,1.261727122E1
1.448306475E1,1.525440331E0,-5.414259739E0,-1.073061838E1,1.211558284E1
1.449303175E1,1.172607936E0,-5.581923970E0,-1.014006129E1,1.163416209E1
1.450299875E1,1.024331756E0,-5.721615121E0,-9.537199908E0,1.116889955E1
1.451296575E1,1.068692974E0,-5.787880447E0,-9.028310298E0,1.077738612E1
1.452293275E1,1.234939693E0,-5.884040247E0,-8.583869283E0,1.047997221E1
1.453289975E1,1.419804386E0,-5.918844044E0,-8.214561481E0,1.022387303E1
1.454286621E1,1.679901110E0,-5.863477344E0,-7.964348014E0,1.003161371E1
1.455283321E1,1.804447534E0,-5.657845387E0,-7.691668375E0,9.717458913E0
1.456280021E1,1.808682819E0,-5.099943831E0,-7.285373425E0,9.075099259E0
1.457276721E1,1.591284657E0,-4.355119654E0,-6.809797157E0,8.238482347E0
1.458273421E1,1.246110068E0,-3.717093409E0,-5.946457520E0,7.122494700E0
1.459270121E1,7.736768241E-1,-3.090522737E0,-4.827646015E0,5.784122462E0
1.460266821E1,1.331709212E-1,-2.052946891E0,-3.577469793E0,4.126816636E0
1.461263521E1,-9.287334350E-1,-4.906436661E-1,-2.433412934E0,2.650429306E0
1.462260221E1,-2.439873376E0,1.476336583E0,-1.466383452E0,3.206685552E0
1.463256921E1,-3.236650795E0,3.549495251E0,-6.154054141E-1,4.842886405E0
1.464253621E1,-2.326357432E0,4.727298146E0,5.649199694E-1,5.298907551E0
1.465250321E1,-1.644586413E-1,5.175047808E0,2.702643301E0,5.840586209E0
1.466247021E1,8.968645017E-1,6.430501142E0,5.820683911E0,8.719866516E0
1.467243721E1,-3.240753860E-1,8.891949720E0,9.243347501E0,1.283009227E1
1.468240421E1,-5.350748671E-1,9.364531045E0,1.214829452E1,1.534802289E1
1.469237121E1,5.151948090E-1,6.446088649E0,1.391308010E1,1.534246664E1
1.470233821E1,-5.357858520E-1,3.909693676E0,1.410788594E1,1.464941012E1
1.471230521E1,-3.205919584E0,3.283654808E0,1.425157074E1,1.497222688E1
1.472227221E1,-4.476722736E0,3.060735851E0,1.521507727E1,1.615263838E1
1.473223921E1,-3.930581100E0,2.781502652E0,1.619296094E1,1.689373283E1
1.474220621E1,-3.046853099E0,3.191813176E0,1.638241774E1,1.696627821E1
1.475217321E1,-2.337922201E0,3.689370298E0,1.558375124E1,1.618427125E1
1.476214021E1,-1.793027630E0,3.740529926E0,1.425881895E1,1.484993030E1
1.477210721E1,-1.284198831E0,3.727191550E0,1.282455776E1,1.341679564E1
1.478207421E1,-7.393234820E-1,3.738074973E0,1.126948491E1,1.189626386E1
1.479204121E1,-9.239477813E-3,3.444657598E0,9.363037666E0,9.976583868E0
1.480200821E1,7.005932797E-1,3.108029008E0,7.091530041E0,7.774347148E0
1.481197521E1,1.510288294E0,2.837208198E0,4.613157281E0,5.622449750E0
1.482194221E1,2.280683076E0,2.460015719E0,2.536998698E0,4.205895270E0
1.483190921E1,2.790415270E0,1.997607380E0,8.257788777E-1,3.529697350E0
1.484187621E1,3.084384037E0,1.312496723E0,-6.878910077E-1,3.421880561E0
1.485184321E1,2.931008939E0,4.875855723E-1,-1.908996627E0,3.531688154E0
1.486181021E1,2.452275175E0,-2.998589596E-1,-2.812974998E0,3.743847922E0
1.487177721E1,1.944135908E0,-9.428047594E-1,-3.565667188E0,4.169235870E0
1.488174421E1,1.510851235E0,-1.578655255E0,-4.346089799E0,4.864495905E0
1.489171121E1,1.107547575E0,-2.234356756E0,-5.012731440E0,5.598793463E0
1.490167821E1,7.538269157E-1,-2.780480851E0,-5.518280536E0,6.225009948E0
1.491164521E1,6.878178444E-1,-3.144733735E0,-5.916337343E0,6.735390947E0
1.492161221E1,6.393953705E-1,-3.377272239E0,-6.151093111E0,7.046328170E0
1.493157921E1,6.198586535E-1,-3.584470080E0,-6.220317712E0,7.205900564E0
1.494154621E1,6.744261856E-1,-3.827027203E0,-6.122286218E0,7.251439611E0
1.495151321E1,6.742512077E-1,-4.064116595E0,-5.902682925E0,7.198147268E0
1.496148021E1,5.857037513E-1,-4.178752427E0,-5.658339477E0,7.058457790E0
1.497144721E1,5.071923096E-1,-4.180047585E0,-5.432962643E0,6.873654409E0
1.498141421E1,4.260506442E-1,-4.160880997E0,-5.316303089E0,6.764431119E0
1.499138121E1,3.678078447E-1,-3.988078233E0,-5.362612453E0,6.693105626E0
1.500134821E1,3.715633652E-1,-3.644595244E0,-5.495578136E0,6.604734126E0
1.501131521E1,5.243131033E-1,-3.162199953E0,-5.672934127E0,6.515872496E0
1.502128221E1,6.897874059E-1,-2.725302431E0,-5.898474684E0,6.534147504E0
1.503124921E1,8.428727742E-1,-2.490862997E0,-6.082402360E0,6.626496168E0
1.504121621E1,9.227176733E-1,-2.417744735E0,-6.290636913E0,6.802132774E0
1.505118321E1,9.601452622E-1,-2.411412200E0,-6.460998464E0,6.962850629E0
1.506115021E1,9.522965446E-1,-2.394940009E0,-6.508171461E0,6.999921580E0
1.507111721E1,9.048301636E-1,-2.455664513E0,-6.240088903E0,6.766662053E0
1.508108421E1,8.093477632E-1,-2.511414791E0,-5.628587090E0,6.216368770E0
1.509105121E1,9.583451968E-1,-2.339496710E0,-5.009219018E0,5.611055653E0
1.510101821E1,1.341163283E0,-2.012015504E0,-4.353053248E0,4.979558004E0
1.511098521E1,1.780966724E0,-1.672593114E0,-3.317031884E0,4.119722165E0
1.512095221E1,2.179947245E0,-1.132428794E0,-1.736261106E0,3.008183437E0
1.513091921E1,2.263460687E0,-3.099073997E-1,-4.765129924E-2,2.285074950E0
1.514088621E1,2.033265017E0,6.780580375E-1,1.147362875E0,2.431125438E0
1.515085321E1,1.315658020E0,1.883408335E0,1.853867909E0,2.952119443E0
1.516082021E1,6.435704286E-1,2.986191160E0,2.083413808E0,3.697584838E0
1.517078721E1,3.886528762E-1,3.661400726E0,2.392737363E0,4.391138625E0
1.518075421E1,1.340051727E-1,4.102022047E0,3.793275320E0,5.588692147E0
1.519072121E1,-1.570541659E-1,4.384945716E0,6.987818561E0,8.251183139E0
1.520068821E1,-3.556484136E-1,4.422864325E0,1.184887966E1,1.265243707E1
1.521065521E1,-6.329143167E-1,4.147827965E0,1.685050841E1,1.736504221E1
1.522062221E1,-9.776579654E-1,3.610984279E0,2.047702874E1,2.081594890E1
1.523058921E1,-1.234590615E0,3.185939356E0,2.257989097E1,2.283694156E1
1.524055621E1,-1.012185481E0,2.976047995E0,2.307765976E1,2.329076558E1
1.525052321E1,-7.161063083E-1,2.941113513E0,2.243058583E1,2.263391564E1
1.526049021E1,-8.682688397E-1,3.515058075E0,2.106641170E1,2.137529476E1
1.527045721E1,-1.330305296E0,4.185152497E0,1.889647255E1,1.940004867E1
1.528042421E1,-1.907641827E0,4.468792450E0,1.671660015E1,1.740844404E1
1.529039121E1,-2.492674465E0,4.875499043E0,1.494875531E1,1.592008801E1
1.530035821E1,-2.590188480E0,4.777176942E0,1.303023591E1,1.411798653E1
1.531032521E1,-2.636313948E0,3.880422807E0,1.000091627E1,1.104654510E1
1.532029221E1,-2.926704512E0,2.852624967E0,6.098281644E0,7.341124404E0
1.533025921E1,-3.128459472E0,2.126632918E0,2.034476706E0,4.295220797E0
1.534022621E1,-2.985017332E0,1.388631856E0,-1.251677787E0,3.522119275E0
1.535019321E1,-2.216446442E0,5.248834991E-1,-3.093723795E0,3.841778812E0
1.536016021E1,-1.023218008E0,-3.372676912E-1,-3.292440249E0,3.464229695E0
1.537012721E1,4.749447691E-1,-9.672481674E-1,-3.107557138E0,3.289080862E0
1.538009421E1,1.938543777E0,-1.500908630E0,-3.413540763E0,4.202729974E0
1.539006121E1,3.042413893E0,-1.897744538E0,-4.497830892E0,5.752234293E0
1.540002821E1,3.939974944E0,-2.074932421E0,-6.142633944E0,7.586876754E0
1.540999421E1,4.668682148E0,-2.237982907E0,-7.772069929E0,9.338641843E0
1.541996121E1,5.216959480E0,-2.692427630E0,-9.264473491E0,1.096796708E1
1.542992821E1,5.344258627E0,-3.430515523E0,-1.045832056E1,1.223544057E1
1.543989521E1,4.847283011E0,-4.138513643E0,-1.101295002E1,1.272432772E1
1.544986221E1,3.897759801E0,-4.636923289E0,-1.092229011E1,1.248959608E1
1.545982921E1,3.015344208E0,-4.986019020E0,-1.044622852E1,1.196145378E1
1.546979621E1,2.329838572E0,-5.262977067E0,-9.951336558E0,1.149591991E1
1.547976321E1,1.744302782E0,-5.417050030E0,-9.391180900E0,1.098095178E1
1.548973021E1,1.507330042E0,-5.365887478E0,-8.811682652E0,1.042643484E1
1.549969821E1,1.657122258E0,-5.248422178E0,-8.141283590E0,9.827130203E0
1.550966421E1,1.978562706E0,-5.226062425E0,-7.626580094E0,9.454689988E0
1.551963121E1,2.302211355E0,-5.404284389E0,-7.533861380E0,9.553299648E0
1.552959821E1,2.570314671E0,-5.559715075E0,-7.940500145E0,1.002838431E1
1.553956496E1,2.679577789E0,-5.596591126E0,-8.466964146E0,1.049721159E1
1.554953196E1,2.930034209E0,-5.558026984E0,-9.005017914E0,1.098030564E1
1.555949896E1,3.173383630E0,-5.469852142E0,-9.397606990E0,1.132716484E1
1.556946596E1,3.216983393E0,-5.384057701E0,-9.617409673E0,1.148179552E1
1.557943296E1,3.188315664E0,-5.360602180E0,-9.693407105E0,1.152664538E1
1.558939996E1,3.131984758E0,-5.321359761E0,-9.657636763E0,1.146281580E1
1.559936696E1,2.976176634E0,-5.306501402E0,-9.456219479E0,1.124440622E1
1.560933396E1,2.728283926E0,-5.320813047E0,-9.172381014E0,1.094929944E1
1.561930096E1,2.442285791E0,-5.335291922E0,-8.897688763E0,1.065828153E1
1.562926796E1,2.118401792E0,-5.408001464E0,-8.676406733E0,1.044098366E1
1.563923496E1,1.726443923E0,-5.333341291E0,-8.373079498E0,1.007638815E1
1.564920196E1,1.347875302E0,-4.993559589E0,-7.920885075E0,9.460064777E0
1.565916896E1,8.739283597E-1,-4.589209424E0,-7.383686171E0,8.737471910E0
1.566913596E1,2.198073614E-1,-4.037642741E0,-6.785065189E0,7.898606447E0
1.567910296E1,-6.905760491E-1,-3.134999290E0,-5.920860749E0,6.735110083E0
1.568906996E1,-1.707568234E0,-1.885755407E0,-4.582375783E0,5.241185987E0
1.569903696E1,-2.463619942E0,-2.184396976E-1,-2.979420669E0,3.872219860E0
1.570900396E1,-2.940103114E0,1.456508090E0,-1.385895360E0,3.561787204E0
1.571897096E1,-2.785018583E0,2.654961596E0,9.378583074E-2,3.848888848E0
1.572893796E1,-2.026931166E0,3.443845128E0,1.655769505E0,4.325516370E0
1.573890496E1,-1.564623692E0,4.377041450E0,3.880289490E0,6.055013269E0
1.574887196E1,-1.868015393E0,5.719552808E0,7.312004569E0,9.469328205E0
1.575883896E1,-1.546292379E0,6.118203692E0,1.144434472E1,1.306891207E1
1.576880596E1,-5.123456070E-1,4.337006734E0,1.420345166E1,1.485968252E1
1.577877296E1,-6.142789480E-1,2.438650285E0,1.564635971E1,1.584717407E1
1.578873996E1,-2.080058822E0,1.844074407E0,1.649591805E1,1.672849567E1
1.579870696E1,-3.523724818E0,2.321497226E0,1.685152348E1,1.737181135E1
1.580867396E1,-3.353776372E0,3.004955752E0,1.697103355E1,1.755829020E1
1.581864096E1,-2.153928451E0,3.677561261E0,1.701696694E1,1.754254909E1
1.582860796E1,-1.244052140E0,4.539517739E0,1.683305330E1,1.747874625E1
1.583857496E1,-6.690682358E-1,5.189476397E0,1.635817051E1,1.717463420E1
1.584854196E1,-3.249087238E-1,5.467785151E0,1.576924246E1,1.669344925E1
1.585850896E1,-1.285419729E-1,5.664514722E0,1.486068221E1,1.590418579E1
1.586847596E1,1.078539392E-1,5.700481530E0,1.331564786E1,1.448494391E1
1.587844296E1,4.275770599E-1,5.533269289E0,1.111045584E1,1.241942512E1
1.588840996E1,7.862981853E-1,5.376880828E0,8.545476465E0,1.012690872E1
1.589837696E1,1.271721165E0,5.163296074E0,5.936958718E0,7.970218309E0
1.590834396E1,1.769013700E0,4.732354234E0,3.450944817E0,6.118300924E0
1.591831096E1,2.148381344E0,4.033997879E0,1.122013441E0,4.706123187E0
1.592827796E1,2.257871626E0,3.102829079E0,-7.918778908E-1,3.918239805E0
1.593824496E1,2.113951476E0,2.031230624E0,-2.233677310E0,3.685648249E0
1.594821196E1,2.027661191E0,9.856440926E-1,-3.140336044E0,3.865826516E0
1.595817896E1,1.953803256E0,-9.419864416E-4,-3.685322270E0,4.171204657E0
1.596814596E1,1.710150657E0,-1.006963626E0,-4.194428812E0,4.640239657E0
1.597811296E1,1.264689011E0,-1.875794090E0,-4.652574531E0,5.173440976E0
1.598807996E1,7.646152478E-1,-2.658776320E0,-4.789377158E0,5.530991010E0
1.599804696E1,5.184866452E-1,-3.380982005E0,-4.751288395E0,5.854452078E0
1.600801396E1,3.944122374E-1,-4.009439866E0,-4.732810024E0,6.215356770E0
1.601798096E1,3.094273433E-1,-4.495371846E0,-4.822629104E0,6.600141270E0
1.602794796E1,2.399469262E-1,-4.813280868E0,-5.059710894E0,6.987554763E0
1.603791496E1,2.646952665E-1,-4.930414338E0,-5.355274782E0,7.284093431E0
1.604788196E1,3.146573853E-1,-4.896526215E0,-5.768806829E0,7.573249664E0
1.605784896E1,4.203563333E-1,-4.753213883E0,-6.133253841E0,7.770877965E0
1.606781596E1,6.265823668E-1,-4.532664218E0,-6.331453401E0,7.811846936E0
1.607778296E1,7.671649262E-1,-4.252947162E0,-6.380427341E0,7.706228302E0
1.608774996E1,8.460193071E-1,-3.963694174E0,-6.454540799E0,7.621529840E0
1.609771696E1,9.319070113E-1,-3.653802854E0,-6.598337865E0,7.599788718E0
1.610768396E1,1.028589553E0,-3.297364774E0,-6.729977401E0,7.564602220E0
1.611765096E1,1.174727552E0,-3.033299838E0,-6.849206806E0,7.582382646E0
1.612761796E1,1.365914254E0,-2.934567847E0,-7.039988004E0,7.748473482E0
1.613758496E1,1.519038799E0,-2.878386045E0,-7.167811646E0,7.872109558E0
1.614755196E1,1.694245353E0,-2.734159793E0,-7.151392665E0,7.841461225E0
1.615751896E1,1.769744602E0,-2.615357820E0,-7.042157906E0,7.717776911E0
1.616748596E1,1.783562450E0,-2.568685929E0,-6.904251325E0,7.579441191E0
1.617745296E1,1.754880687E0,-2.500661176E0,-6.418756424E0,7.108681072E0
1.618741996E1,1.877004756E0,-2.374253730E0,-5.512718080E0,6.288901991E0
1.619738696E1,2.076132270E0,-2.277584637E0,-4.232581310E0,5.235691122E0
1.620735396E1,2.200070145E0,-2.107780325E0,-2.578848975E0,3.991679919E0
1.621732096E1,2.314981089E0,-1.728928405E0,-8.890305483E-1,3.023029307E0
1.622728796E1,2.395729091E0,-1.013611910E0,7.129878420E-1,2.697272445E0
1.623725496E1,2.373160739E0,2.113288987E-1,2.027202185E0,3.128274364E0
1.624722196E1,2.344843697E0,1.926221648E0,3.012218286E0,4.275754998E0
1.625718896E1,2.258166911E0,3.861635995E0,3.735508338E0,5.827999047E0
1.626715596E1,2.080829192E0,5.533523642E0,4.551380278E0,7.460884429E0
1.627712296E1,1.849764625E0,6.504392990E0,5.794126443E0,8.905091722E0
1.628708996E1,1.234528634E0,6.749249239E0,7.645619797E0,1.027287342E1
1.629705696E1,4.622735605E-2,6.547040827E0,1.061306829E1,1.247008818E1
1.630702396E1,-1.037662970E0,5.879006379E0,1.475366764E1,1.591572082E1
1.631699096E1,-1.860539728E0,5.138417341E0,1.842188329E1,1.921537730E1
1.632695796E1,-2.583891906E0,4.691282221E0,2.052396317E1,2.121126329E1
1.633692496E1,-2.824498690E0,4.408814928E0,2.126385113E1,2.189901383E1
1.634689196E1,-2.845635206E0,4.760664405E0,2.080274672E1,2.152941793E1
1.635685896E1,-2.739429304E0,5.573264828E0,1.972633980E1,2.068076971E1
1.636682596E1,-2.656459360E0,5.621886765E0,1.841220498E1,1.943377677E1
1.637679296E1,-3.617015097E0,4.599828845E0,1.691506284E1,1.789861934E1
1.638675996E1,-5.344935735E0,3.058536713E0,1.519326833E1,1.639385212E1
1.639672696E1,-6.653123353E0,1.498448706E0,1.294087057E1,1.462790245E1
1.640669396E1,-7.176805249E0,4.289698666E-1,1.021612421E1,1.249238739E1
1.641666096E1,-6.339886256E0,-1.514694902E-1,7.249665649E0,9.631965156E0
1.642662796E1,-4.587582729E0,-2.405038735E-1,4.335306364E0,6.316536921E0
1.643659496E1,-2.841705584E0,-4.165731847E-2,1.872287223E0,3.403305071E0
1.644656196E1,-1.243128280E0,2.603961012E-1,-1.110760474E-1,1.274955662E0
1.645652896E1,3.888272694E-1,4.569277436E-2,-2.006872585E0,2.044703413E0
1.646649596E1,1.497331595E0,-5.252644452E-1,-3.991093642E0,4.294966019E0
1.647646296E1,2.034731644E0,-1.198825974E0,-6.154749960E0,6.592288195E0
1.648642996E1,2.330639056E0,-1.802093153E0,-8.342137787E0,8.847071888E0
1.649639696E1,2.694975555E0,-2.346473608E0,-1.017806702E1,1.078711639E1
1.650636396E1,3.159562566E0,-2.771244881E0,-1.138294077E1,1.213400076E1
1.651633096E1,3.431619769E0,-3.102199919E0,-1.181587797E1,1.268915406E1
