"Time (s)","Linear Acceleration x (m/s^2)","Linear Acceleration y (m/s^2)","Linear Acceleration z (m/s^2)","Absolute acceleration (m/s^2)"
-3.137958294E-3,1.663694017E-1,1.592287454E-1,-1.878517431E0,1.892580331E0
6.829041697E-3,-2.397097120E-2,-1.289644343E-1,-2.004679880E0,2.008966862E0
1.679604169E-2,-2.210298132E-1,-4.474730882E-1,-1.491579689E0,1.572862458E0
2.676304168E-2,-6.529002459E-1,-8.086099908E-1,-7.107892889E-1,1.259106930E0
3.673004167E-2,-1.049017312E0,-1.143757482E0,-9.538212061E-2,1.554900719E0
4.669704172E-2,-1.223483755E0,-1.433613317E0,1.234113336E-1,1.888753557E0
5.666404171E-2,-1.243124041E0,-1.796468424E0,6.561084670E-1,2.281038031E0
6.663104170E-2,-8.097692744E-1,-2.056038314E0,1.070750901E0,2.455509584E0
7.659804169E-2,-5.158445808E-1,-1.918154536E0,1.119953467E0,2.280286873E0
8.656504168E-2,-4.228701974E-1,-1.548553205E0,1.134716517E0,1.965812251E0
9.653204167E-2,-8.481386304E-4,-1.355903236E0,8.570445246E-1,1.604057238E0
1.064990417E-1,2.351213653E-1,-1.190472934E0,2.228408968E-1,1.233760888E0
1.164660417E-1,1.576641767E-1,-9.189156675E-1,-4.618715644E-2,9.334866095E-1
1.264330417E-1,3.191974559E-1,-7.165572748E-1,-1.319424212E-1,7.954559362E-1
1.363990417E-1,4.487185451E-1,-7.031481475E-1,8.670134425E-2,8.386195640E-1
1.463660417E-1,2.957840350E-1,-9.112274560E-1,4.298674142E-1,1.050052221E0
1.563330417E-1,8.249631912E-2,-1.149752632E0,1.794639122E-1,1.166595068E0
1.663000417E-1,-1.791309133E-1,-1.042746246E0,-5.804238617E-2,1.059611503E0
1.762670417E-1,-6.131273389E-2,-8.622321743E-1,-1.049885112E-1,8.707618280E-1
1.862340417E-1,9.230853170E-2,-7.265718010E-1,-1.940106153E-3,7.324146442E-1
1.962010417E-1,2.510882109E-1,-5.584108490E-1,3.445623851E-1,7.025604623E-1
2.061680417E-1,5.667127258E-1,-4.360122532E-1,5.224259144E-1,8.855500181E-1
2.161350417E-1,6.700836048E-1,-2.762924878E-1,4.685005528E-1,8.630424927E-1
2.261020417E-1,8.104726213E-1,-1.208473295E-3,7.531400871E-1,1.106384798E0
2.360690417E-1,1.099027451E0,2.646522895E-1,9.782450259E-1,1.494946656E0
2.460360417E-1,1.289488807E0,2.706820844E-1,9.290991783E-1,1.612226863E0
2.560030417E-1,1.268975605E0,1.485436897E-1,1.288273755E0,1.814390692E0
2.659700417E-1,1.130755028E0,3.514293551E-2,1.630022460E0,1.984140917E0
2.759370417E-1,1.112442718E0,-1.188436349E-1,2.077750779E0,2.359809508E0
2.859040417E-1,1.016984584E0,-2.835789956E-1,2.319243125E0,2.548247116E0
2.958710417E-1,9.660395479E-1,-4.734357124E-1,2.730264963E0,2.934573316E0
3.058380417E-1,1.174827247E0,-7.830002095E-1,3.139191159E0,3.442067623E0
3.158050417E-1,1.626336375E0,-9.821916041E-1,3.564387233E0,4.039124496E0
3.257720417E-1,2.124374138E0,-1.044403859E0,3.972615856E0,4.624437440E0
3.357380417E-1,2.184102861E0,-1.225043939E0,4.591341904E0,5.229862182E0
3.457050417E-1,1.975099985E0,-1.652080789E0,5.157952303E0,5.764968590E0
3.556712917E-1,1.858659702E0,-1.990801806E0,5.293808266E0,5.953344747E0
3.656382917E-1,1.553775353E0,-2.143983799E0,4.895856709E0,5.565994726E0
3.756052917E-1,1.186505890E0,-2.112749581E0,4.283638612E0,4.921490301E0
3.855722917E-1,9.098361111E-1,-2.188142703E0,3.402693009E0,4.146575689E0
3.955392917E-1,3.898619342E-1,-2.342686805E0,2.415361410E0,3.387350666E0
4.055062917E-1,-2.329998493E-1,-2.383770804E0,1.568696862E0,2.863121028E0
4.154732917E-1,-7.169557625E-1,-2.317971355E0,8.421727163E-1,2.568320785E0
4.254402917E-1,-8.922430086E-1,-2.313696894E0,-1.623993981E-1,2.485088423E0
4.354072917E-1,-1.113544626E0,-2.520687305E0,-1.297460901E0,3.045857993E0
4.453742917E-1,-1.706868030E0,-2.541847502E0,-2.502632273E0,3.954434914E0
4.553412917E-1,-2.592200507E0,-2.181579349E0,-3.694597124E0,5.012867426E0
4.653082917E-1,-3.515693667E0,-1.365872154E0,-4.653752160E0,5.990251904E0
4.752752917E-1,-4.024654321E0,-4.350020005E-1,-5.332263064E0,6.694781440E0
4.852422917E-1,-4.501022010E0,2.280327858E-1,-5.365899757E0,7.007430220E0
4.952092917E-1,-4.479195524E0,1.035135803E0,-4.949997833E0,6.755529381E0
5.051762917E-1,-3.710717897E0,1.444111700E0,-4.682509936E0,6.146607619E0
5.151432917E-1,-2.953973294E0,1.749512066E0,-4.451828508E0,5.621879379E0
5.251092917E-1,-2.259071475E0,1.986401630E0,-4.044665247E0,5.040685700E0
5.350762917E-1,-2.026841119E0,1.754002874E0,-3.731473759E0,4.594399571E0
5.450432917E-1,-2.060520789E0,1.131457717E0,-3.641350039E0,4.334209570E0
5.550102917E-1,-1.930685120E0,1.527500305E-1,-4.039791593E0,4.480043941E0
5.649772917E-1,-1.841806272E0,-1.059667211E0,-4.672035234E0,5.132548896E0
5.749442917E-1,-1.822467776E0,-1.977058948E0,-5.544076113E0,6.161731155E0
5.849112917E-1,-1.249714876E0,-2.368621691E0,-6.258226966E0,6.807169804E0
5.948782917E-1,-2.023411435E-1,-2.297579629E0,-6.843899288E0,7.222102987E0
6.048452917E-1,6.920033544E-1,-2.114953835E0,-7.225757554E0,7.560652789E0
6.148122917E-1,1.372988216E0,-1.830360494E0,-7.000288918E0,7.364737681E0
6.247792917E-1,3.591552812E0,-5.991550151E-1,-5.695110278E0,6.759624206E0
6.347462917E-1,8.154794167E0,2.193516294E0,-7.059881401E-1,8.474113575E0
6.447132917E-1,7.038599875E0,2.520038264E0,-1.253584564E-2,7.476137920E0
6.546802917E-1,1.466649852E1,5.367065692E0,7.536307270E0,1.734091982E1
6.646472917E-1,1.211506246E1,4.313916372E0,6.932935426E0,1.460993520E1
6.746142917E-1,7.443141244E0,2.659506052E0,3.995556822E0,8.856511635E0
6.845812917E-1,4.406395642E0,1.337408493E0,2.006541048E0,5.023065898E0
6.945482917E-1,1.050998422E0,2.456842142E-1,2.750557140E0,2.954745843E0
7.045152917E-1,-1.588068103E0,-2.385794087E-1,3.313237626E0,3.681904942E0
7.144812917E-1,-3.012076784E0,-2.090172020E-1,1.152097950E0,3.231659702E0
7.244482917E-1,-3.228275244E0,-3.192394097E-1,6.714305109E-1,3.312777351E0
7.344152917E-1,-2.805081257E0,-4.896579717E-1,7.376911587E-1,2.941502003E0
7.443822917E-1,-1.792271585E0,-3.846352543E-1,1.213849225E0,2.198547624E0
7.543492917E-1,-9.290886533E-1,-4.561493330E-1,1.109642487E0,1.517426897E0
7.643162917E-1,-3.033629036E-1,-4.833621284E-1,3.910822481E-1,6.918188515E-1
7.742832917E-1,-8.293047488E-1,-6.323021132E-1,-5.574501514E-1,1.182498626E0
7.842502917E-1,-2.057559759E0,-8.929601696E-1,-1.438219754E0,2.664471071E0
7.942172917E-1,-2.684256147E0,-9.249467781E-1,-2.402798082E0,3.719434934E0
8.041842917E-1,-2.867285106E0,-9.005940020E-1,-2.553511527E0,3.943705689E0
8.141512917E-1,-2.480692935E0,-8.094750863E-1,-2.189961187E0,3.406613766E0
8.241182917E-1,-1.739713302E0,-8.200135231E-1,-1.752827730E0,2.602197072E0
8.340852917E-1,-9.812768072E-1,-7.718231106E-1,-1.261247925E0,1.774644024E0
8.440522917E-1,-1.237802929E-1,-6.200390401E-1,-8.966591182E-1,1.097163409E0
8.540192917E-1,6.020380944E-1,-4.326717389E-1,-6.452677292E-1,9.828657808E-1
8.639862917E-1,7.841297454E-1,-2.400206012E-1,-8.107142575E-1,1.153137873E0
8.739532917E-1,2.030485396E0,4.288897598E-1,-1.165520964E0,2.380179928E0
8.839202917E-1,7.408919245E-1,9.863135988E-1,-1.262825211E0,1.765350637E0
8.938862917E-1,1.216017373E0,1.166894914E0,-1.958376364E0,2.583714375E0
9.038532917E-1,1.091289246E0,1.038177817E0,-1.180851048E0,1.913931711E0
9.138202917E-1,3.951630199E-1,2.830824208E-1,-4.851917222E-2,4.885115959E-1
9.237872917E-1,4.058143079E-1,-2.561086303E-1,8.377025199E-1,9.654130696E-1
9.337542917E-1,3.596137029E-1,-2.201652110E-1,1.501346294E0,1.559434330E0
9.437212917E-1,4.960672510E-1,1.543764335E-1,1.584139944E0,1.667157510E0
9.536882917E-1,5.245928925E-1,7.376356101E-1,1.066363077E0,1.398725923E0
9.636552917E-1,5.099163812E-1,1.427425793E0,4.654196548E-1,1.585614886E0
9.736222917E-1,4.128245348E-1,1.894406070E0,-2.035175302E-1,1.949517335E0
9.835892917E-1,8.244515598E-1,2.203178818E0,-5.027248907E-1,2.405504020E0
9.935562917E-1,1.311455042E0,2.429849641E0,-1.537576227E0,3.160415203E0
1.003523292E0,1.363214010E0,2.293872641E0,-1.645701184E0,3.135049683E0
1.013490292E0,1.337725412E0,1.782138360E0,-7.319883692E-1,2.345492142E0
1.023457292E0,1.151533109E0,1.348417631E0,-9.703021681E-1,2.021322563E0
1.033424292E0,-5.591575384E-2,5.762635678E-1,-7.682504618E-1,9.619849496E-1
1.043391292E0,-6.754680133E-1,7.400353074E-2,-3.849935424E-1,7.809952543E-1
1.053358292E0,-1.197158348E0,1.125723499E-1,-2.487253511E-1,1.227894517E0
1.063324292E0,-1.219240943E0,3.063590169E-1,-6.584904034E-2,1.258864734E0
1.073291292E0,-1.470636132E0,-2.681468779E-1,2.551257133E-2,1.495100088E0
1.083258292E0,-8.431684971E-4,-6.123806494E-1,4.630515691E-1,7.677418357E-1
1.093225292E0,2.203799207E0,3.579419839E-1,1.335222658E-1,2.236667522E0
1.103192292E0,3.351654418E0,-3.030126554E-1,7.044023752E-2,3.366060877E0
1.113159292E0,3.791653887E0,-1.850807476E0,1.596867578E0,4.511331685E0
1.123126292E0,3.281916431E0,-2.599168634E0,2.137288299E0,4.700495114E0
1.133093292E0,1.552331675E0,-2.616951186E0,1.773410221E0,3.521810749E0
1.143060292E0,3.017940956E-1,-2.191198457E0,7.904103128E-1,2.348867561E0
1.153027292E0,3.591137660E-1,-1.655771844E0,8.360824026E-2,1.696329400E0
1.162994292E0,6.813777941E-1,-1.242599400E0,2.261738098E-1,1.435090087E0
1.172961292E0,8.299707466E-1,-1.363800486E0,8.119725052E-1,1.791117683E0
1.182928292E0,1.296294381E0,-1.977785026E0,5.504568815E-1,2.427965303E0
1.192895292E0,1.782820145E0,-2.436486230E0,3.395945907E-1,3.038130561E0
1.202862292E0,2.178593615E0,-2.480239776E0,4.555588373E-1,3.332475557E0
1.212829292E0,2.178732778E0,-2.074804367E0,1.515715607E-1,3.012418235E0
1.222796292E0,1.954067550E0,-1.737693674E0,-3.604433862E-1,2.639673982E0
1.232762292E0,1.671958691E0,-1.935221974E0,-1.564608489E0,2.998087670E0
1.242729292E0,2.174808712E0,-2.049904000E0,-2.297092702E0,3.769420940E0
1.252696292E0,1.881380813E0,-9.197243375E-1,-2.602379340E0,3.340339032E0
1.262663292E0,-9.882086813E-1,1.176052823E0,-1.189573925E0,1.942869723E0
1.272630292E0,-2.728164643E0,1.876886058E0,5.736001611E-1,3.360744075E0
1.282597292E0,-2.022232051E0,2.027161254E0,6.522148792E-1,2.936697034E0
1.292564292E0,-4.316151470E-1,1.901745495E0,1.895948712E-1,1.959304412E0
1.302531292E0,8.468516582E-1,1.515652092E0,-6.675052019E-1,1.860086608E0
1.312498292E0,1.673409970E0,1.304892127E0,-8.094815183E-1,2.271190155E0
1.322465292E0,1.624824286E0,2.225543833E-1,-1.501571850E0,2.223578745E0
1.332432292E0,7.234175205E-2,-9.767493081E-1,-1.038410536E0,1.427434405E0
1.342399292E0,-5.470690048E-1,-1.636004162E0,5.874896371E-1,1.822344146E0
1.352366792E0,-1.112502067E0,-2.185241899E0,1.308376483E0,2.779351008E0
1.362333792E0,-2.315368467E0,-2.391326430E0,1.111453662E0,3.509231038E0
1.372300792E0,-3.759118517E0,-2.174111724E0,5.710577917E-1,4.379936166E0
1.382267792E0,-3.978275084E0,-1.453865148E0,8.092794970E-2,4.236383581E0
1.392234792E0,-2.949308678E0,7.672716379E-3,4.224341413E-1,2.979417922E0
1.402200792E0,-2.108877555E0,1.031824232E0,7.806781340E-1,2.474163321E0
1.412167792E0,-1.477219805E0,1.494326711E0,3.615760285E-1,2.132118171E0
1.422134792E0,-8.991330752E-1,1.798668439E0,1.378036702E-1,2.015598743E0
1.432101792E0,-7.004414713E-1,1.539544399E0,1.021394554E-1,1.694475636E0
1.442068792E0,-8.813636792E-1,8.788335890E-1,3.069134791E-1,1.281930691E0
1.452035792E0,-7.521709111E-1,4.046162134E-1,4.879583323E-1,9.836557801E-1
1.462002792E0,-3.792422211E-1,3.651206106E-1,5.968807040E-1,7.958670099E-1
1.471969792E0,-7.585300505E-3,6.275144130E-1,8.505137694E-1,1.056979445E0
1.481936792E0,3.136885017E-1,8.332282305E-1,1.085275092E0,1.403742065E0
1.491903792E0,6.405151123E-1,8.480298722E-1,8.416178155E-1,1.355630783E0
1.501870792E0,9.070595607E-1,8.052434564E-1,5.775718823E-1,1.343414809E0
1.511837792E0,1.131405531E0,7.416959167E-1,8.586984095E-1,1.602358969E0
1.521804792E0,1.215341142E0,5.487266904E-1,1.025468309E0,1.682183202E0
1.531771792E0,1.034850166E0,7.014495313E-2,8.940673399E-1,1.369376351E0
1.541738792E0,8.152401486E-1,-3.373784959E-2,1.532670120E0,1.736327285E0
1.551705792E0,7.377446607E-1,3.755654919E-1,2.235319500E0,2.383688296E0
1.561671792E0,2.741008052E-1,2.330647534E-1,1.254684279E0,1.305252110E0
1.571638792E0,-8.420779914E-2,-1.097335267E-1,-9.274721906E-2,1.665366235E-1
1.581605792E0,-2.657673535E-1,-3.116039693E-1,-1.128754696E0,1.200756629E0
1.591572792E0,-6.493400225E-1,-6.333177745E-1,-1.859923578E0,2.069311379E0
1.601539792E0,-7.903953293E-1,-8.553692973E-1,-2.217444270E0,2.504683713E0
1.611506792E0,-8.005993053E-1,-7.730071718E-1,-1.923571251E0,2.222301890E0
1.621473792E0,-5.712036797E-1,-2.988242948E-1,-1.177990152E0,1.342844146E0
1.631440792E0,-3.601674342E-1,2.517553782E-1,-1.993739739E-1,4.825467155E-1
1.641407792E0,-3.135157165E-1,3.976849240E-1,5.755446526E-1,7.666140166E-1
1.651374792E0,-2.827438670E-1,2.134011519E-1,8.058457196E-1,8.802678398E-1
1.661341792E0,-5.535500586E-2,-9.351861298E-2,7.213733339E-1,7.295131216E-1
1.671308792E0,2.846281323E-1,-5.022875190E-2,1.398085342E0,1.427647970E0
1.681275792E0,1.230679266E0,1.404035177E0,-3.088996321E-2,1.867308336E0
1.691242792E0,2.473372221E-4,1.814175255E0,-8.358121151E-1,1.997451829E0
1.701209792E0,-1.010959320E0,8.474287784E-1,4.324977842E-1,1.388246597E0
1.711176792E0,-1.516992858E-1,-5.725429845E-1,-2.646353325E-1,6.487295289E-1
1.721142792E0,4.235214311E-1,-1.217128344E0,-1.123509451E0,1.709691578E0
1.731109792E0,1.020225111E-1,-1.011205196E0,-4.489585733E-1,1.111084309E0
1.741076792E0,-1.279250917E-1,-6.796885335E-1,2.151307583E-2,6.919567502E-1
1.751043792E0,-8.313103437E-2,-3.302144873E-1,1.349941708E0,1.392226630E0
1.761010792E0,2.995212829E-1,7.790771663E-2,2.418798988E0,2.438518229E0
1.770977792E0,1.793425825E-1,1.107135201E-1,1.551475351E0,1.565725713E0
1.780944792E0,5.716267258E-2,-4.417103648E-2,5.360494883E-1,5.408952815E-1
1.790911792E0,1.828593904E-1,2.338365859E-1,-7.687422127E-2,3.066378180E-1
1.800878792E0,6.658946595E-1,2.845284373E-1,-1.011243203E0,1.243778495E0
1.810845792E0,4.297036922E-1,2.401159108E-1,-2.100803573E0,2.157701686E0
1.820812792E0,-7.094251335E-2,1.351692656E0,-3.424974116E0,3.682737239E0
1.830779792E0,3.208162576E-1,2.690022086E0,5.403388596E-1,2.762446013E0
1.840746792E0,2.084631783E-1,2.204978591E0,4.904574323E-1,2.268465555E0
1.850713792E0,4.793412906E-1,9.628715265E-1,-2.488548669E-1,1.104001084E0
1.860680792E0,4.840123388E-1,3.182487452E-1,-4.915151936E-1,7.596955926E-1
1.870647792E0,4.264947402E-1,-1.466914380E-1,-6.047585115E-1,7.544196436E-1
1.880614792E0,4.169675794E-1,-6.420003051E-1,-3.095992514E-1,8.257590753E-1
1.890580792E0,2.694864750E-2,-2.066265678E-1,1.655756056E-2,2.090333011E-1
1.900547792E0,-3.514007038E-1,6.861502916E-1,6.161526883E-1,9.868783170E-1
1.910514792E0,-5.013352999E-1,1.375001412E0,9.514191699E-1,1.745612902E0
1.920481792E0,-2.096299902E-1,1.663361530E0,1.364770539E0,2.161785127E0
1.930448792E0,3.237381113E-1,1.548518121E0,1.787928565E0,2.387342307E0
1.940415792E0,1.111257488E-1,1.268955140E0,2.315635100E0,2.642870030E0
1.950382792E0,-2.095738569E-1,1.777813759E0,2.089102271E0,2.751161803E0
1.960349792E0,-5.515950420E-1,2.086680062E0,2.205502063E0,3.085892111E0
1.970316792E0,-3.288360062E-1,7.417239833E-1,1.766651132E0,1.944053448E0
1.980283792E0,3.345484436E-2,-2.588989216E-1,8.712933120E-1,9.095602860E-1
1.990250792E0,-5.054564175E-1,-1.773957521E-1,2.374867103E-1,5.859653406E-1
2.000217792E0,-5.818894663E-1,2.868234694E-1,-3.925854211E-1,7.582785547E-1
2.010184792E0,-2.386023590E-1,4.683841932E-1,-5.815954976E-1,7.839439782E-1
2.020151792E0,-4.242792302E-1,2.639047229E-1,-1.104254570E0,1.212038251E0
2.030118792E0,-6.514912131E-1,1.140581274E-1,-1.325333262E0,1.481201645E0
2.040084792E0,-6.433878493E-1,6.985200763E-2,-1.116497470E0,1.290501386E0
2.050051792E0,-1.836756617E-1,-4.413525152E-1,-1.106612459E0,1.205454241E0
2.060018792E0,-1.032688451E-1,-2.828239739E-1,-9.691751173E-1,1.014866623E0
2.069985792E0,-3.833112985E-1,-2.221298754E-2,-7.087271221E-1,8.060490692E-1
2.079952792E0,-1.801027206E-1,-1.030513287E-2,-6.574679446E-1,6.817677639E-1
2.089919792E0,3.169600189E-2,-3.546371377E-1,-8.020660794E-1,8.775432363E-1
2.099886792E0,4.678015181E-1,-1.189986153E0,-8.475679421E-1,1.534039348E0
2.109853792E0,4.307272473E-1,-1.483357919E0,-6.580256228E-1,1.678950386E0
2.119820792E0,2.274002632E-1,-7.525600433E-1,-5.285086998E-1,9.473008732E-1
2.129787792E0,9.282279432E-2,3.372761697E-1,-3.000253129E-1,4.608540703E-1
2.139754792E0,-1.773331869E-1,1.135031682E0,-4.264725208E-1,1.225407193E0
2.149721792E0,-2.527660695E-1,1.093762618E0,-8.331488545E-1,1.397978671E0
2.159688792E0,-3.365996468E-1,7.273690689E-1,-1.233404945E0,1.470936043E0
2.169655792E0,-4.095313829E-1,3.347969502E-1,-1.542392578E0,1.630576529E0
2.179622792E0,-4.021548280E-1,6.813468039E-2,-1.296457372E0,1.359107265E0
2.189588792E0,-3.416449168E-1,7.918071395E-1,-5.421164131E-1,1.018611801E0
2.199555792E0,6.269209206E-2,9.917059010E-1,-1.444111700E-1,1.004124235E0
2.209522792E0,6.155399001E-1,1.105863431E0,2.360718302E-1,1.287459982E0
2.219489792E0,1.046710366E0,1.162845132E0,4.796998711E-1,1.636436176E0
2.229456792E0,9.983918998E-1,7.376256698E-1,5.217809665E-1,1.346526417E0
2.239423792E0,9.640895015E-1,-8.341520905E-2,5.308630081E-1,1.103740095E0
2.249390792E0,8.316763794E-1,-8.426036561E-1,5.115250964E-1,1.289699362E0
2.259357792E0,1.771940231E-2,-1.331251960E0,3.605393171E-1,1.379323877E0
2.269324792E0,-2.479807082E-1,-7.296658552E-1,9.419899499E-1,1.217066867E0
2.279291792E0,5.165944862E-1,1.597666892E0,1.949743827E0,2.573112969E0
2.289258792E0,1.535461873E0,1.551089727E0,2.015677030E0,2.970938639E0
2.299225792E0,6.783018664E-1,-1.143643461E0,3.426804587E-1,1.373114593E0
2.309192792E0,5.006970763E-3,-2.431312614E0,-5.770459253E-1,2.498857358E0
2.319159792E0,-2.138256598E-1,-3.032803409E0,-9.340915310E-1,3.180588769E0
2.329125792E0,-3.124252108E-1,-1.764485031E0,1.439105022E-1,1.797700523E0
2.339092792E0,-3.353243691E-1,-1.083463333E0,3.274253654E-1,1.180484051E0
2.349059792E0,-4.889620069E-1,-1.082003283E0,-1.302122301E-1,1.194474852E0
2.359026917E0,-6.636300328E-1,-1.017807287E0,-4.668647942E-1,1.301652500E0
2.368993917E0,-8.506564415E-1,-1.061185441E0,-6.740635121E-1,1.517923760E0
2.378960917E0,-1.179861699E0,-7.743017453E-1,-7.624956322E-1,1.604062471E0
2.388927917E0,-1.461821747E0,-6.116251892E-1,-4.468041667E-1,1.646402793E0
2.398894917E0,-1.334280525E0,-5.121044093E-1,8.564416766E-2,1.431743821E0
2.408861917E0,-9.535957959E-1,-4.447140795E-1,4.950860882E-1,1.162852437E0
2.418828917E0,-4.776780501E-1,-9.658653009E-1,6.235947320E-1,1.244966863E0
2.428795917E0,-5.852910841E-1,-1.288202419E0,3.568959171E-1,1.459248376E0
2.438762917E0,-1.163917512E0,-1.263133652E0,-4.403011858E-2,1.718181960E0
2.448729917E0,-1.865619935E0,-1.290414421E0,-2.217006898E-1,2.279223183E0
2.458696917E0,-2.165715999E0,-1.271909153E0,-1.021286380E-1,2.513664445E0
2.468663917E0,-2.577124046E0,-5.312563795E-1,1.217399070E0,2.899286496E0
2.478630917E0,-2.010164568E0,-4.604857743E-2,1.144609129E0,2.313657736E0
2.488596917E0,-1.278121235E0,-1.376268504E0,-9.077276051E-2,1.880411811E0
2.498563917E0,-1.357502450E0,-1.469823369E0,-2.219398409E-1,2.013070026E0
2.508530917E0,-1.866447901E0,-2.126024222E-1,5.872095555E-1,1.968157163E0
2.518497917E0,-1.339151548E0,5.010543412E-1,4.659450272E-1,1.503824155E0
2.528464917E0,-1.065908822E0,4.043571818E-1,6.637145251E-1,1.319160080E0
2.538431917E0,-1.287257217E0,5.623249751E-1,8.684767082E-1,1.651512129E0
2.548398917E0,-6.478986838E-1,5.854366797E-1,3.727535659E-1,9.494493306E-1
2.558365917E0,-1.656823173E-1,2.714885616E-1,9.306598002E-1,9.835061428E-1
2.568332917E0,-4.713466850E-1,1.065362692E-1,1.191135131E0,1.285426223E0
2.578299917E0,4.656137824E-2,-2.936863464E-1,8.474159145E-1,8.980720262E-1
2.588266917E0,8.301730603E-1,-1.134533499E0,7.098920336E-1,1.574896908E0
2.598233917E0,1.348866405E0,-1.038507600E0,3.096986541E-1,1.730275085E0
2.608200917E0,2.968745992E0,-1.533688998E0,-3.528268397E-2,3.341691125E0
2.618167917E0,3.391383909E0,-2.546199877E0,-1.732816511E-1,4.244366285E0
2.628133917E0,2.717824719E0,-2.528999122E0,6.609517157E-2,3.713054852E0
2.638100917E0,2.873585481E0,-2.395304291E0,5.862248844E-1,3.786639114E0
2.648067917E0,3.751262491E0,-2.368780736E0,7.250635117E-1,4.495420953E0
2.658034917E0,3.499969920E0,-1.948277053E0,1.789620165E0,4.387289966E0
2.668001917E0,2.561556127E0,-8.460201842E-1,2.348452598E0,3.576667380E0
2.677968917E0,1.836585293E0,3.129055595E-1,2.199110033E0,2.882193672E0
2.687935917E0,1.303579135E0,1.878002291E0,1.353365837E0,2.656653959E0
2.697902917E0,8.317269579E-1,2.795691213E0,8.818077752E-1,3.047169842E0
2.707869917E0,4.311257350E-1,2.898288798E0,1.799732047E-1,2.935700548E0
2.717836917E0,2.366312626E-1,2.591072579E0,-9.303963831E-1,2.763202652E0
2.727803917E0,1.204982507E-1,2.044630396E0,-1.836996206E0,2.751288488E0
2.737770917E0,1.571205318E-2,1.337313768E0,-2.183666074E0,2.560674229E0
2.747737917E0,-1.902838925E-1,4.706727934E-1,-2.106775042E0,2.167081428E0
2.757704917E0,-1.965421674E-1,-2.063055557E-1,-2.029649098E0,2.049552700E0
2.767671917E0,1.032103729E-1,-3.383175588E-1,-1.940690729E0,1.972661060E0
2.777637917E0,2.182093173E-2,-8.626046419E-2,-1.838029994E0,1.840182404E0
2.787604917E0,-1.714672601E-1,3.805414724E-1,-1.577044201E0,1.631343387E0
2.797571917E0,-4.260535678E-1,9.288816619E-1,-1.226703598E0,1.596604053E0
2.807538917E0,-6.263806379E-1,1.687621627E0,-8.338313708E-1,1.983858416E0
2.817505917E0,-7.444920552E-1,2.455696088E0,-3.658404028E-1,2.592016763E0
2.827472917E0,-9.167282242E-1,3.166496487E0,-2.107555792E-2,3.296594427E0
2.837439917E0,-1.139376748E0,3.725104972E0,1.817605524E-1,3.899695286E0
2.847406917E0,-1.565090007E0,4.201704503E0,3.735025942E-1,4.499259011E0
2.857373917E0,-1.795425281E0,4.692756012E0,5.579122277E-1,5.055371102E0
2.867340917E0,-1.955403931E0,5.132691162E0,6.591601288E-1,5.531963049E0
2.877307917E0,-2.052997177E0,5.467863504E0,7.444840153E-1,5.887833655E0
2.887274917E0,-2.076443634E0,5.718130766E0,8.045115311E-1,6.136438415E0
2.897241917E0,-2.040644056E0,5.832667195E0,8.394123919E-1,6.236092361E0
2.907207917E0,-1.865237820E0,5.752231143E0,8.433309035E-1,6.105610719E0
2.917174917E0,-1.586593143E0,5.502519951E0,8.161602080E-1,5.784558851E0
2.927141917E0,-1.087352023E0,4.872081345E0,8.153041756E-1,5.058085800E0
2.937108917E0,-4.467380932E-1,3.949814054E0,7.898629403E-1,4.052713837E0
2.947075917E0,2.179777676E-1,2.689145004E0,7.666166036E-1,2.804766688E0
2.957042917E0,9.232078162E-1,1.079623466E0,5.263436951E-1,1.514905009E0
2.967009917E0,1.904161565E0,-8.239954770E-1,1.140790312E-1,2.077934993E0
2.976976917E0,2.890292730E0,-2.941157075E0,-2.388435566E-1,4.130525784E0
2.986943917E0,3.930851533E0,-5.291761156E0,-4.997276080E-1,6.610904446E0
2.996910917E0,4.931221254E0,-7.681776055E0,-6.742400980E-1,9.153208515E0
3.006877917E0,6.058068588E0,-9.933100262E0,-6.658996296E-1,1.165375897E1
3.016844917E0,7.001434388E0,-1.161658732E1,-3.398378348E-1,1.356763333E1
3.026811917E0,7.613040866E0,-1.227830619E1,-5.413352251E-2,1.444708014E1
3.036778917E0,7.789685835E0,-1.194560664E1,-1.552552700E-1,1.426186620E1
3.046745917E0,8.452149641E0,-1.131332265E1,-7.127755880E-3,1.412197415E1
3.056711917E0,8.988534029E0,-1.045159392E1,-2.987810254E-2,1.378515333E1
3.066678917E0,9.090146357E0,-9.356489954E0,-2.403380319E-1,1.304731495E1
3.076645917E0,8.934119840E0,-8.448376433E0,-4.991498300E-1,1.230620625E1
3.086612917E0,7.923895807E0,-8.124714920E0,-9.156166685E-1,1.138584521E1
3.096579917E0,6.798873389E0,-8.226168205E0,-1.333338246E0,1.075510639E1
3.106546917E0,6.047714338E0,-8.704550552E0,-1.388485530E0,1.068980547E1
3.116513917E0,5.443611007E0,-9.443587739E0,-1.258037803E0,1.097255254E1
3.126480917E0,4.446849019E0,-1.037877504E1,-1.135618304E0,1.134826271E1
3.136447917E0,3.085811927E0,-1.059355496E1,-1.221117168E0,1.110120575E1
3.146414917E0,2.065927125E0,-9.060531380E0,-1.368393620E0,9.393284030E0
3.156381917E0,8.959355253E-1,-6.566673439E0,-1.348365591E0,6.763282508E0
3.166348917E0,-4.919379473E-1,-4.268078586E0,-1.189013688E0,4.457830337E0
3.176315917E0,-1.916944163E0,-2.394172854E0,-9.672452438E-1,3.215944953E0
3.186281917E0,-3.006611976E0,-5.341799873E-1,-5.845205672E-1,3.109136235E0
3.196248917E0,-3.855986123E0,1.237936830E0,-1.079675214E-1,4.051268142E0
3.206215917E0,-4.717810746E0,2.760962260E0,4.168002029E-1,5.482186904E0
3.216182917E0,-5.316123580E0,4.213995935E0,8.295879002E-1,6.834262779E0
3.226149917E0,-5.713835986E0,5.521316410E0,1.194830718E0,8.034953455E0
3.236116917E0,-6.081339337E0,6.452596600E0,1.554653166E0,9.001979642E0
3.246083917E0,-6.258034592E0,7.118074645E0,1.856105200E0,9.657904024E0
3.256050917E0,-6.293506726E0,7.622820919E0,2.193070882E0,1.012547212E1
3.266017917E0,-6.357548355E0,8.001554432E0,2.570319057E0,1.053801853E1
3.275984917E0,-6.396875558E0,8.232800701E0,3.002689079E0,1.084966202E1
3.285951917E0,-6.417921442E0,8.478662086E0,3.461320117E0,1.118294073E1
3.295918917E0,-6.520537738E0,8.686669182E0,3.758458074E0,1.149354780E1
3.305885917E0,-6.391456944E0,8.857718951E0,3.868123773E0,1.158759200E1
3.315852917E0,-6.444064343E0,9.151618136E0,3.612595772E0,1.176133190E1
3.325818917E0,-6.326053498E0,9.369356752E0,3.241864758E0,1.176067540E1
3.335785917E0,-5.982212659E0,9.460790833E0,2.961204253E0,1.157852159E1
3.345752917E0,-5.516874281E0,9.526555052E0,2.715609502E0,1.133868105E1
3.355720208E0,-5.310764022E0,9.862210958E0,2.457618653E0,1.146766362E1
3.365687208E0,-5.209697238E0,1.013067534E1,2.122510046E0,1.158777705E1
3.375654208E0,-5.260549303E0,1.023688300E1,1.821577245E0,1.165269480E1
3.385621208E0,-5.319032570E0,1.031792891E1,1.570495320E0,1.171401810E1
3.395588208E0,-5.324031354E0,1.027302580E1,1.156716154E0,1.162834302E1
3.405555208E0,-5.243441520E0,1.018128533E1,7.992102993E-1,1.148002557E1
3.415522208E0,-4.947713910E0,1.028934071E1,3.799298537E-1,1.142342995E1
3.425489208E0,-4.568022623E0,1.030268054E1,2.795319915E-2,1.126999727E1
3.435456208E0,-4.327042201E0,1.000574841E1,-1.658715113E-1,1.090255973E1
3.445423208E0,-4.155373212E0,9.519261235E0,-1.869881094E-1,1.038837935E1
3.455389208E0,-4.016007751E0,8.895912378E0,-3.785720388E-2,9.760481979E0
3.465356208E0,-3.849153067E0,8.487712991E0,2.697379053E-2,9.319762805E0
3.475323208E0,-3.679033005E0,8.172022988E0,3.286144333E-3,8.961989420E0
3.485290208E0,-3.505704869E0,7.938017417E0,-1.055498439E-1,8.678319417E0
3.495257208E0,-3.327881393E0,7.650253716E0,-2.104868996E-1,8.345386822E0
3.505224208E0,-1.168487403E0,5.549297676E0,-1.212835683E-1,5.672281482E0
3.515191208E0,7.378923029E0,-4.535419718E0,1.424369673E-1,8.662495332E0
3.525158208E0,1.051685587E1,-1.826653798E1,8.936638089E-1,2.109666566E1
3.535125208E0,6.975380949E0,-2.999246238E1,3.109435848E0,3.094951261E1
3.545092208E0,3.028592829E0,-3.653245381E1,6.924112562E0,3.730597661E1
3.555059208E0,6.740494203E0,-3.815777394E1,7.729964129E0,3.951205284E1
3.565026208E0,1.309539845E1,-3.214611353E1,3.347190653E0,3.487213445E1
3.574993208E0,1.424306304E1,-2.119294779E1,-2.315198606E0,2.563915024E1
3.584960208E0,1.330563392E1,-1.119260104E1,-8.147376389E0,1.920140500E1
3.594926208E0,1.167896308E1,-6.268114607E0,-7.699160997E0,1.532855242E1
3.604893208E0,1.093920493E1,-4.342165732E0,-3.909767058E0,1.240189043E1
3.614860208E0,1.074324953E1,-3.550283164E0,-1.334475530E0,1.139310081E1
3.624827208E0,9.276602955E0,-2.301224930E0,-2.316409381E-1,9.560578230E0
3.634794208E0,7.420540586E0,-8.490706766E-1,-1.753299308E-1,7.471016275E0
3.644761208E0,5.979877866E0,-4.249873281E-2,-2.054419219E-1,5.983556786E0
3.654728208E0,4.149046817E0,5.035130954E-1,-4.227835125E-1,4.200816686E0
3.664695208E0,2.606841935E0,7.736024183E-1,-9.688345170E-1,2.886646133E0
3.674662208E0,1.325410007E0,1.311149817E0,-1.431898913E0,2.350778600E0
3.684629208E0,-6.718801618E-2,1.944911395E0,-1.556559212E0,2.492001434E0
3.694596208E0,-1.090316269E0,2.692082060E0,-1.379176909E0,3.215310923E0
3.704563208E0,-1.816457423E0,3.443272685E0,-1.069670336E0,4.037305906E0
3.714530208E0,-2.501048847E0,4.122218038E0,-8.303584170E-1,4.892588475E0
3.724496208E0,-2.978978035E0,4.781950609E0,-6.215583660E-1,5.668129900E0
3.734463208E0,-3.462633986E0,5.309586977E0,-5.616729375E-1,6.363727247E0
3.744430208E0,-3.913530326E0,5.773704457E0,-5.924187668E-1,7.000167339E0
3.754397208E0,-4.249916550E0,6.165062109E0,-6.260794332E-1,7.514103869E0
3.764364208E0,-4.485755807E0,6.460166405E0,-6.508103049E-1,7.891724096E0
3.774331208E0,-4.632005780E0,6.637715355E0,-6.281529289E-1,8.118455443E0
3.784298208E0,-4.926133592E0,6.657574253E0,-5.800403209E-1,8.302200544E0
3.794265208E0,-5.311274484E0,6.448172012E0,-4.434955198E-1,8.365718571E0
3.804232208E0,-5.463333081E0,5.966709352E0,-2.004343665E-1,8.092577017E0
3.814199208E0,-5.265186730E0,5.297734087E0,5.342951775E-2,7.469339493E0
3.824166208E0,-5.048939154E0,4.519569671E0,3.232948923E-1,6.784011805E0
3.834133208E0,-4.920543069E0,3.604208525E0,6.190716183E-1,6.130686165E0
3.844100208E0,-5.092009159E0,2.377687215E0,9.625201088E-1,5.701613695E0
3.854066208E0,-5.259503236E0,9.109119987E-1,1.347563353E0,5.505275829E0
3.864033208E0,-4.971495706E0,-5.064086366E-1,1.616893122E0,5.252291179E0
3.874000208E0,-4.588206042E0,-1.588299653E0,1.738244482E0,5.157113955E0
3.883967208E0,-4.223233366E0,-2.015417706E0,1.692916866E0,4.976301449E0
3.893934208E0,-3.776658118E0,-1.324711849E0,1.383227860E0,4.234539802E0
3.903901208E0,-3.577612465E0,2.231437826E-1,9.131994295E-1,3.699058974E0
3.913868208E0,-3.317815411E0,1.785284162E0,5.139783689E-1,3.802540257E0
3.923835208E0,-2.822333466E0,2.896600707E0,2.001215404E-1,4.049186397E0
3.933802208E0,-2.332732651E0,3.469543056E0,1.796440065E-2,4.180872320E0
3.943769208E0,-1.727624476E0,3.520767004E0,-9.837593157E-2,3.923030009E0
3.953736208E0,-1.186620204E0,2.975091975E0,-2.017628539E-1,3.209353209E0
3.963703208E0,-8.579704311E-1,2.157757646E0,-3.452313066E-1,2.347597916E0
3.973670208E0,-3.626606870E-1,1.166444094E0,-7.180100155E-1,1.416916716E0
3.983636208E0,6.209514982E-1,-1.568147224E-1,-1.153269732E0,1.319167425E0
3.993603208E0,1.907598558E0,-1.971656560E0,-1.500408400E0,3.126913369E0
4.003570208E0,3.368662798E0,-4.469521598E0,-1.749824308E0,5.863991599E0
4.013537208E0,5.037771556E0,-7.570163233E0,-2.097259430E0,9.331934995E0
4.023504208E0,7.407044628E0,-1.105116508E1,-2.493156275E0,1.353544931E1
4.033471208E0,1.030947969E1,-1.455756138E1,-2.225021676E0,1.797661498E1
4.043438208E0,1.291127898E1,-1.679239059E1,-1.582243692E0,2.124120999E1
4.053405208E0,1.457936097E1,-1.685797881E1,-1.494604454E0,2.233792869E1
4.063372208E0,1.450701922E1,-1.602959909E1,-1.500340573E0,2.167147146E1
4.073339208E0,1.334584873E1,-1.494314666E1,-1.272374007E0,2.007556340E1
4.083306208E0,1.191476375E1,-1.335851380E1,-9.837677211E-1,1.792705455E1
4.093273208E0,1.098165572E1,-1.197669161E1,-2.687473869E-1,1.625146545E1
4.103240208E0,1.020623540E1,-1.056433058E1,2.880396903E-1,1.469201445E1
4.113206208E0,9.493573247E0,-9.076660924E0,6.497297394E-1,1.315050779E1
4.123173208E0,7.691613995E0,-7.113684556E0,7.915048385E-1,1.050675562E1
4.133140208E0,5.508422130E0,-4.995660494E0,9.124878234E-1,7.492127346E0
4.143107208E0,3.527029957E0,-3.018154964E0,9.867246580E-1,4.745821873E0
4.153074208E0,1.583327181E0,-1.150885237E0,9.987488723E-1,2.197489727E0
4.163041208E0,-2.426325524E-1,4.747640902E-1,1.047988275E0,1.175819256E0
4.173008208E0,-1.797598398E0,1.817925074E0,9.935220462E-1,2.742863036E0
4.182975208E0,-3.075222035E0,2.921090015E0,8.390812933E-1,4.323634450E0
4.192942208E0,-4.225124940E0,3.775602111E0,6.866484743E-1,5.707743704E0
4.202909208E0,-5.158846343E0,4.477144613E0,5.313587058E-1,6.851340128E0
4.212876208E0,-5.912076477E0,5.219293689E0,3.045779550E-1,7.892176037E0
4.222843208E0,-6.728859998E0,5.817984837E0,1.157626090E-1,8.896061230E0
4.232810208E0,-7.534002298E0,6.214120833E0,7.883782592E-3,9.766091875E0
4.242776208E0,-8.054952375E0,6.545311221E0,-6.694712916E-2,1.037920222E1
4.252743208E0,-8.145541533E0,6.931085951E0,-1.934943062E-1,1.069706686E1
4.262710208E0,-7.781010321E0,7.326944790E0,-1.337813888E-1,1.068859855E1
4.272677208E0,-7.688943572E0,7.491344520E0,9.477108657E-2,1.073541231E1
4.282644208E0,-7.551805900E0,7.802685365E0,5.725476623E-2,1.085886501E1
4.292611208E0,-7.431296539E0,8.268882700E0,1.180260479E-1,1.111811672E1
4.302578208E0,-7.310670819E0,8.610368865E0,-4.614001326E-3,1.129532563E1
4.312545208E0,-7.043988084E0,9.126637076E0,-6.311892053E-2,1.152897465E1
4.322512208E0,-6.673254147E0,9.460986130E0,2.197966537E-2,1.157769677E1
4.332479208E0,-6.250611552E0,9.740420473E0,3.999458961E-3,1.157350214E1
4.342446208E0,-5.783199166E0,9.943018309E0,1.057544873E-1,1.150305132E1
4.352412792E0,-5.375745299E0,1.020668096E1,1.733354455E-1,1.153711484E1
4.362378792E0,-5.151042064E0,1.027374618E1,2.826181519E-1,1.149621538E1
4.372345792E0,-4.817071618E0,1.028248309E1,4.673737943E-1,1.136450948E1
4.382312792E0,-4.537553659E0,1.045872753E1,7.489160585E-1,1.142520240E1
4.392279792E0,-4.362166134E0,1.037612976E1,1.011620933E0,1.130114769E1
4.402246792E0,-4.340699543E0,1.002938987E1,1.284662515E0,1.100366718E1
4.412213792E0,-4.425211690E0,9.645611379E0,1.433386445E0,1.070863736E1
4.422180792E0,-4.661189234E0,9.259917925E0,1.588455774E0,1.048789573E1
4.432147792E0,-5.004378108E0,8.993051587E0,1.546549948E0,1.040723757E1
4.442114792E0,-5.224377843E0,8.775259176E0,1.429839524E0,1.031231005E1
4.452081792E0,-5.312749152E0,8.534021185E0,1.368292902E0,1.014529677E1
4.462048792E0,-5.337817919E0,8.289383038E0,1.226399689E0,9.935302083E0
4.472015792E0,-5.317701159E0,8.015662009E0,1.036884413E0,9.674911490E0
4.481982792E0,-5.255140629E0,7.599104027E0,8.716116929E-1,9.280225859E0
4.491948792E0,-5.062619884E0,6.762221287E0,8.216565907E-1,8.487218412E0
4.501915792E0,-3.300412928E0,3.810112962E0,8.813666028E-1,5.117274017E0
4.511882792E0,2.102129283E0,-4.359037873E0,1.128955840E0,4.969376218E0
4.521849792E0,4.520245024E0,-1.405014468E1,6.507296133E-1,1.477371415E1
4.531816792E0,2.763256123E0,-2.157438973E1,2.262352055E0,2.186797004E1
4.541783792E0,9.034796029E-1,-2.785552960E1,5.058900470E0,2.832559405E1
4.551750792E0,4.844089555E0,-3.083896146E1,5.804566061E0,3.175216110E1
4.561717792E0,8.450799519E0,-2.872317454E1,3.020302062E0,3.009250725E1
4.571684792E0,1.089826507E1,-2.199788485E1,2.921853662E-1,2.455126253E1
4.581651792E0,1.108171210E1,-1.496230682E1,-2.136032171E0,1.874133405E1
4.591618792E0,1.202798455E1,-1.044362534E1,-3.446569930E0,1.629787001E1
4.601585792E0,1.291934580E1,-7.944868015E0,-3.567454097E0,1.558066598E1
4.611551792E0,1.325325456E1,-6.938449935E0,-3.794558784E0,1.543338979E1
4.621518792E0,1.332932683E1,-6.317038261E0,-3.793610365E0,1.523047622E1
4.631485792E0,1.286421357E1,-4.924854221E0,-4.280681675E0,1.442450746E1
4.641452792E0,1.145602629E1,-2.639556522E0,-4.929471767E0,1.274784252E1
4.651419792E0,8.348410680E0,-9.171503931E-1,-3.986479604E0,9.296727669E0
4.661386792E0,5.511142840E0,6.225267380E-1,-2.859686065E0,6.240035203E0
4.671353792E0,3.889149191E0,2.143227316E0,-2.313685931E0,5.007199551E0
4.681320792E0,3.044554558E0,3.031756757E0,-1.597418386E0,4.583951024E0
4.691287792E0,2.121585016E0,3.751136191E0,-1.136374787E0,4.456847918E0
4.701254792E0,1.349975329E0,4.183878681E0,-9.429032850E-1,4.496258535E0
4.711221792E0,7.531816024E-1,4.708221313E0,-8.582309246E-1,4.844707502E0
4.721188792E0,-1.659030497E-2,5.238128155E0,-8.980528021E-1,5.314580006E0
4.731155792E0,-7.972649306E-1,5.727669913E0,-7.489265835E-1,5.831185560E0
4.741121792E0,-1.331582912E0,6.228978024E0,-4.496777809E-1,6.385568916E0
4.751088792E0,-1.827806284E0,6.360459684E0,-1.290503883E-1,6.619137195E0
4.761055792E0,-2.249531450E0,6.101479486E0,2.848073494E-1,6.509190341E0
4.771022792E0,-2.691101482E0,5.886514204E0,7.105723572E-1,6.511373875E0
4.780989792E0,-3.134531513E0,5.607145935E0,1.030746006E0,6.505982683E0
4.790956792E0,-3.448819939E0,5.322863665E0,1.292778450E0,6.472906047E0
4.800923792E0,-3.620615813E0,5.142301061E0,1.476894407E0,6.460134376E0
4.810890792E0,-3.621939622E0,5.078117344E0,1.622532177E0,6.445023899E0
4.820857792E0,-3.577560425E0,4.870216668E0,1.813168949E0,6.309162435E0
4.830824792E0,-3.524840759E0,4.459873692E0,2.006779615E0,6.028444256E0
4.840791792E0,-3.374690108E0,4.003165804E0,2.135310770E0,5.654504564E0
4.850758792E0,-3.206512492E0,3.495290101E0,2.269090387E0,5.258093422E0
4.860724792E0,-3.107901539E0,3.036329280E0,2.381188527E0,4.954634828E0
4.870691792E0,-2.974182733E0,2.834962867E0,2.379441379E0,4.748106851E0
4.880658792E0,-2.811707321E0,2.907384726E0,2.271540370E0,4.638801533E0
4.890625792E0,-2.903195196E0,3.396364567E0,2.153860477E0,4.960136044E0
4.900592792E0,-3.090884972E0,3.766327257E0,1.987303709E0,5.261954670E0
4.910559792E0,-3.242652962E0,4.047542662E0,1.747829822E0,5.472870264E0
4.920526792E0,-3.225418294E0,4.345899180E0,1.552747997E0,5.630380910E0
4.930493792E0,-3.208230988E0,4.485288030E0,1.410126221E0,5.692012891E0
4.940460792E0,-3.347814551E0,4.136707438E0,1.383721365E0,5.498626693E0
4.950427792E0,-3.245544410E0,3.496594030E0,1.399434003E0,4.971734492E0
4.960394792E0,-2.808364761E0,2.850939215E0,1.374159998E0,4.231203462E0
4.970361792E0,-2.371411983E0,1.787435938E0,1.280843114E0,3.234050263E0
4.980327792E0,-1.876560076E0,3.316306829E-2,1.133171682E0,2.192408623E0
4.990294792E0,-8.855257273E-1,-2.362688522E0,1.276457117E0,2.827683794E0
5.000261792E0,7.064570868E-1,-5.478286166E0,1.532241812E0,5.732230447E0
5.010228792E0,2.715935776E0,-9.078309254E0,1.719242200E0,9.630565913E0
5.020195792E0,4.946832150E0,-1.275545302E1,1.936009009E0,1.381741152E1
5.030162792E0,6.863129611E0,-1.602986338E1,2.038091455E0,1.755599285E1
5.040129792E0,8.680329046E0,-1.784100803E1,1.900118800E0,1.993138558E1
5.050096792E0,1.092476348E1,-1.798930277E1,1.448497989E0,2.109653094E1
5.060063792E0,1.211149332E1,-1.675839254E1,3.266540446E-1,2.067942682E1
5.070030792E0,1.147489175E1,-1.432224019E1,-1.057459595E0,1.838254404E1
5.079997792E0,1.073982657E1,-1.213337477E1,-1.960279047E0,1.632192856E1
5.089964792E0,1.002744392E1,-1.150355480E1,-2.035834429E0,1.539564959E1
5.099931792E0,9.675938548E0,-1.152762077E1,-1.422193120E0,1.511729012E1
5.109897792E0,9.282036188E0,-1.118857698E1,-1.116693059E0,1.458037908E1
5.119864792E0,8.545968801E0,-1.044794994E1,-9.516799557E-1,1.353140552E1
5.129831792E0,7.605575141E0,-9.250081154E0,-9.901943958E-1,1.201620820E1
5.139798792E0,6.110529222E0,-7.464457269E0,-1.214478385E0,9.722738680E0
5.149765792E0,4.229096369E0,-5.486276971E0,-1.475349573E0,7.082453491E0
5.159732792E0,2.120144262E0,-3.604965740E0,-1.547144026E0,4.459197721E0
5.169699792E0,-1.225564706E-1,-1.574433566E0,-1.225991553E0,1.999228959E0
5.179666792E0,-1.955102507E0,1.333346432E-1,-6.427540112E-1,2.062361913E0
5.189633792E0,-3.364795450E0,1.736485639E0,-3.329462699E-1,3.801063537E0
5.199600792E0,-4.345327322E0,3.245892320E0,-1.186189191E-1,5.425104325E0
5.209567792E0,-5.050574035E0,4.530653068E0,4.964991409E-2,6.785099883E0
5.219534792E0,-5.644288033E0,5.535771897E0,5.135960340E-2,7.906035397E0
5.229500792E0,-6.123757378E0,6.494562067E0,7.486076910E-2,8.926664831E0
5.239467792E0,-6.145440608E0,7.206645344E0,1.884803188E-1,9.472998586E0
5.249434792E0,-6.153381127E0,7.587589690E0,4.907801986E-1,9.781435569E0
5.259401792E0,-6.549845737E0,7.918599983E0,8.313220382E-1,1.030998551E1
5.269368792E0,-6.350072690E0,8.381966681E0,9.628797126E-1,1.055973134E1
5.279335792E0,-5.976570681E0,8.646641482E0,1.139888891E0,1.057275521E1
5.289302792E0,-5.988170387E0,9.240787005E0,1.301060300E0,1.108797037E1
5.299269792E0,-5.577573057E0,9.374994637E0,1.594824415E0,1.102466827E1
5.309236792E0,-5.689425030E0,9.352227334E0,2.081490659E0,1.114299406E1
5.319203792E0,-6.245429165E0,9.590559259E0,2.685957102E0,1.175578912E1
5.329170792E0,-6.604649350E0,9.589138386E0,3.194310522E0,1.207379757E1
5.339137792E0,-6.851501838E0,9.641285024E0,3.616541473E0,1.236838011E1
5.349103792E0,-6.766470459E0,9.736844316E0,3.657871932E0,1.240851670E1
5.359070917E0,-6.242733014E0,9.641471550E0,3.316243680E0,1.195521482E1
5.369037917E0,-5.724371499E0,9.448969517E0,2.909301151E0,1.142433749E1
5.379004917E0,-5.312419953E0,9.321266912E0,2.395702486E0,1.099305294E1
5.388971917E0,-5.115702077E0,9.249028655E0,1.991298673E0,1.075547345E1
5.398938917E0,-4.973512995E0,9.276730424E0,1.663540893E0,1.065649695E1
5.408905917E0,-4.932628094E0,9.264437823E0,1.457996206E0,1.059652684E1
5.418872917E0,-4.980767051E0,9.247639942E0,1.283271901E0,1.058176127E1
5.428839917E0,-5.011580123E0,9.191473927E0,1.229199189E0,1.054087562E1
5.438806917E0,-5.050760561E0,9.036178311E0,1.226830044E0,1.042438548E1
5.448773917E0,-5.059409763E0,8.818011678E0,1.245703686E0,1.024239888E1
5.458740917E0,-5.013171735E0,8.516052691E0,1.265441548E0,9.962749952E0
5.468706917E0,-4.934859391E0,8.198282833E0,1.308502783E0,9.657994520E0
5.478673917E0,-4.865906393E0,7.808489896E0,1.359106926E0,9.300361881E0
5.488640917E0,-4.815798094E0,7.471905452E0,1.381701736E0,8.996131505E0
5.498607917E0,-4.338655649E0,6.645876313E0,1.401596449E0,8.059533325E0
5.508574917E0,-1.116589271E0,3.066093362E0,1.572166600E0,3.622072324E0
5.518541917E0,3.985899268E0,-6.083659512E0,1.968616008E0,7.534836097E0
5.528508917E0,4.552397693E0,-1.464053688E1,2.143688661E0,1.548111901E1
5.538475917E0,3.022960206E0,-2.073766954E1,3.198112382E0,2.119946106E1
5.548442917E0,3.609468681E0,-2.646672700E1,3.841591448E0,2.698654715E1
5.558409917E0,9.231695169E0,-3.172714884E1,2.413690276E0,3.313098353E1
5.568376917E0,1.572876452E1,-3.344774817E1,1.154329832E0,3.697943170E1
5.578343917E0,1.950590913E1,-2.521214607E1,-3.324301727E0,3.204970799E1
5.588309917E0,1.662260265E1,-1.372428286E1,-1.080733852E1,2.411359419E1
5.598276917E0,1.416635342E1,-7.746573730E0,-1.077670613E1,1.941217063E1
5.608243917E0,1.254145896E1,-6.479380356E0,-4.620757492E0,1.485334853E1
5.618210917E0,1.227273263E1,-4.881424611E0,-1.241051642E0,1.326606504E1
5.628177917E0,1.179889532E1,-2.364652601E0,-4.795441159E-1,1.204306752E1
5.638144917E0,1.144106326E1,1.021976352E-2,-1.437727418E0,1.153104909E1
5.648111917E0,8.235545384E0,1.481545867E0,-2.673728235E0,8.784532350E0
5.658078917E0,4.707098647E0,2.075506618E0,-3.182588024E0,6.049245567E0
5.668045917E0,2.783081692E0,1.917661616E0,-3.202295480E0,4.655928062E0
5.678012917E0,7.863288832E-1,1.983391922E0,-2.747027761E0,3.478263668E0
5.687979917E0,-5.469935757E-1,2.726456671E0,-1.796569873E0,3.310654204E0
5.697946917E0,-1.286815460E0,3.869945181E0,-6.810018182E-1,4.134747055E0
5.707912917E0,-1.898437141E0,5.053581258E0,2.134492452E-1,5.402620446E0
5.717879917E0,-2.596985868E0,5.897261971E0,7.223839521E-1,6.484124685E0
5.727846917E0,-3.429827013E0,6.491508651E0,1.111760494E0,7.425591512E0
5.737813917E0,-4.168916241E0,7.002759367E0,1.004004350E0,8.211365666E0
5.747780917E0,-4.766043259E0,7.175830518E0,6.560037287E-1,8.639331737E0
5.757747917E0,-5.096910880E0,7.085586931E0,4.153417611E-1,8.738223587E0
5.767714917E0,-5.007906318E0,6.987206358E0,2.365537870E-1,8.599775350E0
5.777681917E0,-4.673886462E0,6.764330378E0,8.220958628E-2,8.222416831E0
5.787648917E0,-4.337126017E0,6.412517445E0,-1.560154080E-2,7.741529919E0
5.797615917E0,-3.981627000E0,5.922477504E0,-8.887296360E-2,7.137015606E0
5.807582917E0,-3.519271286E0,5.256931631E0,-5.206006330E-2,6.326397933E0
5.817549917E0,-2.794506567E0,4.348636846E0,1.295334414E-1,5.170753164E0
5.827515917E0,-1.923471994E0,3.060788768E0,4.198335922E-1,3.639290129E0
5.837482917E0,-1.053547808E0,1.513839455E0,7.835268974E-1,2.003893030E0
5.847449917E0,-2.924508297E-1,-1.706129819E-1,1.205810473E0,1.252443681E0
5.857416917E0,2.047110200E-2,-1.960272031E0,1.560714244E0,2.505776217E0
5.867383917E0,5.861716747E-2,-3.119153920E0,1.745826566E0,3.574977979E0
5.877350917E0,-2.298277348E-1,-3.164392074E0,1.695336444E0,3.597271694E0
5.887317917E0,-7.028388298E-1,-2.137524526E0,1.205282469E0,2.552586796E0
5.897284917E0,-1.513944705E0,-7.213815200E-1,5.786311054E-1,1.774044481E0
5.907251917E0,-2.058053849E0,6.798744750E-1,4.875174522E-2,2.167992546E0
5.917218917E0,-2.534436448E0,1.880695519E0,-3.805134058E-1,3.178863664E0
5.927185917E0,-2.747884963E0,2.849356374E0,-5.952424604E-1,4.003001011E0
5.937152917E0,-2.786498805E0,3.587331122E0,-5.500499153E-1,4.575595599E0
5.947118917E0,-2.855343338E0,4.066587043E0,-4.251200598E-1,4.987067557E0
5.957085917E0,-2.784200265E0,4.344796395E0,-3.550376719E-1,5.172531157E0
5.967052917E0,-2.838791624E0,4.572370028E0,-3.896917071E-1,5.396032356E0
5.977019917E0,-2.959819048E0,4.695938652E0,-4.360689712E-1,5.567991089E0
5.986986917E0,-2.977516816E0,4.638628922E0,-5.191063770E-1,5.536420874E0
5.996953917E0,-2.898144372E0,4.345432572E0,-6.224062123E-1,5.260172481E0
6.006920917E0,-2.700361133E0,3.756102231E0,-7.399288881E-1,4.684842471E0
6.016887917E0,-2.148441862E0,2.807504928E0,-8.003616160E-1,3.624702066E0
6.026854917E0,-1.387614441E0,1.453487418E0,-8.008755863E-1,2.163215481E0
6.036821917E0,-6.383083731E-1,-4.379213691E-1,-7.373970437E-1,1.069096396E0
6.046788917E0,6.809538710E-1,-3.118189130E0,-5.356365653E-1,3.236310886E0
6.056755917E0,2.419608243E0,-6.239577271E0,-3.189405439E-1,6.699891913E0
6.066721917E0,4.716843032E0,-9.568797092E0,-9.427758157E-2,1.066861632E1
6.076688917E0,7.175988393E0,-1.284444999E1,-9.411035120E-2,1.471338036E1
6.086655917E0,9.488397292E0,-1.512510032E1,-2.612214357E-1,1.785683565E1
6.096622917E0,1.173696278E1,-1.586121097E1,-8.124495649E-1,1.974827545E1
6.106589917E0,1.287044437E1,-1.602382789E1,-1.326503436E0,2.059541235E1
6.116556917E0,1.233550483E1,-1.544429046E1,-8.857946992E-1,1.978573778E1
6.126523917E0,1.148467414E1,-1.387643677E1,2.237963319E-2,1.801259943E1
6.136490917E0,1.138078198E1,-1.231602307E1,7.708530575E-1,1.678692459E1
6.146457917E0,1.116757729E1,-1.170519486E1,1.137691580E0,1.621791329E1
6.156424917E0,1.073715790E1,-1.135323925E1,1.071947826E0,1.566306718E1
6.166391917E0,1.041681001E1,-1.122237623E1,5.392734969E-1,1.532130787E1
6.176357917E0,9.607864094E0,-1.050037374E1,4.014661722E-3,1.423267077E1
6.186324917E0,7.581950635E0,-8.800330283E0,-1.762818575E-1,1.161735184E1
6.196291917E0,5.341906877E0,-6.489851550E0,-2.390879703E-1,8.409001444E0
6.206258917E0,3.409640086E0,-4.187411569E0,-2.718172117E-1,5.406842494E0
6.216225917E0,1.367221692E0,-2.211622197E0,-2.097443032E-1,2.608555265E0
6.226192917E0,-4.660897458E-1,-3.927948976E-1,3.076687932E-2,6.103065488E-1
6.236159917E0,-1.949637700E0,1.261451992E0,2.924607700E-1,2.340487469E0
6.246126917E0,-3.128441638E0,2.854382640E0,4.247353131E-1,4.256177560E0
6.256093917E0,-4.401196298E0,4.245782568E0,4.636433073E-1,6.132875638E0
6.266060917E0,-5.471753656E0,5.298706478E0,4.043595207E-1,7.627573995E0
6.276027917E0,-6.425047444E0,6.052383925E0,3.462124693E-1,8.833597732E0
6.285994917E0,-6.960454761E0,6.629296533E0,3.091259193E-1,9.617227347E0
6.295960917E0,-7.285493878E0,7.018521706E0,3.124851447E-1,1.012105306E1
6.305927917E0,-7.475361156E0,7.158083049E0,3.470228934E-1,1.035565557E1
6.315894917E0,-7.821706942E0,7.111443903E0,4.269093078E-1,1.057988589E1
6.325861917E0,-8.244847720E0,7.223636184E0,5.200279713E-1,1.097400851E1
6.335828917E0,-8.784804171E0,7.470826641E0,5.849864441E-1,1.154678501E1
6.345795917E0,-8.822733890E0,7.747093547E0,6.918326157E-1,1.176166332E1
6.355762542E0,-8.478007198E0,8.319945849E0,7.794011021E-1,1.190401491E1
6.365729542E0,-7.880094899E0,8.707796926E0,7.038603383E-1,1.176507723E1
6.375696542E0,-7.757246068E0,9.064041463E0,7.041462672E-1,1.195104749E1
6.385663542E0,-7.520871205E0,9.393251984E0,6.391585582E-1,1.205011245E1
6.395630542E0,-7.042612234E0,9.923248873E0,5.775926399E-1,1.218207160E1
6.405597542E0,-6.107920779E0,1.076896793E1,3.481356186E-1,1.238541743E1
6.415563542E0,-5.322880622E0,1.108332009E1,3.467176688E-1,1.230013233E1
6.425530542E0,-5.168284333E0,1.128988233E1,1.228821423E-1,1.241723424E1
6.435497542E0,-5.440140685E0,1.106991476E1,1.044710143E-1,1.233487161E1
6.445464542E0,-5.869051495E0,1.044212143E1,2.260714652E-1,1.198059989E1
6.455431542E0,-6.262226461E0,9.776830500E0,2.914877751E-1,1.161408025E1
6.465398542E0,-6.425602344E0,9.275476196E0,3.436250764E-1,1.128897260E1
6.475365542E0,-6.368440549E0,8.882646216E0,3.141083318E-1,1.093421707E1
6.485332542E0,-6.269201020E0,8.648633628E0,2.594444668E-1,1.068499212E1
6.495299542E0,-6.094691454E0,8.484636771E0,1.802369142E-1,1.044829222E1
6.505266542E0,-5.819194626E0,8.276663005E0,1.443221279E-1,1.011864642E1
6.515233542E0,-5.518909696E0,8.047581375E0,7.040804129E-2,9.758426487E0
6.525200542E0,-5.302367420E0,7.767965768E0,3.533819597E-2,9.405192248E0
6.535166542E0,-5.098881392E0,7.424640654E0,3.400446435E-2,9.006943798E0
6.545133542E0,-4.781880150E0,6.847738570E0,5.418084841E-2,8.352295305E0
6.555100542E0,-3.603885467E0,5.490909135E0,5.958018562E-2,6.568228329E0
6.565067542E0,1.692967737E-1,8.040494549E-1,2.721580313E-1,8.655789493E-1
6.575034542E0,4.214671873E0,-7.767710245E0,6.242177528E-1,8.859482448E0
6.585001542E0,4.243428479E0,-1.626463377E1,2.508110529E0,1.699516447E1
6.594968542E0,3.826277590E-1,-2.311680804E1,6.054216442E0,2.389951369E1
6.604935542E0,-5.140643960E-1,-2.635420318E1,8.862098515E0,2.780908265E1
6.614902542E0,4.983376663E0,-2.649300673E1,8.480237326E0,2.826000484E1
6.624869542E0,1.077258267E1,-2.521413179E1,5.592675830E0,2.798354878E1
6.634836542E0,1.517323343E1,-2.094490422E1,2.139861658E0,2.595178286E1
6.644802542E0,1.520506684E1,-1.431550653E1,-2.291235546E0,2.100898725E1
6.654769542E0,1.411286777E1,-8.343768575E0,-4.849129854E0,1.709694625E1
6.664736542E0,1.285371314E1,-5.601361869E0,-6.801198826E0,1.558362929E1
6.674703542E0,1.369810605E1,-4.972544112E0,-8.867461581E0,1.705861012E1
6.684670542E0,1.467748193E1,-4.369023163E0,-8.895306022E0,1.770997765E1
6.694637542E0,1.353856594E1,-2.842129800E0,-6.836833513E0,1.543090282E1
6.704604542E0,1.075948023E1,-8.232055181E-1,-4.627805725E0,1.174140826E1
6.714571542E0,8.144772624E0,6.061317301E-1,-3.028793389E0,8.710815470E0
6.724538542E0,5.116808370E0,1.505620024E0,-2.728116696E0,5.990929833E0
6.734505542E0,2.881711941E0,2.142000570E0,-2.587377723E0,4.425715043E0
6.744472542E0,1.233968325E0,2.341205851E0,-1.978083819E0,3.304048768E0
6.754438542E0,-1.984726256E-1,2.737821904E0,-1.145846107E0,2.974562735E0
6.764405542E0,-1.709504832E0,3.178538243E0,-4.852089715E-1,3.641557342E0
6.774372542E0,-2.759929642E0,3.726097244E0,5.881951768E-2,4.637291455E0
6.784339542E0,-3.186579918E0,4.308591605E0,5.042264557E-1,5.382610659E0
6.794306542E0,-3.441221482E0,4.770803477E0,7.977285417E-1,5.936239713E0
6.804273542E0,-3.599503271E0,5.248160807E0,9.392242169E-1,6.432865442E0
6.814240542E0,-3.762543524E0,5.476385821E0,9.415759671E-1,6.710745169E0
6.824207542E0,-3.834111689E0,5.798268026E0,7.649654230E-1,6.993246502E0
6.834174542E0,-4.079913433E0,5.997253452E0,4.196944650E-1,7.265596055E0
6.844141542E0,-4.330530358E0,5.925142080E0,6.908138115E-2,7.339317004E0
6.854108542E0,-4.417418228E0,5.819542535E0,-1.634541992E-1,7.308035057E0
6.864075542E0,-4.445428146E0,5.516018833E0,-2.187478093E-1,7.087746170E0
6.874041542E0,-4.288336265E0,4.815225944E0,-9.661471367E-2,6.448686937E0
6.884008542E0,-3.787072594E0,3.985655732E0,7.282820385E-2,5.498424719E0
6.893975542E0,-2.998315362E0,2.980369672E0,2.501134801E-1,4.234979946E0
6.903942542E0,-2.022277660E0,1.668968425E0,5.049281216E-1,2.670208783E0
6.913909542E0,-9.543626583E-1,1.477234715E-1,8.505137694E-1,1.286858182E0
6.923876542E0,-1.031174022E-1,-1.712004517E0,1.245794903E0,2.119810747E0
6.933843542E0,6.492461747E-1,-3.618003861E0,1.661030245E0,4.033670042E0
6.943810542E0,1.184140692E0,-4.933172470E0,1.812621650E0,5.387390559E0
6.953777542E0,1.431308345E0,-4.986927093E0,1.824770994E0,5.499806777E0
6.963744542E0,2.027044895E0,-3.129206454E0,1.358531560E0,3.968179940E0
6.973711542E0,2.146100053E0,-6.396187341E-1,7.605999649E-1,2.365030627E0
6.983677542E0,1.837704450E0,1.352893090E0,3.292450190E-1,2.305619145E0
6.993644542E0,1.612008943E0,2.678400160E0,1.006136245E-1,3.127702568E0
7.003611542E0,1.298794066E0,3.485541038E0,4.090129633E-3,3.719661151E0
7.013578542E0,9.601157337E-1,3.702277442E0,1.489619118E-1,3.827645507E0
7.023545542E0,2.513601065E-1,3.404246029E0,5.075921130E-1,3.451046607E0
7.033512542E0,-5.999290037E-1,3.117134877E0,8.698142588E-1,3.291355571E0
7.043479542E0,-1.350863521E0,3.137975523E0,9.987278223E-1,3.559379145E0
7.053446542E0,-1.990593352E0,3.126385757E0,9.419700694E-1,3.824141395E0
7.063413542E0,-2.508037439E0,3.046105825E0,7.986980832E-1,4.025783293E0
7.073380542E0,-2.625585769E0,2.920343910E0,6.669018424E-1,3.983323644E0
7.083347542E0,-2.852607133E0,2.824586399E0,4.873361886E-1,4.043903107E0
7.093314542E0,-3.240489492E0,2.861732005E0,3.053568041E-1,4.333996424E0
7.103280542E0,-3.252987039E0,3.104423030E0,1.835242188E-1,4.500338672E0
7.113247542E0,-3.028709189E0,3.263568453E0,1.193662389E-1,4.454010181E0
7.123214542E0,-3.173255576E0,3.249166176E0,-3.321687181E-2,4.541776651E0
7.133181542E0,-3.324333302E0,2.917741899E0,-1.624321425E-1,4.426148879E0
7.143148542E0,-3.108240385E0,2.182456285E0,-2.348487389E-1,3.805184313E0
7.153115542E0,-2.696051150E0,1.287269204E0,-4.183542466E-1,3.016748926E0
7.163082542E0,-1.834227404E0,2.316783786E-2,-5.963855910E-1,1.928886386E0
7.173049542E0,-5.195578551E-1,-1.710306485E0,-8.156456530E-1,1.964781532E0
7.183016542E0,1.565106672E0,-4.142254692E0,-1.139512403E0,4.572343091E0
7.192983542E0,4.150154865E0,-7.705211111E0,-1.245199656E0,8.839942638E0
7.202950542E0,6.849571087E0,-1.220082357E1,-7.925187457E-1,1.401444989E1
7.212916542E0,9.859042937E0,-1.572748515E1,-6.590361679E-1,1.857387535E1
7.222883542E0,1.197542393E1,-1.722977285E1,-1.804057817E0,2.106016323E1
7.232850542E0,1.263252350E1,-1.732683897E1,-3.022552071E0,2.165492599E1
7.242817542E0,1.297863657E1,-1.696244282E1,-1.927927573E0,2.144496161E1
7.252784542E0,1.209161629E1,-1.509975264E1,3.080313206E-3,1.934450112E1
7.262751542E0,1.028585577E1,-1.235957197E1,5.245502079E-1,1.608828769E1
7.272718542E0,9.501288064E0,-1.066334733E1,7.002882743E-1,1.429936554E1
7.282685542E0,9.082137426E0,-9.832065053E0,7.606578523E-1,1.340646575E1
7.292652542E0,8.566572050E0,-9.228828864E0,7.201419103E-1,1.261253516E1
7.302619542E0,7.898560406E0,-8.261200043E0,6.791447425E-1,1.144971267E1
7.312586542E0,6.878146430E0,-6.522922817E0,5.978035408E-1,9.498146633E0
7.322552542E0,5.006432819E0,-4.100523114E0,2.994335747E-1,6.478296060E0
7.332519542E0,2.864305950E0,-1.672513007E0,2.261398594E-1,3.324558252E0
7.342486542E0,9.010249418E-1,4.353450859E-1,2.911416382E-1,1.042177885E0
7.352453542E0,-7.407714719E-1,2.138512706E0,2.877970125E-1,2.281404411E0
7.362420917E0,-2.035419862E0,3.424624161E0,3.373270404E-1,3.998096320E0
7.372387917E0,-3.107075912E0,4.338472046E0,3.748492080E-1,5.349464678E0
7.382354917E0,-3.997606856E0,4.958383325E0,4.132648301E-1,6.382571080E0
7.392321917E0,-4.600731947E0,5.522177705E0,4.159516257E-1,7.199596990E0
7.402288917E0,-5.026041457E0,6.054677787E0,3.747018582E-1,7.877856137E0
7.412255917E0,-5.504350714E0,6.548474565E0,2.805149084E-1,8.559152091E0
7.422222917E0,-6.154937071E0,6.828852063E0,2.393019783E-1,9.196398006E0
7.432189917E0,-6.847811660E0,6.901452847E0,3.130692816E-1,9.727311464E0
7.442155917E0,-7.466364630E0,6.977026940E0,3.673051304E-1,1.022547890E1
7.452122917E0,-7.791556944E0,7.148999984E0,3.391841161E-1,1.057977345E1
7.462089917E0,-7.821185371E0,7.410468172E0,2.858633018E-1,1.077811194E1
7.472056917E0,-7.733690559E0,7.722338190E0,3.600060145E-1,1.093499342E1
7.482023917E0,-7.359070562E0,8.140011821E0,2.131765823E-1,1.097547977E1
7.491990917E0,-6.292706827E0,8.620186340E0,-4.282968521E-2,1.067275064E1
7.501957917E0,-5.506830518E0,9.087180650E0,-2.354895937E-1,1.062814612E1
7.511924917E0,-5.206856661E0,9.644095196E0,-4.505413415E-1,1.096918028E1
7.521891917E0,-4.946969560E0,1.027704518E1,-5.778563493E-1,1.142033640E1
7.531858917E0,-4.574429125E0,1.118662401E1,-8.856128508E-1,1.211817927E1
7.541825917E0,-4.125362378E0,1.183694900E1,-1.155524418E0,1.258837611E1
7.551791917E0,-4.065290423E0,1.191295462E1,-1.054271109E0,1.263157003E1
7.561758917E0,-4.357319961E0,1.158523104E1,-9.949792454E-1,1.241747959E1
7.571725917E0,-4.870638837E0,1.097665518E1,-8.186640588E-1,1.203662297E1
7.581692917E0,-5.311204317E0,1.032084200E1,-5.976789951E-1,1.162264561E1
7.591659917E0,-5.677292057E0,9.757382076E0,-4.636970651E-1,1.129837002E1
7.601626917E0,-5.935230281E0,9.304599423E0,-3.889163663E-1,1.104326876E1
7.611593917E0,-6.056257120E0,8.873186590E0,-2.987927929E-1,1.074713765E1
7.621560917E0,-6.021504779E0,8.469907050E0,-2.348914236E-1,1.039485542E1
7.631527917E0,-5.716439166E0,8.121898901E0,-1.955554497E-1,9.933839159E0
7.641494917E0,-5.189999138E0,7.718143398E0,-1.964179140E-1,9.302924731E0
7.651461917E0,-4.622647312E0,7.070965383E0,-2.165563826E-1,8.450699159E0
7.661428917E0,-4.068940255E0,5.868236977E0,-2.078983372E-1,7.143927613E0
7.671394917E0,-2.629854529E0,3.035573820E0,-3.972766422E-2,4.016518586E0
7.681361917E0,-8.362377924E-1,-2.072640313E0,3.020771009E-1,2.255300886E0
7.691328917E0,-6.815228051E-1,-8.280283016E0,7.420725504E-1,8.341356714E0
7.701295917E0,-2.814673906E0,-1.411550837E1,2.288762174E0,1.457423747E1
7.711262917E0,-3.018139177E0,-1.716769179E1,3.499569093E0,1.777880168E1
7.721229917E0,7.663489473E-1,-1.792590258E1,3.481809930E0,1.827698756E1
7.731196917E0,5.495714377E0,-1.946967978E1,3.405507274E0,2.051508682E1
7.741163917E0,9.101370088E0,-2.087607548E1,3.037760679E0,2.297549683E1
7.751130917E0,1.130769412E1,-2.031682906E1,2.104248607E0,2.334663470E1
7.761097917E0,1.272645317E1,-1.714088347E1,8.941638190E-1,2.136754608E1
7.771064917E0,1.261124197E1,-1.229802651E1,-6.094184500E-1,1.762544386E1
7.781030917E0,1.220975578E1,-8.420874639E0,-2.771480817E0,1.508874984E1
7.790997917E0,1.188063238E1,-6.540432304E0,-4.217764465E0,1.420268346E1
7.800964917E0,1.162132006E1,-5.548069176E0,-4.413725712E0,1.361312331E1
7.810931917E0,1.077579747E1,-4.272658126E0,-3.820653153E0,1.220535985E1
7.820898917E0,9.794451669E0,-3.363597355E0,-3.158691623E0,1.082692955E1
7.830865917E0,8.771859605E0,-2.561069346E0,-2.815968772E0,9.562127235E0
7.840832917E0,7.667522298E0,-1.798552664E0,-2.731198179E0,8.335774311E0
7.850799917E0,6.401629930E0,-1.140149165E0,-2.493999444E0,6.964254382E0
7.860766917E0,5.025174315E0,-5.538558680E-1,-1.834998944E0,5.378322633E0
7.870733917E0,3.408218043E0,1.647295135E-1,-1.171553975E0,3.607717389E0
7.880700917E0,1.880688795E0,1.021759420E0,-8.079904783E-1,2.287756820E0
7.890666917E0,5.926328480E-1,1.934440786E0,-6.980207241E-1,2.140212087E0
7.900633917E0,-4.615558147E-1,2.823582432E0,-4.035800868E-1,2.889382011E0
7.910600917E0,-1.450426986E0,3.468611594E0,-1.123694698E-1,3.761333770E0
7.920567917E0,-2.067136914E0,4.194420626E0,4.926571548E-2,4.676392468E0
7.930534917E0,-2.472538408E0,4.749259996E0,2.218451160E-1,5.358930112E0
7.940501917E0,-2.925765449E0,5.067614576E0,4.162141657E-1,5.866349391E0
7.950468917E0,-3.390418534E0,5.448538456E0,4.679070604E-1,6.434317847E0
7.960435917E0,-3.681680624E0,5.752902403E0,4.943072391E-1,6.847992255E0
7.970402917E0,-3.817482793E0,5.860824462E0,4.478031635E-1,7.008777777E0
7.980369917E0,-3.870719937E0,5.923381484E0,3.805940974E-1,7.086167716E0
7.990336917E0,-3.959660765E0,5.961269687E0,2.915831212E-1,7.162448629E0
8.000303917E0,-4.083700674E0,5.844293214E0,2.082942120E-1,7.132724644E0
8.010269917E0,-4.021164703E0,5.676262363E0,1.480292809E-1,6.957846840E0
8.020236917E0,-3.673188713E0,5.478563324E0,1.794662511E-1,6.598422505E0
8.030203917E0,-3.362188177E0,5.010926989E0,2.301569331E-1,6.038764016E0
8.040170917E0,-3.028273571E0,4.494168781E0,4.484744239E-1,5.437749825E0
8.050137917E0,-2.791219847E0,3.925748668E0,7.936320555E-1,4.881829850E0
8.060104917E0,-2.563970150E0,3.299848087E0,1.137976924E0,4.331042808E0
8.070071917E0,-2.600342755E0,2.638626230E0,1.378617330E0,3.952811223E0
8.080038917E0,-2.718341321E0,1.899223591E0,1.465510463E0,3.625486271E0
8.090005917E0,-2.800089489E0,1.231770941E0,1.440135301E0,3.381087175E0
8.099972917E0,-2.825982714E0,1.025792829E0,1.185441113E0,3.231671372E0
8.109939917E0,-3.098789822E0,9.152418619E-1,8.752550930E-1,3.347571882E0
8.119905917E0,-3.555449764E0,7.236098939E-1,6.541748659E-1,3.686838626E0
8.129872917E0,-3.935880724E0,6.883576155E-1,3.646299561E-1,4.012224854E0
8.139839917E0,-4.090807380E0,6.248241091E-1,1.204806360E-1,4.140003113E0
8.149806917E0,-3.993865807E0,4.790360659E-1,-5.193204582E-2,4.022826938E0
8.159773917E0,-3.401179165E0,3.280404925E-1,-1.631923536E-1,3.420856913E0
8.169740917E0,-2.261450999E0,-2.467068923E-1,-9.960563757E-2,2.277047693E0
8.179707917E0,-8.059410292E-1,-1.612630502E0,2.983698200E-1,1.827332107E0
8.189674917E0,1.096895556E0,-3.818242931E0,1.126989933E0,4.129438854E0
8.199641917E0,3.843575993E0,-6.850147038E0,2.179708094E0,8.151608322E0
8.209608917E0,6.798214408E0,-1.070215881E1,3.258431089E0,1.309080958E1
8.219575917E0,8.714139401E0,-1.501696191E1,3.918040284E0,1.779877553E1
8.229541917E0,1.041088561E1,-1.811447529E1,4.076660042E0,2.128708320E1
8.239508917E0,1.299703892E1,-1.823662011E1,3.136894373E0,2.261277162E1
8.249475917E0,1.445430072E1,-1.549437070E1,8.382550818E-1,2.120624918E1
8.259442917E0,1.373941897E1,-1.255567822E1,-1.349449080E0,1.866112810E1
8.269409917E0,1.267356745E1,-1.049158654E1,-2.725255653E0,1.667692173E1
8.279376917E0,1.231500332E1,-9.399959325E0,-4.144908743E0,1.603741907E1
8.289343917E0,1.125745602E1,-8.770910602E0,-4.350141335E0,1.491921306E1
8.299310917E0,9.696859301E0,-8.069295595E0,-3.305984155E0,1.304117107E1
8.309277917E0,8.244831932E0,-6.393451429E0,-2.550626804E0,1.074053871E1
8.319244917E0,6.040466130E0,-4.126817458E0,-2.309138551E0,7.671373687E0
8.329211917E0,3.361491773E0,-2.160522210E0,-2.060229013E0,4.495778770E0
8.339177917E0,1.348114745E0,-4.741472089E-1,-1.423007637E0,2.016724988E0
8.349144917E0,-5.808659112E-1,7.773241711E-1,-7.121183610E-1,1.203640575E0
8.359111417E0,-2.307176811E0,1.675697401E0,-1.873389240E-1,2.857642820E0
8.369078417E0,-3.455748305E0,2.800923302E0,1.501261107E-1,4.450832005E0
8.379045417E0,-4.491921696E0,4.038249682E0,4.372266833E-1,6.056070359E0
8.389012417E0,-5.410615754E0,5.078821349E0,7.071108055E-1,7.454474819E0
8.398979417E0,-6.112144808E0,5.902057273E0,8.705931079E-1,8.541108041E0
8.408946417E0,-6.780026643E0,6.384346730E0,9.389985144E-1,9.360040740E0
8.418913417E0,-6.925436956E0,6.630164845E0,9.727205765E-1,9.636749879E0
8.428880417E0,-7.200385900E0,6.589377592E0,1.103790593E0,9.822617158E0
8.438847417E0,-7.277293158E0,6.817028993E0,9.650759268E-1,1.001809620E1
8.448813417E0,-7.284375890E0,7.136807370E0,7.768458688E-1,1.022739659E1
8.458780417E0,-7.252983944E0,7.458408909E0,6.465207875E-1,1.042360920E1
8.468747417E0,-7.361985399E0,7.739982163E0,7.295781469E-1,1.070693407E1
8.478714417E0,-7.271283975E0,8.244507996E0,6.515821373E-1,1.101217699E1
8.488681417E0,-6.766010283E0,8.712954170E0,5.342191637E-1,1.104444909E1
8.498648417E0,-6.394296936E0,9.135257626E0,5.112980783E-1,1.116249931E1
8.508615417E0,-6.064851943E0,9.579489895E0,4.810200262E-1,1.134814681E1
8.518582417E0,-5.581865498E0,1.023591704E1,2.612956953E-1,1.166188216E1
8.528549417E0,-5.226801513E0,1.086032716E1,1.792943430E-1,1.205397472E1
8.538516417E0,-4.892137003E0,1.148700133E1,-4.391373158E-2,1.248543681E1
8.548483417E0,-4.821293307E0,1.151756706E1,-1.759191474E-2,1.248597332E1
8.558449417E0,-5.110232592E0,1.124698833E1,5.355347872E-2,1.235362666E1
8.568416417E0,-5.531503429E0,1.063819729E1,3.202461906E-1,1.199463752E1
8.578383417E0,-6.079758250E0,9.837049220E0,7.421461523E-1,1.158800149E1
8.588350417E0,-6.613520746E0,9.117502556E0,1.207145977E0,1.132804974E1
8.598317417E0,-6.942468141E0,8.652484020E0,1.574334748E0,1.120454700E1
8.608284417E0,-7.037114682E0,8.285242040E0,1.788169763E0,1.101652258E1
8.618251417E0,-6.989394386E0,7.932487705E0,1.969289607E0,1.075425946E1
8.628218417E0,-6.859815409E0,7.623361786E0,2.055224966E0,1.045928592E1
8.638185417E0,-6.635778172E0,7.291758585E0,2.036822609E0,1.006737014E1
8.648152417E0,-6.328991139E0,6.895397471E0,1.951725740E0,9.560955417E0
8.658119417E0,-5.878076087E0,6.260825468E0,1.885113090E0,8.792233243E0
8.668086417E0,-5.252669595E0,4.790803294E0,1.878750150E0,7.353369038E0
8.678052417E0,-3.797691430E0,1.438523809E0,2.097151841E0,4.570542286E0
8.688019417E0,-4.736461025E-1,-4.955442760E0,2.196648062E0,5.441141083E0
8.697986417E0,2.990673051E0,-1.286323592E1,2.571019553E0,1.345425974E1
8.707953417E0,3.084884559E0,-2.001529049E1,3.889945582E0,2.062183413E1
8.717920417E0,2.788224903E0,-2.458713017E1,5.662862298E0,2.538442786E1
8.727887417E0,5.561854572E0,-2.789588708E1,6.455006822E0,2.916816510E1
8.737854417E0,1.015002728E1,-3.006327451E1,4.883502127E0,3.210408262E1
8.747821417E0,1.588533191E1,-2.534887736E1,2.666392318E0,3.003363117E1
8.757788417E0,1.647383311E1,-1.421525251E1,-1.065597238E0,2.178522616E1
8.767755417E0,1.517148043E1,-5.556058227E0,-3.974125022E0,1.663842755E1
8.777722417E0,1.406292553E1,-2.910037608E0,-6.587772532E0,1.579977659E1
8.787688417E0,1.498470633E1,-2.227112641E0,-9.604333545E0,1.793724275E1
8.797655417E0,1.749392900E1,-1.348620529E0,-1.122386844E1,2.082862338E1
8.807622417E0,1.628313436E1,-1.278504812E0,-8.359546702E0,1.834821681E1
8.817589417E0,1.288612426E1,-1.710179601E0,-4.761636797E0,1.384377469E1
8.827556417E0,8.714730554E0,-1.574723003E0,-3.402455027E0,9.486990112E0
8.837523417E0,5.884567081E0,-1.273452233E0,-2.938588393E0,6.699635219E0
8.847490417E0,4.452256524E0,-9.637591338E-1,-3.113167541E0,5.517538578E0
8.857457417E0,2.728051792E0,-5.532138437E-1,-3.149652997E0,4.203406492E0
8.867424417E0,9.557309067E-1,-1.237264985E-1,-2.512060908E0,2.690572396E0
8.877391417E0,-6.884464931E-1,3.116565943E-1,-1.449334141E0,1.634520682E0
8.887357417E0,-1.790122733E0,8.662831253E-1,-3.746509508E-1,2.023696911E0
8.897324417E0,-2.337934334E0,1.482774952E0,3.237637659E-1,2.787361025E0
8.907291417E0,-2.934220523E0,2.252433423E0,6.239305814E-1,3.751319204E0
8.917258417E0,-3.471918780E0,3.051813292E0,8.716502845E-1,4.703993899E0
8.927225417E0,-4.028404725E0,3.714642549E0,1.045480989E0,5.578498399E0
8.937192417E0,-4.215157776E0,4.502260158E0,1.062881060E0,6.258403771E0
8.947159417E0,-4.092470328E0,5.086818001E0,9.547964486E-1,6.598156335E0
8.957126417E0,-4.158544450E0,5.380629478E0,8.009317195E-1,6.847346723E0
8.967093417E0,-4.372469512E0,5.564070082E0,7.828380954E-1,7.119705120E0
8.977060417E0,-4.649246296E0,5.601877593E0,7.027441780E-1,7.313711306E0
8.987027417E0,-4.895215269E0,5.584077500E0,6.011452977E-1,7.450263735E0
8.996994417E0,-4.895094817E0,5.488653864E0,6.014867751E-1,7.378960688E0
9.006960417E0,-4.670495077E0,5.350533274E0,6.696781003E-1,7.133736703E0
9.016927417E0,-4.353691764E0,5.179291132E0,7.067167763E-1,6.802877127E0
9.026894417E0,-3.934013123E0,4.990741816E0,7.964246857E-1,6.404549587E0
9.036861417E0,-3.589603935E0,4.720765929E0,9.290336895E-1,6.002831912E0
9.046828417E0,-3.229280965E0,4.363156067E0,1.078599692E0,5.534325949E0
9.056795417E0,-3.031676066E0,3.777514150E0,1.177172053E0,4.984617033E0
9.066762417E0,-2.999561403E0,3.004376001E0,1.268766274E0,4.430960576E0
9.076729417E0,-3.048386824E0,2.324857036E0,1.359116281E0,4.067532364E0
9.086696417E0,-3.350041171E0,1.658304273E0,1.588170429E0,4.061407911E0
9.096663417E0,-3.420176184E0,1.221061181E0,1.787852844E0,4.047840576E0
9.106630417E0,-3.779948931E0,1.036846991E0,1.808001180E0,4.316472387E0
9.116596417E0,-3.932735506E0,1.219130430E0,1.370385035E0,4.339428846E0
9.126563417E0,-3.753077466E0,1.677280242E0,6.062521827E-1,4.155285933E0
9.136530417E0,-3.738418497E0,2.010782034E0,1.455278420E-1,4.247375142E0
9.146497417E0,-3.623169292E0,2.097610847E0,-8.141956349E-2,4.187356699E0
9.156464417E0,-3.313530571E0,1.943437897E0,-3.994293312E-2,3.841618298E0
9.166431417E0,-2.802374581E0,1.587036654E0,1.805397999E-1,3.225613624E0
9.176398417E0,-2.001453971E0,8.940451205E-1,4.642063211E-1,2.240674493E0
9.186365417E0,-8.097592610E-1,-4.644121796E-1,8.571386647E-1,1.267310311E0
9.196332417E0,7.786164057E-1,-2.488513001E0,1.404955528E0,2.961898125E0
9.206299417E0,3.101782720E0,-5.345709321E0,2.013674067E0,6.500195954E0
9.216266417E0,5.771089582E0,-9.052730609E0,2.601846659E0,1.104658375E1
9.226232417E0,8.153694305E0,-1.297529430E1,3.013464913E0,1.561800127E1
9.236199417E0,1.069305002E1,-1.624909655E1,2.936837152E0,1.967230210E1
9.246166417E0,1.415975308E1,-1.753485249E1,1.622221690E0,2.259648783E1
9.256133417E0,1.707723302E1,-1.612327616E1,-1.276525530E0,2.352065984E1
9.266100417E0,1.685017278E1,-1.218179205E1,-4.748957695E0,2.132784516E1
9.276067417E0,1.407443051E1,-9.257095474E0,-5.939791110E0,1.786237748E1
9.286034417E0,1.167469110E1,-9.618683782E0,-3.805249833E0,1.559799399E1
9.296001417E0,1.045048295E1,-1.019481462E1,-1.950827608E0,1.472930981E1
9.305968417E0,9.324505684E0,-1.044555258E1,-1.281383396E0,1.406050918E1
9.315935417E0,8.325076196E0,-1.042083523E1,-8.902596331E-1,1.336761994E1
9.325902417E0,7.222909375E0,-9.842863691E0,-1.124764556E0,1.226040296E1
9.335868417E0,5.593565192E0,-8.789749162E0,-1.464483107E0,1.052104428E1
9.345835417E0,3.526891378E0,-7.223875920E0,-1.462693859E0,8.170851817E0
9.355802417E0,1.344770138E0,-5.548022398E0,-7.826767123E-1,5.762077932E0
9.365769792E0,-6.154212016E-1,-3.948506616E0,-6.184011620E-2,3.996657598E0
9.375736792E0,-2.499951909E0,-2.197914569E0,4.236787577E-1,3.355606010E0
9.385703792E0,-4.149829760E0,-3.829154420E-1,5.848876262E-1,4.208301891E0
9.395670792E0,-5.622041717E0,1.513406761E0,7.303651822E-1,5.867809334E0
9.405637792E0,-6.488285666E0,3.073109436E0,8.850345612E-1,7.233611730E0
9.415604792E0,-6.952035356E0,4.258608436E0,8.003259480E-1,8.191890076E0
9.425571792E0,-7.143470272E0,5.217640681E0,5.992904512E-1,8.866345969E0
9.435537792E0,-7.020699794E0,6.067054589E0,3.657152359E-1,9.286179226E0
9.445504792E0,-6.695546656E0,6.813321859E0,1.397823679E-1,9.553598217E0
9.455471792E0,-6.452116544E0,7.476227714E0,2.887121201E-2,9.875455547E0
9.465438792E0,-6.580829548E0,7.768280348E0,1.097369985E-1,1.018162754E1
9.475405792E0,-6.821444811E0,7.878432536E0,2.586492638E-1,1.042442842E1
9.485372792E0,-6.607992788E0,8.179951812E0,2.326454898E-1,1.051814167E1
9.495339792E0,-6.567787918E0,8.460264992E0,2.028387233E-1,1.071228572E1
9.505306792E0,-6.039539931E0,8.829359955E0,8.602774501E-2,1.069771193E1
9.515273792E0,-5.453057184E0,8.799986467E0,2.844307888E-1,1.035647118E1
9.525240792E0,-5.310192749E0,9.052682662E0,3.520140767E-1,1.050110110E1
9.535207792E0,-5.112206612E0,9.223629520E0,2.759546649E-1,1.054922504E1
9.545174792E0,-5.105745438E0,9.396175007E0,2.127871943E-1,1.069588798E1
9.555140792E0,-5.082263605E0,9.533797998E0,1.916495097E-1,1.080552808E1
9.565107792E0,-5.020160328E0,9.778204595E0,2.521471417E-1,1.099449285E1
9.575074792E0,-4.887378831E0,1.004067967E1,2.896488440E-1,1.117074826E1
9.585041792E0,-4.730230817E0,1.020072264E1,2.780666792E-1,1.124753960E1
9.595008792E0,-4.570189894E0,1.039850588E1,2.946534759E-1,1.136232287E1
9.604975792E0,-4.364759374E0,1.051936783E1,3.798327899E-1,1.139528398E1
9.614942792E0,-4.065256217E0,1.065366668E1,2.407298684E-1,1.140547556E1
9.624909792E0,-3.742045232E0,1.063476146E1,1.643207932E-1,1.127510777E1
9.634876792E0,-3.580991863E0,1.042536098E1,1.301940946E-1,1.102400130E1
9.644843792E0,-3.492123541E0,1.002580319E1,4.618130922E-2,1.061667505E1
9.654810792E0,-3.512062839E0,9.515717822E0,-1.269430518E-3,1.014314905E1
9.664776792E0,-3.622151584E0,9.112181590E0,-1.972792089E-2,9.805724074E0
9.674743792E0,-3.638588107E0,8.851090547E0,-4.225552518E-2,9.569896175E0
9.684710792E0,-3.627688020E0,8.640441679E0,-4.531241298E-2,9.371200883E0
9.694677792E0,-3.695676228E0,8.483748579E0,-1.348599991E-2,9.253766509E0
9.704644792E0,-3.750345647E0,8.356042466E0,4.428505719E-2,9.159175690E0
9.714611792E0,-3.786416536E0,8.103999404E0,-6.176123360E-2,8.945142312E0
9.724578792E0,-2.530670841E0,5.370686873E0,2.794950809E-3,5.937051474E0
9.734545792E0,4.460058756E0,-7.220572827E0,3.082857329E0,9.029551782E0
9.744512792E0,6.845085688E0,-2.064315515E1,5.708900936E0,2.248525300E1
9.754479792E0,3.120682967E0,-3.053477994E1,8.540081239E0,3.185976202E1
9.764446792E0,1.373834893E0,-3.287915089E1,8.209883709E0,3.391648826E1
9.774412792E0,6.521471538E0,-2.920356307E1,3.651536474E0,3.014484044E1
9.784379792E0,1.087454876E1,-2.257631949E1,-1.364515600E0,2.509597408E1
9.794346792E0,1.212766204E1,-1.556480743E1,-3.395379896E0,2.002178866E1
9.804313792E0,1.174933315E1,-1.024173268E1,-3.040587807E0,1.588033664E1
9.814280792E0,1.119935223E1,-6.321759887E0,-2.321456881E0,1.306825545E1
9.824247792E0,1.140627116E1,-3.409298024E0,-1.714705930E0,1.202774090E1
9.834214792E0,1.173939288E1,-2.061610710E0,-1.168553769E0,1.197618896E1
9.844181792E0,1.117290411E1,-1.782229577E0,-1.735434895E0,1.144647818E1
9.854148792E0,9.348013830E0,-2.460079161E0,-3.377024317E0,1.023922093E1
9.864115792E0,6.196114333E0,-3.594965247E0,-3.925309542E0,8.168455359E0
9.874081792E0,3.827609293E0,-4.358889939E0,-2.770351135E0,6.428480365E0
9.884048792E0,2.858095914E0,-3.718918033E0,-1.547952111E0,4.939151681E0
9.894015792E0,2.344544319E0,-2.510948768E0,-1.387516208E0,3.704990284E0
9.903982792E0,9.976832172E-1,-1.682034613E0,-1.620173410E0,2.539601173E0
9.913949792E0,-1.580101272E0,-9.910527670E-1,-1.340195861E0,2.296743469E0
9.923916792E0,-2.782364531E0,3.489343482E-1,-6.407004690E-1,2.876422197E0
9.933883792E0,-2.712893762E0,1.454460980E0,8.458706416E-2,3.079351276E0
9.943850792E0,-2.859793069E0,2.377350415E0,4.979687655E-1,3.752090655E0
9.953817792E0,-2.466272532E0,3.410204342E0,5.081405818E-1,4.239127352E0
9.963784792E0,-2.048639539E0,4.184771551E0,-3.319975957E-3,4.659318396E0
9.973751792E0,-1.977243574E0,4.918564371E0,-5.574852713E-1,5.330343089E0
9.983717792E0,-2.166974320E0,5.331788855E0,-7.147601330E-1,5.799537236E0
9.993684792E0,-2.651428124E0,5.697081959E0,-4.702669966E-1,6.301425631E0
1.000365179E1,-3.114377915E0,5.995061916E0,-2.186227155E-1,6.759283472E0
1.001361879E1,-3.298839442E0,5.968875160E0,1.301333292E-1,6.821051754E0
1.002358579E1,-3.308592305E0,5.693808103E0,4.377705109E-1,6.599839148E0
1.003355279E1,-3.215881485E0,5.286912645E0,5.367053998E-1,6.211392092E0
1.004351979E1,-3.084393100E0,4.841036139E0,4.919882333E-1,5.761177320E0
1.005348679E1,-2.932862507E0,4.413332779E0,5.193789303E-1,5.324372561E0
1.006345379E1,-2.883475462E0,3.898442171E0,5.314814607E-1,4.877986741E0
1.007342079E1,-2.578955979E0,3.534552400E0,5.743942130E-1,4.412935907E0
1.008338779E1,-1.978567676E0,3.214920788E0,7.334338009E-1,3.845565090E0
1.009335379E1,-1.540327926E0,2.915076154E0,8.305162919E-1,3.400005355E0
1.010332079E1,-1.195855296E0,2.732806748E0,8.935223794E-1,3.113950040E0
1.011328779E1,-9.819866592E-1,2.417747074E0,1.137444828E0,2.846678669E0
1.012325479E1,-1.009356599E0,2.098633525E0,1.360709648E0,2.697145558E0
1.013322179E1,-1.113434406E0,1.903585614E0,1.411413193E0,2.618293637E0
1.014318879E1,-1.256078986E0,1.919302345E0,1.234161283E0,2.604728389E0
1.015315579E1,-1.532181878E0,2.012020474E0,9.443194807E-1,2.699545698E0
1.016312279E1,-1.743757237E0,2.169832147E0,5.822131097E-1,2.843911558E0
1.017308979E1,-1.908159891E0,2.317508256E0,2.368109914E-1,3.011311696E0
1.018305679E1,-1.779221769E0,2.376312534E0,-1.411044234E-1,2.971935703E0
1.019302379E1,-1.385262106E0,2.249132670E0,-4.731468234E-1,2.683545563E0
1.020298979E1,-1.015938224E0,1.847930646E0,-7.333246042E-1,2.232653830E0
1.021295679E1,-6.638285458E-1,1.005735126E0,-7.320794396E-1,1.410004180E0
1.022292379E1,-1.386047387E-1,-2.448761290E-1,-3.228491883E-1,4.282606572E-1
1.023289079E1,7.449089617E-1,-1.848650438E0,3.693176689E-1,2.027015872E0
1.024285779E1,2.073194044E0,-3.694065612E0,1.120497185E0,4.381754013E0
1.025282479E1,3.704659305E0,-5.754726149E0,1.783075669E0,7.072533666E0
1.026279179E1,5.306232430E0,-7.903740454E0,2.288462212E0,9.790928202E0
1.027275879E1,6.718630879E0,-9.988080461E0,2.425703965E0,1.227948663E1
1.028272579E1,7.900440871E0,-1.198528818E1,2.310630761E0,1.453970816E1
1.029269279E1,8.865795125E0,-1.361520189E1,2.347965233E0,1.641611971E1
1.030265979E1,9.582015892E0,-1.377227681E1,1.729174281E0,1.686655509E1
1.031262579E1,9.508427514E0,-1.291452068E1,2.638205230E-2,1.603732316E1
1.032259279E1,9.257163302E0,-1.218307844E1,-1.893003323E0,1.541771495E1
1.033255979E1,8.926257674E0,-1.181657964E1,-2.490937842E0,1.501713694E1
1.034252679E1,8.704064648E0,-1.164677650E1,-1.815945207E0,1.465284277E1
1.035249379E1,8.518824272E0,-1.127730965E1,-7.958498313E-1,1.415561574E1
1.036246092E1,8.230541922E0,-1.035787241E1,-1.822734994E-1,1.323104549E1
1.037242792E1,7.863229775E0,-9.230948480E0,-3.109023035E-2,1.212607764E1
1.038239492E1,6.859061118E0,-7.937591155E0,-1.188248507E-1,1.049124359E1
1.039236192E1,5.295802751E0,-6.318477845E0,-4.130321109E-1,8.254652299E0
1.040232892E1,3.789524916E0,-4.552984169E0,-6.837809998E-1,5.963029464E0
1.041229492E1,2.441797841E0,-2.829882807E0,-4.352995141E-1,3.762990707E0
1.042226192E1,1.006372472E0,-1.115990224E0,3.809632760E-2,1.503220231E0
1.043222892E1,-6.480907649E-1,6.439521056E-1,3.889813801E-1,9.929765697E-1
1.044219592E1,-2.130827125E0,2.291153101E0,7.112354314E-1,3.208685495E0
1.045216292E1,-3.261350604E0,3.804847544E0,8.274897730E-1,5.079174335E0
1.046212992E1,-4.167169093E0,5.015168560E0,6.374950254E-1,6.551611545E0
1.047209692E1,-5.016702284E0,5.959410272E0,3.085194900E-1,7.795964140E0
1.048206392E1,-5.753664880E0,6.716971439E0,-5.329974610E-2,8.844501440E0
1.049203092E1,-6.239060377E0,7.318423058E0,-3.867319927E-1,9.624694908E0
1.050199792E1,-6.335561070E0,7.872283604E0,-6.845406262E-1,1.012821697E1
1.051196492E1,-6.201972073E0,8.241934637E0,-7.056863507E-1,1.033885571E1
1.052193092E1,-5.936345345E0,8.508885759E0,-7.916492647E-1,1.040519301E1
1.053189792E1,-5.690367601E0,8.615810283E0,-7.612799960E-1,1.035335779E1
1.054186492E1,-5.486937121E0,8.689282302E0,-8.035582888E-1,1.030804598E1
1.055183192E1,-5.252041020E0,8.843647041E0,-5.659683752E-1,1.030118188E1
1.056179892E1,-5.150788295E0,9.120780505E0,-4.665183467E-1,1.048507971E1
1.057176592E1,-5.222273430E0,9.696252360E0,-5.057356220E-1,1.102475479E1
1.058173292E1,-4.992825764E0,9.985269120E0,-4.400760680E-1,1.117262617E1
1.059169992E1,-4.833068430E0,1.025110693E1,-5.862231302E-1,1.134845370E1
1.060166692E1,-4.896376819E0,1.039360592E1,-6.288691398E-1,1.150639067E1
1.061163392E1,-4.958594409E0,1.072162770E1,-5.818044259E-1,1.182706453E1
1.062160092E1,-4.916703787E0,1.107481356E1,-7.102098298E-1,1.213795162E1
1.063156692E1,-5.105478221E0,1.098276201E1,-5.243075484E-1,1.212278300E1
1.064153392E1,-5.467631954E0,1.069425337E1,-3.004709073E-1,1.201467175E1
1.065150092E1,-5.914115986E0,1.014803806E1,2.496878028E-2,1.174564038E1
1.066146792E1,-6.347481789E0,9.584335483E0,4.324296641E-1,1.150378230E1
1.067143492E1,-6.648410497E0,9.238849822E0,8.428702891E-1,1.141350684E1
1.068140192E1,-6.877828342E0,8.972043126E0,1.199563308E0,1.136842261E1
1.069136892E1,-7.029544877E0,8.772326213E0,1.423450856E0,1.133112619E1
1.070133592E1,-7.137087452E0,8.551219600E0,1.575410635E0,1.124914631E1
1.071130292E1,-7.229233139E0,8.302138154E0,1.665483484E0,1.113378395E1
1.072126992E1,-7.295585003E0,8.054510910E0,1.676277444E0,1.099593619E1
1.073123692E1,-7.295297905E0,7.696151435E0,1.698890966E0,1.073956931E1
1.074120292E1,-6.990746262E0,7.254263315E0,1.621527625E0,1.020412766E1
1.075116992E1,-6.689601792E0,6.557066463E0,1.550807891E0,9.494782665E0
1.076113692E1,-6.806976460E0,4.682136884E0,1.379913658E0,8.376245939E0
1.077110392E1,-6.449985234E0,9.601093018E-1,1.657538288E0,6.728413822E0
1.078107092E1,-4.395420418E0,-5.443596389E0,2.101174725E0,7.305299277E0
1.079103792E1,3.969104603E-1,-1.478247219E1,2.712415752E0,1.503450103E1
1.080100492E1,3.522921411E0,-2.301782169E1,2.918141264E0,2.346799180E1
1.081097192E1,2.573579464E0,-2.623784125E1,3.825889919E0,2.663991476E1
1.082093892E1,3.349562284E0,-2.537224985E1,5.297390855E0,2.613489966E1
1.083090592E1,6.473209789E0,-2.273463168E1,4.803686464E0,2.412138732E1
1.084087292E1,8.381060362E0,-2.096226344E1,3.672968858E0,2.287245858E1
1.085083892E1,1.030482179E1,-1.959410151E1,3.580514438E0,2.242628480E1
1.086080592E1,1.160764693E1,-1.684869811E1,-8.056995392E-2,2.046026849E1
1.087077292E1,1.441827252E1,-1.100327872E1,-1.018257055E1,2.080008336E1
1.088073992E1,1.922654554E1,-4.860341890E0,-1.992480132E1,2.811193135E1
1.089070692E1,1.772150731E1,-2.129572313E0,-1.689931044E1,2.457994290E1
1.090067392E1,1.333122367E1,-2.053988280E0,-9.038399084E0,1.623678079E1
1.091064092E1,1.055626142E1,-4.669060171E-1,-3.723544350E0,1.120345656E1
1.092060792E1,8.969346390E0,1.451784124E0,-8.602691909E-1,9.126714354E0
1.093057492E1,7.821162567E0,2.371228965E0,-3.277375337E-1,8.179286191E0
1.094054192E1,6.640917290E0,2.450616027E0,-1.337351775E0,7.203874731E0
1.095050792E1,4.429524304E0,1.135899993E0,-2.621303269E0,5.270880873E0
1.096047492E1,3.123771467E0,-2.470138711E-1,-3.266707238E0,4.526625698E0
1.097044192E1,2.343356457E0,-8.277113825E-1,-2.816815449E0,3.756444448E0
1.098040892E1,1.311643322E0,-7.556380177E-1,-1.122944975E0,1.884781801E0
1.099037592E1,-2.184753656E-2,-1.897269452E-1,7.338443486E-1,7.582883070E-1
1.100034292E1,-1.374656426E0,6.137874895E-1,2.049753288E0,2.543207407E0
1.101030992E1,-2.317819912E0,1.748770639E0,2.457879438E0,3.804163407E0
1.102027692E1,-3.166786509E0,2.846891187E0,2.207643167E0,4.796562788E0
1.103024392E1,-3.894940274E0,3.689303055E0,1.998607400E0,5.725028236E0
1.104021092E1,-4.385649136E0,4.427733886E0,1.712853971E0,6.463173713E0
1.105017792E1,-4.688471172E0,4.857987217E0,1.497086012E0,6.915422493E0
1.106014392E1,-5.274767978E0,4.997775432E0,1.258921902E0,7.374674287E0
1.107011092E1,-5.614426888E0,5.132654909E0,9.959353383E-1,7.671885224E0
1.108007792E1,-5.481049560E0,5.236584490E0,8.498542766E-1,7.627973105E0
1.109004492E1,-5.505510217E0,5.178805813E0,7.870657785E-1,7.599351613E0
1.110001192E1,-5.705272738E0,4.964214168E0,8.271599901E-1,7.607742962E0
1.110997892E1,-5.651457889E0,4.744129064E0,9.251861485E-1,7.436511700E0
1.111994592E1,-5.448277085E0,4.626034019E0,9.992505634E-1,7.216814784E0
1.112991292E1,-5.335508854E0,4.445175546E0,1.094511135E0,7.030305469E0
1.113987992E1,-5.126540476E0,4.215149590E0,1.173092889E0,6.739810847E0
1.114984692E1,-4.802349790E0,4.007978062E0,1.204147598E0,6.369962566E0
1.115981392E1,-4.636633267E0,3.748614872E0,1.236267450E0,6.089239584E0
1.116977992E1,-4.513141826E0,3.531611835E0,1.210818028E0,5.857201686E0
1.117974692E1,-4.171957378E0,3.397880750E0,1.129249297E0,5.497820107E0
1.118971392E1,-3.803067067E0,3.295833973E0,9.111388707E-1,5.114295136E0
1.119968092E1,-3.430612879E0,3.086957982E0,7.184544039E-1,4.670609279E0
1.120964792E1,-2.943931578E0,2.742155276E0,5.795116961E-1,4.064724161E0
1.121961492E1,-2.490107537E0,2.451684898E0,3.852180755E-1,3.515648923E0
1.122958192E1,-2.184456033E0,2.175558325E0,-6.489943424E-2,3.083685153E0
1.123954892E1,-2.015791343E0,1.873339137E0,-8.270974249E-1,2.873482976E0
1.124951592E1,-2.101991581E0,1.166522446E0,-1.589757949E0,2.882095342E0
1.125948292E1,-1.949010293E0,1.301613593E-1,-1.758424392E0,2.628238849E0
1.126944892E1,-1.402819541E0,-1.430204975E0,-1.359867064E0,2.421286304E0
1.127941592E1,-1.970213467E-1,-3.540330618E0,-5.212284046E-1,3.583913691E0
1.128938292E1,2.367396115E0,-5.928638715E0,6.191886357E-1,6.413791074E0
1.129934992E1,5.471915039E0,-8.921945352E0,1.860698626E0,1.063038863E1
1.130931692E1,8.335933306E0,-1.211865616E1,2.741430221E0,1.496212053E1
1.131928392E1,1.030182334E1,-1.517004436E1,3.509864870E0,1.867021589E1
1.132925092E1,1.221148070E1,-1.716918634E1,3.811484719E0,2.141094664E1
1.133921792E1,1.344653076E1,-1.738701851E1,2.976222242E0,2.218052076E1
1.134918492E1,1.342400378E1,-1.547470768E1,4.977945185E-1,2.049190705E1
1.135915154E1,1.261461699E1,-1.276324502E1,-2.316528847E0,1.809406784E1
1.136911854E1,1.210315870E1,-1.063194778E1,-3.421583024E0,1.646912246E1
1.137908454E1,1.159256111E1,-9.728330185E0,-2.695385152E0,1.537182431E1
1.138905154E1,1.108778970E1,-9.142262591E0,-1.634099139E0,1.446341335E1
1.139901854E1,1.024646307E1,-8.030993409E0,-1.204151033E0,1.307428164E1
1.140898554E1,8.787945296E0,-6.522243370E0,-1.315594286E0,1.102263260E1
1.141895254E1,7.076095730E0,-4.945170956E0,-1.507312208E0,8.763437491E0
1.142891954E1,5.477624846E0,-3.299421240E0,-1.499593298E0,6.568054090E0
1.143888654E1,3.414583322E0,-1.815377442E0,-1.092121890E0,4.018420677E0
1.144885354E1,1.319991977E0,-3.175634515E-1,-4.146459424E-1,1.419562123E0
1.145882054E1,-5.215599418E-1,9.506350583E-1,2.821328330E-1,1.120415424E0
1.146878754E1,-1.997793614E0,2.038828788E0,7.783427560E-1,2.958685451E0
1.147875454E1,-3.336239403E0,3.061265901E0,1.033146873E0,4.644269020E0
1.148872054E1,-4.342141174E0,3.938333046E0,9.890407401E-1,5.944986017E0
1.149868754E1,-5.133075909E0,4.680246479E0,7.894255686E-1,6.991163574E0
1.150865454E1,-5.646169083E0,5.245061198E0,5.805267727E-1,7.728318292E0
1.151862154E1,-6.086617033E0,5.734851463E0,3.455014479E-1,8.369874519E0
1.152858854E1,-6.339209148E0,6.121348325E0,2.258001910E-1,8.815183700E0
1.153855554E1,-6.407295297E0,6.419989017E0,2.014839234E-1,9.072501737E0
1.154852254E1,-6.473601553E0,6.670004849E0,1.791136640E-1,9.296696373E0
1.155848954E1,-6.623244665E0,6.829888190E0,1.335258837E-1,9.514860574E0
1.156845654E1,-6.740958472E0,6.958172593E0,1.187744550E-1,9.688694150E0
1.157842354E1,-6.683003209E0,7.237703415E0,-1.112210584E-1,9.851865445E0
1.158839054E1,-6.669240618E0,7.507826652E0,-2.049694669E-1,1.004431401E1
1.159835654E1,-6.737279989E0,7.832840626E0,-4.010184216E-1,1.033949465E1
1.160832354E1,-6.547888089E0,8.195104287E0,-4.913228202E-1,1.050123663E1
1.161829054E1,-6.095990120E0,8.673784842E0,-7.022739887E-1,1.062491542E1
1.162825754E1,-5.664415319E0,8.988407144E0,-8.347665598E-1,1.065710557E1
1.163822454E1,-5.590840974E0,9.069672917E0,-8.272604891E-1,1.068647882E1
1.164819154E1,-5.549756098E0,9.314319250E0,-8.023256958E-1,1.087198521E1
1.165815854E1,-5.515782021E0,9.488130074E0,-6.243715346E-1,1.099264770E1
1.166812554E1,-5.354049205E0,9.530521218E0,-4.301984032E-1,1.093991537E1
1.167809254E1,-5.270255681E0,9.364468480E0,-1.900637631E-1,1.074732474E1
1.168805954E1,-5.123113423E0,9.264727260E0,1.265939548E-1,1.058761014E1
1.169802554E1,-4.971079969E0,9.268661851E0,3.256220841E-1,1.052263077E1
1.170799254E1,-4.947560129E0,9.213986292E0,4.473938584E-1,1.046785823E1
1.171795954E1,-4.991430033E0,9.085311880E0,5.332789314E-1,1.037986764E1
1.172792654E1,-5.104658441E0,8.879285236E0,6.115275407E-1,1.026027339E1
1.173789354E1,-5.219564415E0,8.645007185E0,6.618112564E-1,1.012017767E1
1.174786054E1,-5.285640875E0,8.359395844E0,7.106495404E-1,9.915771332E0
1.175782754E1,-5.291206255E0,8.021490514E0,7.134772539E-1,9.635882081E0
1.176779454E1,-5.260208411E0,7.528380784E0,7.354545987E-1,9.213425162E0
1.177776154E1,-4.961299331E0,6.803154720E0,7.710863614E-1,8.455292980E0
1.178772854E1,-4.426924924E0,5.656687639E0,8.496986675E-1,7.233102180E0
1.179769554E1,-3.606260606E0,3.464657707E0,1.017133103E0,5.103286033E0
1.180766154E1,-2.351505722E0,-2.791987002E-2,1.345133834E0,2.709196138E0
1.181762854E1,-1.333646687E0,-4.670728966E0,2.122120621E0,5.300728109E0
1.182759554E1,-1.372181885E0,-1.011310329E1,3.273003520E0,1.071775598E1
1.183756254E1,-1.536939465E0,-1.559015511E1,4.167107697E0,1.621048752E1
1.184752954E1,4.996077400E-1,-2.026719088E1,4.679601531E0,2.080642460E1
1.185749654E1,4.760765562E0,-2.340651886E1,4.091806085E0,2.423371393E1
1.186746354E1,8.934507510E0,-2.284180881E1,3.102124490E0,2.472239532E1
1.187743054E1,1.049721273E1,-1.979170232E1,8.569075535E-1,2.241957284E1
1.188739754E1,1.398642640E1,-1.472059929E1,-2.620909166E0,2.047401602E1
1.189736454E1,1.720646585E1,-8.319569873E0,-5.941972121E0,2.001461322E1
1.190733054E1,1.662974444E1,-4.566943227E0,-4.864064228E0,1.791827256E1
1.191729754E1,1.554547887E1,-3.519222754E0,-1.496252199E0,1.600892291E1
1.192726454E1,1.552209118E1,-2.552447042E0,6.944504142E-1,1.574587444E1
1.193723154E1,1.410933839E1,-1.944023203E0,9.272666609E-1,1.427278807E1
1.194719854E1,9.926200547E0,-2.849962145E0,-1.601961672E-1,1.032847541E1
1.195716554E1,7.490399026E0,-4.581047296E0,-1.278417689E0,8.872791200E0
1.196713254E1,6.601749131E0,-5.194302104E0,-1.742238715E0,8.579001205E0
1.197709954E1,5.412507913E0,-4.913798890E0,-1.613828012E0,7.486327691E0
1.198706654E1,3.651480925E0,-4.144368460E0,-1.237737440E0,5.660485567E0
1.199703354E1,2.435010978E0,-3.074680583E0,-7.267995501E-1,3.988881640E0
1.200700054E1,1.636980062E0,-1.793923423E0,-3.659339583E-1,2.455966741E0
1.201696654E1,8.940515524E-1,-5.629213911E-1,3.596036713E-2,1.057119586E0
1.202693354E1,1.103445607E-1,3.869763333E-1,3.850742340E-1,5.569638860E-1
1.203690054E1,-7.178995031E-1,1.252955403E0,4.901931381E-1,1.524980738E0
1.204686754E1,-1.384452851E0,2.333275273E0,4.518330646E-1,2.750461110E0
1.205683454E1,-1.960770214E0,3.243487945E0,3.611871886E-1,3.807268058E0
1.206680154E1,-2.438939722E0,3.935173211E0,1.905350304E-1,4.633607532E0
1.207676854E1,-2.993576778E0,4.554326105E0,-4.025221428E-2,5.450230127E0
1.208673554E1,-3.425699463E0,4.942101753E0,-2.849289715E-1,6.020047431E0
1.209670254E1,-3.672480615E0,5.187214109E0,-5.224101269E-1,6.377085261E0
1.210666954E1,-3.998610823E0,5.331929188E0,-6.936587012E-1,6.700710393E0
1.211663654E1,-4.317631400E0,5.377081972E0,-7.701414514E-1,6.938880983E0
1.212660254E1,-4.477331724E0,5.432945101E0,-7.580739677E-1,7.080823962E0
1.213656954E1,-4.504647576E0,5.433324586E0,-6.898053861E-1,7.091452412E0
1.214653654E1,-4.412061594E0,5.371216630E0,-4.996200192E-1,6.968922138E0
1.215650354E1,-4.191629165E0,5.123968871E0,-3.626969397E-1,6.629959360E0
1.216647054E1,-3.811118098E0,4.893716043E0,-2.857668775E-1,6.209246378E0
1.217643754E1,-3.530935312E0,4.658660898E0,-8.885722180E-2,5.846239915E0
1.218640454E1,-3.367752387E0,4.484803296E0,4.888505260E-2,5.608708095E0
1.219637154E1,-3.199477122E0,4.317862950E0,1.511861926E-1,5.376193037E0
1.220633854E1,-2.991000495E0,4.079998802E0,2.811446901E-1,5.066706674E0
1.221630554E1,-2.861412748E0,3.802532632E0,4.139734761E-1,4.776851616E0
1.222627254E1,-2.831048157E0,3.380830854E0,5.328479550E-1,4.441708891E0
1.223623854E1,-3.072362747E0,2.789132976E0,6.240733266E-1,4.196205801E0
1.224620554E1,-3.398487691E0,2.082218052E0,6.567370427E-1,4.039387843E0
1.225617254E1,-3.459470057E0,1.496622913E0,5.205548054E-1,3.805100594E0
1.226613954E1,-3.217453217E0,1.239137263E0,1.516019297E-1,3.451151910E0
1.227610654E1,-2.911110572E0,1.254533567E0,-2.298230571E-1,3.178244464E0
1.228607354E1,-2.874517527E0,1.276148969E0,-3.482342903E-1,3.164281013E0
1.229604054E1,-2.883017040E0,1.055393189E0,-3.090673010E-1,3.085638448E0
1.230600754E1,-2.399450844E0,5.774482137E-1,-2.323490542E-1,2.478870080E0
1.231597454E1,-1.539937625E0,-2.190378678E-1,2.360520959E-2,1.555616496E0
1.232594154E1,-4.967794418E-1,-1.347889627E0,5.333772377E-1,1.532347069E0
1.233590854E1,9.672861743E-1,-2.859185543E0,1.167125806E0,3.236165502E0
1.234587454E1,3.013104432E0,-4.796620104E0,1.831784145E0,5.953301260E0
1.235584154E1,5.529425329E0,-7.356538718E0,2.495095212E0,9.535130124E0
1.236580846E1,7.756495870E0,-1.022595923E1,2.888897000E0,1.315595668E1
1.237577546E1,9.475470852E0,-1.249896140E1,2.934232802E0,1.595676365E1
1.238574246E1,1.083714529E1,-1.401529411E1,2.618739265E0,1.790893582E1
1.239570946E1,1.192672832E1,-1.431543403E1,1.590644386E0,1.870049864E1
1.240567646E1,1.290366123E1,-1.368841253E1,-4.410496660E-1,1.881679132E1
1.241564346E1,1.318523039E1,-1.323889146E1,-1.443710874E0,1.874040684E1
1.242561046E1,1.255048239E1,-1.305610282E1,-6.935978901E-1,1.812339667E1
1.243557746E1,1.215895984E1,-1.292894927E1,4.017091971E-2,1.774822941E1
1.244554346E1,1.211691252E1,-1.266126841E1,1.600470632E-1,1.752577821E1
1.245551046E1,1.154280482E1,-1.204261662E1,-2.042238738E-1,1.668240587E1
1.246547746E1,1.055081182E1,-1.104186567E1,-5.942208787E-1,1.528383217E1
1.247544446E1,9.034220079E0,-9.566708466E0,-8.628121450E-1,1.318648885E1
1.248541146E1,7.026846972E0,-7.362132749E0,-1.051753297E0,1.023150829E1
1.249537846E1,4.550397361E0,-4.947088258E0,-1.459981336E0,6.878324206E0
1.250534546E1,2.155669021E0,-2.851626263E0,-1.296846943E0,3.802695526E0
1.251531246E1,-1.751656240E-1,-7.577658194E-1,-4.968139404E-1,9.228846755E-1
1.252527946E1,-2.322859628E0,9.615447932E-1,9.615161419E-2,2.515847844E0
1.253524646E1,-3.680384297E0,2.324638351E0,4.440591548E-1,4.375655444E0
1.254521346E1,-5.113896457E0,3.478548937E0,3.844953597E-1,6.196779516E0
1.255517946E1,-6.422168275E0,4.359806197E0,1.075039834E-1,7.762970600E0
1.256514646E1,-7.232475420E0,5.050217355E0,-1.950327086E-1,8.823345952E0
1.257511346E1,-7.797014735E0,5.552212513E0,-4.763521940E-1,9.583705650E0
1.258508046E1,-8.241707180E0,5.930450183E0,-6.200293922E-1,1.017253228E1
1.259504746E1,-8.484805756E0,6.311284016E0,-6.901936412E-1,1.059719783E1
1.260501446E1,-8.424366596E0,6.671887652E0,-5.509527254E-1,1.076046404E1
1.261498146E1,-8.026510348E0,7.132995570E0,-4.537766790E-1,1.074757682E1
1.262494846E1,-7.804426666E0,7.548930239E0,-3.855677390E-1,1.086480952E1
1.263491546E1,-7.679092768E0,7.851690879E0,-3.707158113E-1,1.098885552E1
1.264488246E1,-7.482716369E0,8.223280265E0,-4.103657806E-1,1.112572616E1
1.265484846E1,-7.229914339E0,8.252799933E0,-3.148538518E-1,1.097631546E1
1.266481546E1,-7.284797475E0,8.254364648E0,9.610366702E-2,1.100963423E1
1.267478246E1,-6.820874707E0,8.639257033E0,4.788990218E-2,1.100742419E1
1.268474946E1,-6.456596680E0,9.061088035E0,7.782881577E-2,1.112641067E1
1.269471646E1,-6.352361290E0,9.212990511E0,3.555305191E-1,1.119634271E1
1.270468346E1,-6.396459821E0,9.444415705E0,5.391670775E-1,1.141938647E1
1.271465046E1,-6.385968747E0,9.785484964E0,6.456483098E-1,1.170269946E1
1.272461746E1,-6.302575758E0,1.025621506E1,7.279457505E-1,1.205994666E1
1.273458446E1,-6.017575450E0,1.060908049E1,7.436186273E-1,1.221952421E1
1.274455146E1,-5.890976214E0,1.074402020E1,1.084161563E0,1.230093399E1
1.275451846E1,-5.981270088E0,1.080616557E1,1.514914173E0,1.244362372E1
1.276448446E1,-6.264031497E0,1.064524318E1,1.912455840E0,1.249867114E1
1.277445146E1,-6.673423716E0,1.036775888E1,2.377067264E0,1.255688883E1
1.278441846E1,-6.976006601E0,9.981433346E0,2.781700580E0,1.249125846E1
1.279438546E1,-7.250431634E0,9.501093936E0,3.066721938E0,1.233873285E1
1.280435246E1,-7.521930721E0,8.994493511E0,3.190583507E0,1.215155045E1
1.281431946E1,-7.591433065E0,8.581878891E0,3.189030486E0,1.189320885E1
1.282428646E1,-7.370056311E0,8.203303252E0,3.153395215E0,1.146977836E1
1.283425346E1,-6.860686644E0,7.771706817E0,3.098384610E0,1.081981679E1
1.284422046E1,-6.267719920E0,7.393897163E0,3.015963428E0,1.015135772E1
1.285418746E1,-5.809533856E0,6.989783226E0,2.876072302E0,9.533076369E0
1.286415446E1,-5.392947223E0,6.454038523E0,2.878255652E0,8.889479659E0
1.287412046E1,-4.256388833E0,5.408317214E0,2.923847562E0,7.477675143E0
1.288408746E1,-1.857034176E0,2.134973971E0,3.132011948E0,4.220922722E0
1.289405446E1,3.437051833E0,-6.852015808E0,3.244136986E0,8.323933608E0
1.290402146E1,1.043334359E1,-2.131768059E1,1.979149036E0,2.381628005E1
1.291398846E1,9.805598216E0,-3.535059587E1,1.007138530E0,3.669916501E1
1.292395546E1,5.235198115E0,-4.410588914E1,2.929520531E0,4.451200790E1
1.293392246E1,1.253411720E1,-4.156086748E1,2.557493774E0,4.348506151E1
1.294388946E1,1.415037765E1,-2.741627272E1,2.120504451E0,3.092542218E1
1.295385646E1,1.418619419E1,-9.600684882E0,-6.246008185E-1,1.714092710E1
1.296382346E1,1.123364732E1,-2.677930044E0,-2.086635039E0,1.173542446E1
1.297378946E1,9.994442232E0,-9.886437142E-1,-2.622658653E0,1.038001109E1
1.298375646E1,1.116153478E1,-2.469980836E0,-4.416741121E0,1.225513224E1
1.299372346E1,1.564487218E1,-3.017381378E0,-7.929367046E0,1.779723230E1
1.300369046E1,1.939806776E1,-2.796035029E0,-1.182260812E1,2.288835747E1
1.301365746E1,1.734455369E1,-2.604779037E0,-1.340697669E1,2.207635478E1
1.302362446E1,1.172108525E1,-1.266481767E0,-1.104731644E1,1.615645432E1
1.303359146E1,5.347423725E0,-4.614330232E-2,-8.775011255E0,1.027608351E1
1.304355846E1,9.452179053E-1,1.434550041E-1,-7.310964350E0,7.373209338E0
1.305352546E1,-7.609227312E-1,-8.393455875E-1,-5.565752910E0,5.679886432E0
1.306349246E1,-2.259903826E0,-1.448443025E0,-3.669083383E0,4.546133013E0
1.307345846E1,-2.575392686E0,2.885448897E-1,-2.316324195E0,3.475811188E0
1.308342546E1,-3.316776069E0,1.808638526E0,-3.994662783E-1,3.798914334E0
1.309339246E1,-3.132148188E0,3.019370016E0,2.087906224E0,4.825588043E0
1.310335946E1,-1.292866158E0,4.262346561E0,4.409451689E0,6.267564544E0
1.311332646E1,-1.170076092E0,5.024763256E0,5.734698851E0,7.713889729E0
1.312329346E1,-1.644934030E0,5.791306331E0,5.239309877E0,7.980940105E0
1.313326046E1,-1.735241644E0,5.930534382E0,3.776624789E0,7.241905579E0
1.314322746E1,-1.951668730E0,5.832920964E0,2.646347186E0,6.695904064E0
1.315319446E1,-2.427423923E0,5.787175273E0,2.188355834E0,6.646253516E0
1.316316146E1,-2.888440332E0,5.696137049E0,1.878456766E0,6.657151392E0
1.317312846E1,-3.016577386E0,5.618880712E0,1.699591316E0,6.600012895E0
1.318309446E1,-3.037195253E0,5.601910923E0,1.660408101E0,6.585052471E0
1.319306146E1,-3.113432128E0,5.574285167E0,1.634150741E0,6.590642107E0
1.320302846E1,-2.978705555E0,5.542544727E0,1.612030724E0,6.495470105E0
1.321299546E1,-2.941256185E0,5.396594716E0,1.617841687E0,6.355441306E0
1.322296246E1,-2.872305526E0,5.175884544E0,1.556898205E0,6.120772163E0
1.323292946E1,-2.679165853E0,4.735223170E0,1.470586577E0,5.635857789E0
1.324289646E1,-2.583061309E0,4.168778247E0,1.322910468E0,5.079469451E0
1.325286346E1,-2.522931467E0,3.532007107E0,1.236332792E0,4.513178055E0
1.326283046E1,-2.755148374E0,2.740243236E0,1.131770763E0,4.047305352E0
1.327279746E1,-3.334084119E0,1.791023789E0,1.042446284E0,3.925630826E0
1.328276346E1,-3.485287853E0,1.714852111E0,1.164627437E0,4.055157981E0
1.329273046E1,-3.550783101E0,2.031785232E0,1.323692679E0,4.299810946E0
1.330269746E1,-3.821552455E0,2.192024084E0,1.320234636E0,4.599157776E0
1.331266446E1,-3.860823525E0,2.310046039E0,1.222420001E0,4.662250706E0
1.332263146E1,-4.026309083E0,2.166530809E0,1.084048054E0,4.698955284E0
1.333259846E1,-4.566778920E0,1.727276275E0,1.013844044E0,4.986665497E0
1.334256546E1,-4.766075126E0,1.465542038E0,7.128270435E-1,5.037003868E0
1.335253246E1,-4.260720450E0,1.320424086E0,2.380237587E-1,4.466980393E0
1.336250017E1,-3.460787143E0,1.057473044E0,-2.544369113E-1,3.627676257E0
1.337246717E1,-2.424831560E0,3.064777154E-1,-7.158102930E-1,2.546786418E0
1.338243417E1,-1.041094116E0,-1.338324167E0,-9.659787369E-1,1.951436254E0
1.339240017E1,8.855108169E-1,-3.913595815E0,-7.758518422E-1,4.086845690E0
1.340236717E1,3.340549386E0,-7.428821998E0,-4.741320062E-1,8.159134000E0
1.341233417E1,5.533242976E0,-1.225375140E1,2.766399586E-1,1.344796382E1
1.342230117E1,7.702567585E0,-1.653369340E1,7.463000143E-1,1.825512335E1
1.343226817E1,9.828467846E0,-1.784250257E1,8.060129499E-1,2.038635169E1
1.344223517E1,1.148712061E1,-1.588684517E1,6.278716779E-1,1.961479065E1
1.345220217E1,1.248557829E1,-1.335992999E1,-1.058221780E-2,1.828599209E1
1.346216917E1,1.234840028E1,-1.226299467E1,-5.897116156E-1,1.741297756E1
1.347213617E1,1.182454355E1,-1.166735402E1,-9.764370668E-1,1.664032479E1
1.348210317E1,1.142956062E1,-1.124389632E1,-1.509019010E0,1.610394979E1
1.349206917E1,1.100549131E1,-1.125114570E1,-1.901196442E0,1.585319105E1
1.350203617E1,1.075074215E1,-1.130558094E1,-2.302054650E0,1.577003719E1
1.351200317E1,1.008727263E1,-1.082302543E1,-2.568219906E0,1.501621464E1
1.352197017E1,8.734929761E0,-9.715314867E0,-2.686863420E0,1.333812490E1
1.353193717E1,6.980840494E0,-8.001060927E0,-2.516746867E0,1.091252147E1
1.354190417E1,5.453574663E0,-5.933611187E0,-2.307327669E0,8.382898025E0
1.355187117E1,4.010446172E0,-3.907784268E0,-2.206100671E0,6.018416449E0
1.356183817E1,2.081096556E0,-2.030567842E0,-2.159948452E0,3.622091378E0
1.357180517E1,1.675765228E-1,-1.597623038E-1,-1.716963540E0,1.732503877E0
1.358177217E1,-1.243554835E0,1.592395043E0,-1.041730512E0,2.273181264E0
1.359173917E1,-2.524207914E0,3.316215028E0,-4.915730079E-1,4.196492789E0
1.360170517E1,-3.704861326E0,4.465789905E0,-1.894018400E-1,5.805613661E0
1.361167217E1,-4.416841108E0,5.168296613E0,4.711591356E-1,6.814819600E0
1.362163917E1,-4.916509659E0,5.565709641E0,1.050878993E0,7.500235843E0
1.363160617E1,-5.327116345E0,6.009822042E0,1.460273404E0,8.162629965E0
1.364157317E1,-5.862285097E0,6.339603835E0,1.574721980E0,8.777056036E0
1.365154017E1,-6.366814438E0,6.782005341E0,1.652662879E0,9.447921313E0
1.366150717E1,-6.762980840E0,7.405291048E0,1.644470930E0,1.016270289E1
1.367147417E1,-6.589247784E0,7.812475358E0,1.632819914E0,1.034983374E1
1.368144117E1,-6.481534470E0,8.038346282E0,1.628025051E0,1.045350494E1
1.369140817E1,-6.702973205E0,8.269270955E0,1.671621891E0,1.077520356E1
1.370137417E1,-7.274896969E0,8.442892329E0,1.823233030E0,1.129295070E1
1.371134117E1,-7.850372332E0,8.772726747E0,1.786100872E0,1.190710866E1
1.372130817E1,-7.717263392E0,8.770855054E0,2.070655768E0,1.186472368E1
1.373127517E1,-7.833546385E0,8.812324677E0,2.411224505E0,1.203476293E1
1.374124217E1,-8.169449628E0,9.057839321E0,2.584656429E0,1.246855281E1
1.375120917E1,-8.087036632E0,9.027421521E0,2.693174905E0,1.241562289E1
1.376117617E1,-7.826711574E0,9.085494897E0,2.645600789E0,1.228018058E1
1.377114317E1,-7.435555651E0,9.323344427E0,2.411134458E0,1.216658574E1
1.378111017E1,-6.651387899E0,9.924741082E0,2.097466421E0,1.213016125E1
1.379107717E1,-5.605675360E0,1.070109228E1,1.685724206E0,1.219748491E1
1.380104417E1,-4.930541807E0,1.079115226E1,1.373589309E0,1.194344830E1
1.381101017E1,-4.844790051E0,1.048816943E1,1.111921731E0,1.160646624E1
1.382097717E1,-4.938505715E0,9.855322938E0,6.903538549E-1,1.104503587E1
1.383094417E1,-5.017780511E0,9.345151033E0,5.502031855E-1,1.062133196E1
1.384091117E1,-5.032196236E0,8.947620476E0,5.218266479E-1,1.027887222E1
1.385087817E1,-4.912153484E0,8.554843705E0,4.809838100E-1,9.876535227E0
1.386084517E1,-4.733726575E0,8.250582669E0,5.101742800E-1,9.525783929E0
1.387081217E1,-4.655232383E0,7.870247603E0,5.463661695E-1,9.160267565E0
1.388077917E1,-4.688132911E0,7.566391194E0,6.103803901E-1,8.921963356E0
1.389074617E1,-4.669658341E0,7.185616418E0,6.699739695E-1,8.595793009E0
1.390071317E1,-4.271889217E0,6.466714118E0,7.571805131E-1,7.787217172E0
1.391067917E1,-3.364946600E0,4.625593724E0,8.845784783E-1,5.788044748E0
1.392064617E1,-2.331076135E0,4.843535239E-1,1.505959747E0,2.817166847E0
1.393061317E1,-1.543935366E0,-5.979601877E0,2.966736889E0,6.851343138E0
1.394058017E1,-6.831068158E-1,-1.367409270E1,4.215018028E0,1.432528615E1
1.395054717E1,8.419350269E-1,-2.116450693E1,4.033935606E0,2.156195364E1
1.396051417E1,2.373785075E0,-2.513819049E1,3.809936961E0,2.553583945E1
1.397048117E1,4.624816629E0,-2.407297749E1,3.390796264E0,2.474660933E1
1.398044817E1,6.961240042E0,-2.145212211E1,2.618379076E0,2.270480819E1
1.399041517E1,1.050383295E1,-1.896587783E1,2.016275493E0,2.177384659E1
1.400038217E1,1.475069842E1,-1.400855344E1,1.076052572E0,2.037107171E1
1.401034817E1,1.572831429E1,-9.244459641E0,-4.057295233E-1,1.824841146E1
1.402031517E1,1.461429107E1,-6.954038027E0,-2.074396816E0,1.631684009E1
1.403028217E1,1.439133556E1,-6.004126269E0,-2.925571321E0,1.586565596E1
1.404024917E1,1.336586609E1,-5.582857186E0,-4.335572412E0,1.511991596E1
1.405021617E1,1.212519919E1,-4.746079695E0,-6.220434072E0,1.443050685E1
1.406018317E1,1.004233794E1,-4.103677686E0,-7.388080938E0,1.312526045E1
1.407015017E1,8.220668314E0,-3.542846090E0,-6.474718956E0,1.104776591E1
1.408011717E1,6.523326859E0,-2.648188182E0,-4.436457932E0,8.321589568E0
1.409008417E1,4.388984973E0,-2.105619194E0,-3.175662582E0,5.812198733E0
1.410005117E1,3.453733939E0,-1.981498593E0,-2.361104511E0,4.629193159E0
1.411001817E1,2.191219800E0,-1.410639022E0,-2.137775956E0,3.370672441E0
1.411998417E1,1.018247875E0,-6.835248917E-1,-2.119827343E0,2.449020820E0
1.412995117E1,-3.022463778E-1,7.379478514E-2,-2.028476293E0,2.052197509E0
1.413991817E1,-1.141587287E0,8.618807566E-1,-1.770995321E0,2.276507062E0
1.414988517E1,-1.366785489E0,1.695893683E0,-1.281955254E0,2.527363692E0
1.415985217E1,-1.730479672E0,2.486595114E0,-7.561957689E-1,3.122426492E0
1.416981917E1,-2.043359796E0,3.272880144E0,-3.177318879E-1,3.871436070E0
1.417978617E1,-2.510963970E0,3.865096085E0,1.165466658E-1,4.610584663E0
1.418975317E1,-2.912259550E0,4.467773280E0,4.315631433E-1,5.350560767E0
1.419972017E1,-3.102222430E0,4.919717442E0,4.766428371E-1,5.835631252E0
1.420968717E1,-3.430142178E0,5.162124292E0,4.289739231E-1,6.212682286E0
1.421965317E1,-3.853358092E0,5.283486761E0,3.280744064E-1,6.547612829E0
1.422962017E1,-4.081474054E0,5.424656673E0,2.698127496E-1,6.793977436E0
1.423958717E1,-3.993965210E0,5.588313223E0,2.505345162E-1,6.873410384E0
1.424955417E1,-3.925370938E0,5.680093458E0,2.388751316E-1,6.908622151E0
1.425952117E1,-3.919902037E0,5.681611980E0,2.440312064E-1,6.906945628E0
1.426948817E1,-4.011654207E0,5.478351070E0,1.574421469E-1,6.791942870E0
1.427945517E1,-4.414931408E0,4.909073170E0,1.505541452E-1,6.604035530E0
1.428942217E1,-4.549796267E0,4.055346356E0,2.577756898E-1,6.100240032E0
1.429938917E1,-4.225485713E0,3.126615552E0,6.339200377E-1,5.294554650E0
1.430935617E1,-4.085808011E0,2.079232464E0,1.017601465E0,4.696013999E0
1.431932317E1,-4.259095509E0,9.548497313E-1,1.311026441E0,4.557457942E0
1.432928917E1,-5.060751699E0,-4.378102720E-2,1.513748238E0,5.282476527E0
1.433925617E1,-5.584723032E0,-4.155657095E-1,1.449386766E0,5.784682204E0
1.434922317E1,-5.574459414E0,-1.365313160E-1,1.104384086E0,5.684443928E0
1.435919017E1,-5.069397392E0,7.739281082E-1,6.364051044E-1,5.167471924E0
1.436915746E1,-4.513969207E0,1.904702432E0,3.108280438E-1,4.909218210E0
1.437912446E1,-4.072269075E0,2.802494448E0,-1.442625046E-2,4.943435918E0
1.438909146E1,-3.562343046E0,3.396639971E0,-2.300504772E-1,4.927511978E0
1.439905846E1,-3.024326993E0,3.701833638E0,-3.591143507E-1,4.793650922E0
1.440902546E1,-2.561377494E0,3.684763861E0,-3.448757593E-1,4.500786450E0
1.441899246E1,-2.137136563E0,3.297707421E0,-1.786446991E-1,3.933718451E0
1.442895846E1,-1.619930751E0,2.414690149E0,1.425685662E-1,2.911224820E0
1.443892546E1,-7.803907433E-1,1.203894340E0,5.178416973E-1,1.525297125E0
1.444889246E1,5.322077215E-1,-3.776979715E-1,8.074911261E-1,1.038240211E0
1.445885946E1,2.199401516E0,-2.527475338E0,1.252870034E0,3.577035356E0
1.446882646E1,4.148740423E0,-5.553007150E0,1.721202772E0,7.142161752E0
1.447879346E1,6.060323274E0,-9.459941817E0,2.221188827E0,1.145214815E1
1.448876046E1,7.902124869E0,-1.427710085E1,2.639212121E0,1.653011273E1
1.449872746E1,1.061274436E1,-1.669243829E1,1.934412135E0,1.987485318E1
1.450869446E1,1.191889890E1,-1.560605602E1,8.713070530E-1,1.965625375E1
1.451866146E1,1.182037916E1,-1.300397840E1,-6.566557664E-1,1.758567640E1
1.452862746E1,1.121374574E1,-1.171924221E1,-1.556343450E0,1.629450633E1
1.453859446E1,1.067748590E1,-1.155782047E1,-1.722828298E0,1.582908893E1
1.454856146E1,1.068818162E1,-1.193462323E1,-1.516958359E0,1.609265735E1
1.455852846E1,1.097731474E1,-1.274357382E1,-1.388058245E0,1.687681304E1
1.456849546E1,1.116824739E1,-1.345548402E1,-1.337326632E0,1.753762362E1
1.457846246E1,1.114474392E1,-1.312389778E1,-1.100720220E0,1.725264023E1
1.458842946E1,1.033543314E1,-1.179564076E1,-9.096507543E-1,1.570941704E1
1.459839646E1,8.840065037E0,-9.859953933E0,-8.611118478E-1,1.327052957E1
1.460836346E1,6.867682253E0,-7.482196552E0,-9.341283685E-1,1.019906469E1
1.461833046E1,4.664798720E0,-4.836670607E0,-1.131249703E0,6.814209826E0
1.462829746E1,2.525646329E0,-2.319299258E0,-1.117485357E0,3.606495799E0
1.463826346E1,5.887894732E-1,-8.897474170E-2,-6.993246531E-1,9.185012351E-1
1.464823046E1,-1.015790582E0,1.686569713E0,-2.128152609E-1,1.980312662E0
1.465819746E1,-2.363557418E0,3.124090140E0,1.512399962E-1,3.920359219E0
1.466816446E1,-3.549949872E0,4.385930387E0,2.309486461E-1,5.647288441E0
1.467813146E1,-4.641078320E0,5.387799334E0,1.860718507E-1,7.113551319E0
1.468809846E1,-5.539348639E0,6.288266451E0,1.000762653E-1,8.380733474E0
1.469806546E1,-6.035551545E0,7.113742443E0,6.948597193E-2,9.329418112E0
1.470803246E1,-6.329687542E0,7.604429086E0,1.139938080E-1,9.894709733E0
1.471799946E1,-6.404700887E0,7.958378592E0,1.266425141E-1,1.021626260E1
1.472796646E1,-6.445333189E0,8.466163663E0,-3.522596598E-2,1.064046465E1
1.473793246E1,-6.314858419E0,8.576202414E0,4.126031994E-2,1.065037028E1
1.474789946E1,-6.348627259E0,8.365489812E0,2.388494221E-1,1.050445319E1
1.475786646E1,-6.501948270E0,8.358484263E0,1.637395982E-1,1.059086404E1
1.476783346E1,-6.475750405E0,8.563516295E0,-3.947572231E-2,1.073641993E1
1.477780046E1,-6.317314834E0,8.603605390E0,3.272803545E-2,1.067387294E1
1.478776746E1,-6.282252590E0,8.744311033E0,1.417926224E-1,1.076799787E1
1.479773446E1,-6.226587682E0,8.816525901E0,3.904772440E-2,1.079365776E1
1.480770146E1,-6.551136217E0,8.884181110E0,1.287802652E-1,1.103914146E1
1.481766846E1,-6.726088418E0,9.105405251E0,4.239500685E-1,1.132821274E1
1.482763546E1,-6.725548135E0,9.376923634E0,4.483586490E-1,1.154819120E1
1.483760246E1,-6.691277019E0,9.705014412E0,4.235442718E-1,1.179575698E1
1.484756846E1,-6.315927290E0,1.019876500E1,4.628737772E-1,1.200499884E1
1.485753546E1,-6.130361223E0,1.036503174E1,7.696187103E-1,1.206679430E1
1.486750246E1,-6.213268894E0,1.031234131E1,1.016012192E0,1.208227522E1
1.487746946E1,-6.671509922E0,9.871886930E0,1.275302292E0,1.198288747E1
1.488743646E1,-7.323872663E0,9.206658561E0,1.460802870E0,1.185477194E1
1.489740346E1,-7.602912319E0,8.600047944E0,1.651371814E0,1.159707417E1
1.490737046E1,-7.523876674E0,8.210693548E0,1.638531328E0,1.125650895E1
1.491733746E1,-7.107763081E0,8.038477845E0,1.526192282E0,1.083820488E1
1.492730446E1,-6.346993546E0,7.971007993E0,1.387463583E0,1.028330446E1
1.493727146E1,-5.764667001E0,7.886527421E0,1.334053946E0,9.859432049E0
1.494723746E1,-5.354279585E0,7.739224949E0,1.365966879E0,9.509457303E0
1.495720446E1,-5.131675501E0,7.464677709E0,1.468774964E0,9.176753600E0
1.496717146E1,-5.008539571E0,7.042395887E0,1.610409729E0,8.790576088E0
1.497713846E1,-4.882165453E0,6.375079477E0,1.759502911E0,8.220281525E0
1.498710546E1,-4.528656244E0,4.990138384E0,1.941101350E0,7.012708671E0
1.499707246E1,-3.605155482E0,2.185973386E0,2.326382575E0,4.815358925E0
1.500703946E1,-2.205828776E0,-2.729608905E0,3.140213252E0,4.709287062E0
1.501700646E1,-1.605303941E0,-9.361837817E0,4.210380017E0,1.038981751E1
1.502697346E1,-2.167173418E0,-1.574301769E1,4.292988310E0,1.646113591E1
1.503694046E1,-8.074905413E-1,-2.008238846E1,3.864693797E0,2.046680789E1
1.504690646E1,2.748417644E0,-2.152583211E1,3.147767270E0,2.192769223E1
1.505687346E1,6.410028870E0,-2.175849283E1,2.120816107E0,2.278197404E1
1.506684046E1,9.698103004E0,-2.073886004E1,3.792181744E-1,2.289753969E1
1.507680746E1,1.170584741E1,-1.794391201E1,-3.309308078E-1,2.142709399E1
1.508677446E1,1.425358101E1,-1.190321900E1,-1.552662043E0,1.863496589E1
1.509674146E1,1.825237134E1,-4.695881349E0,-3.901609608E0,1.924637417E1
1.510670846E1,2.151663795E1,-1.850112827E0,-4.689169915E0,2.209925204E1
1.511667546E1,2.128358431E1,-2.481616210E0,-4.297478971E0,2.185446649E1
1.512664246E1,1.941682680E1,-3.264325082E0,-4.234251859E0,2.013946052E1
1.513660946E1,1.512617153E1,-4.185394864E0,-4.400862422E0,1.629988298E1
1.514657546E1,9.504655475E0,-5.850156217E0,-3.364249320E0,1.165679960E1
1.515654246E1,6.654809690E0,-6.381572810E0,-2.204954471E0,9.480125936E0
1.516650946E1,4.164653036E0,-5.977500973E0,-2.069394085E0,7.573456587E0
1.517647646E1,2.092611478E0,-5.328721991E0,-2.533987967E0,6.260622642E0
1.518644346E1,9.780362803E-1,-4.172097126E0,-2.804967821E0,5.121600714E0
1.519641046E1,2.906270832E-1,-2.689785274E0,-2.549788313E0,3.717637605E0
1.520637746E1,-3.754269129E-1,-1.530180668E0,-1.462886817E0,2.149985136E0
1.521634446E1,-9.481336194E-1,-4.119755191E-1,-3.083236814E-1,1.078769985E0
1.522631146E1,-1.352862684E0,6.572515976E-1,3.938733434E-1,1.554784009E0
1.523627846E1,-1.422827543E0,1.711980543E0,6.424101949E-1,2.316895866E0
1.524624446E1,-1.366275612E0,2.790593026E0,6.335294437E-1,3.171037376E0
1.525621146E1,-1.621978446E0,3.600381523E0,4.334200363E-1,3.972582802E0
1.526617846E1,-2.029504234E0,4.256701074E0,1.506255908E-1,4.718164849E0
1.527614546E1,-2.516926376E0,4.729742575E0,-3.741487116E-4,5.357740508E0
1.528611246E1,-2.877655728E0,5.027947065E0,-2.289521143E-2,5.793244200E0
1.529607946E1,-3.164026623E0,5.321535178E0,-7.714465499E-2,6.191587229E0
1.530604646E1,-3.367454179E0,5.504068878E0,-7.309136510E-2,6.452895800E0
1.531601346E1,-3.478971691E0,5.652158970E0,-3.001887426E-3,6.637029009E0
1.532598046E1,-3.549224233E0,5.682300782E0,7.274520993E-2,6.700061694E0
1.533594746E1,-3.542532679E0,5.637744414E0,2.277841330E-1,6.662250782E0
1.534591446E1,-3.407155019E0,5.496987315E0,4.023702979E-1,6.479774435E0
1.535588046E1,-3.233084579E0,5.296298010E0,5.701654335E-1,6.231267698E0
1.536584692E1,-3.091535182E0,5.060176917E0,7.313112617E-1,5.974763290E0
1.537581392E1,-2.885551223E0,4.657365155E0,8.592180077E-1,5.545783230E0
1.538578092E1,-2.623293661E0,3.996835023E0,9.931905091E-1,4.882907660E0
1.539574792E1,-2.423761520E0,3.306170681E0,1.027352282E0,4.226208370E0
1.540571492E1,-2.171521407E0,2.648322667E0,1.058114410E0,3.584511721E0
1.541568192E1,-2.031622095E0,1.781982239E0,1.159651310E0,2.940704031E0
1.542564892E1,-1.922048782E0,1.004193215E0,1.295802630E0,2.526218516E0
1.543561592E1,-1.834994266E0,4.910123330E-1,1.439416094E0,2.383320322E0
1.544558292E1,-1.880804277E0,2.591035742E-1,1.399734550E0,2.358774300E0
1.545554892E1,-2.005723023E0,4.627673578E-1,1.050667470E0,2.311056166E0
1.546551592E1,-2.250656455E0,7.936981291E-1,6.650868666E-1,2.477448635E0
1.547548292E1,-2.498930401E0,1.324024801E0,4.017452306E-1,2.856412794E0
1.548544992E1,-2.692632283E0,1.936169223E0,2.190425456E-1,3.323702681E0
1.549541692E1,-2.640495585E0,2.527664788E0,1.150439680E-1,3.657122000E0
1.550538392E1,-2.365239077E0,2.903538428E0,1.178646557E-1,3.746836449E0
1.551535092E1,-1.966007565E0,2.823454378E0,3.366171885E-1,3.456933829E0
1.552531792E1,-1.653514234E0,2.284736951E0,6.910157597E-1,2.903727783E0
1.553528492E1,-1.407733541E0,1.676514841E0,1.064796681E0,2.434380354E0
1.554525192E1,-8.620813161E-1,1.020920345E0,1.389651611E0,1.927847023E0
1.555521792E1,-6.142675459E-2,6.130805612E-2,1.653889625E0,1.656165093E0
1.556518492E1,9.439826810E-1,-1.365699661E0,1.852345294E0,2.487452905E0
1.557515192E1,2.428515306E0,-3.459778206E0,2.031834934E0,4.690000536E0
1.558511892E1,4.485288030E0,-6.265350628E0,2.184754826E0,8.009093635E0
1.559508592E1,7.115531691E0,-9.336711747E0,2.075373302E0,1.192108015E1
1.560505292E1,9.493127105E0,-1.248389430E1,1.786219132E0,1.578472863E1
1.561501992E1,1.095310844E1,-1.479063257E1,1.305361658E0,1.845094483E1
1.562498692E1,1.154006598E1,-1.507487040E1,4.067978461E-1,1.898921601E1
1.563495392E1,1.143140951E1,-1.413784005E1,-8.146925569E-1,1.819943320E1
1.564492092E1,1.126633326E1,-1.374213090E1,-2.033814801E0,1.788610716E1
1.565488692E1,1.070839194E1,-1.339594767E1,-3.141544079E0,1.743531965E1
1.566485392E1,1.026325862E1,-1.264680240E1,-3.968131042E0,1.676371535E1
1.567482092E1,1.012504564E1,-1.215693905E1,-4.661413182E0,1.649352870E1
1.568478792E1,9.930707581E0,-1.115743237E1,-5.091319188E0,1.578064578E1
1.569475492E1,8.902759468E0,-9.387595972E0,-5.233270873E0,1.395611724E1
1.570472192E1,6.975003219E0,-7.517054143E0,-4.466182837E0,1.118497036E1
1.571468892E1,5.283584409E0,-4.982470930E0,-3.463434470E0,8.045909464E0
1.572465592E1,3.210898488E0,-2.715141724E0,-2.318029243E0,4.801575081E0
1.573462292E1,8.423615813E-1,-9.195863432E-1,-1.295102134E0,1.797915908E0
1.574458992E1,-1.232228778E0,6.757855171E-1,-4.910315923E-1,1.488685948E0
1.575455592E1,-2.754696384E0,1.992810032E0,7.884973962E-2,3.400861843E0
1.576452292E1,-4.299409722E0,3.074496396E0,4.788273203E-1,5.307233521E0
1.577448992E1,-5.653903779E0,4.223114083E0,7.997447348E-1,7.102176578E0
1.578445692E1,-6.511511976E0,5.491890882E0,9.801710987E-1,8.574461444E0
1.579442392E1,-6.947846410E0,6.570474129E0,9.431313264E-1,9.609016428E0
1.580439092E1,-7.212735804E0,7.341237724E0,8.511044113E-1,1.032674720E1
1.581435792E1,-7.360338823E0,7.859049016E0,7.885718751E-1,1.079634589E1
1.582432492E1,-7.401476909E0,8.165041997E0,7.667021191E-1,1.104706311E1
1.583429192E1,-7.311477735E0,8.297914125E0,7.743257189E-1,1.108659848E1
1.584425892E1,-7.335790458E0,8.255223019E0,8.407196101E-1,1.107561909E1
1.585422592E1,-7.195818055E0,8.099696438E0,8.963161790E-1,1.087144252E1
1.586419192E1,-6.943841652E0,8.073625458E0,9.095167800E-1,1.068773062E1
1.587415892E1,-6.443186676E0,8.089013575E0,8.550792754E-1,1.037679892E1
1.588412592E1,-6.163165272E0,8.160975843E0,7.032141479E-1,1.025088499E1
1.589409292E1,-5.641573171E0,8.096631913E0,8.632560217E-1,9.905958163E0
1.590405992E1,-5.609922777E0,7.995400237E0,1.187730955E0,9.839124115E0
1.591402692E1,-5.701969061E0,8.162865663E0,1.217322398E0,1.003128610E1
1.592399392E1,-5.573204602E0,8.310072241E0,1.200566836E0,1.007766198E1
1.593396092E1,-5.464701914E0,8.355738410E0,1.258118641E0,1.006301117E1
1.594392792E1,-5.532304498E0,8.533369220E0,1.322341973E0,1.025540694E1
1.595389492E1,-5.410758426E0,8.723013135E0,1.423683575E0,1.036311439E1
1.596386092E1,-5.247340443E0,8.984474307E0,1.528998946E0,1.051633007E1
1.597382792E1,-5.178880073E0,9.172178700E0,1.594856136E0,1.065332000E1
1.598379492E1,-5.113901135E0,9.225183710E0,1.611360487E0,1.067016785E1
1.599376192E1,-5.116127754E0,9.191835285E0,1.686093750E0,1.065399039E1
1.600372892E1,-5.200218317E0,9.063090706E0,1.770418786E0,1.059793689E1
1.601369592E1,-5.261771371E0,8.898799149E0,1.901183578E0,1.051139207E1
1.602366292E1,-5.179004034E0,8.663153434E0,1.983579179E0,1.028624793E1
1.603362992E1,-5.081813369E0,8.305703201E0,2.004621992E0,9.941229407E0
1.604359692E1,-4.980874640E0,7.866951528E0,1.992351025E0,9.521948389E0
1.605356392E1,-4.809288389E0,7.301615236E0,1.935997754E0,8.954938703E0
1.606352992E1,-4.467078339E0,6.533643687E0,1.975056131E0,8.157458883E0
1.607349692E1,-3.679232688E0,5.177895986E0,2.056865695E0,6.676680051E0
1.608346392E1,-1.598069181E0,2.247930483E0,2.419467909E0,3.668901951E0
1.609343092E1,8.927537629E-1,-2.493124700E0,3.053141195E0,4.041577811E0
1.610339792E1,2.424563173E0,-8.133749453E0,3.615637493E0,9.225465908E0
1.611336492E1,2.091211070E0,-1.360027277E1,4.235013167E0,1.439708025E1
1.612333192E1,1.046190841E0,-1.848884210E1,4.445053339E0,1.904442954E1
1.613329892E1,3.583256782E0,-2.232682815E1,3.634404132E0,2.290274826E1
1.614326592E1,7.175841043E0,-2.599540634E1,2.356281143E0,2.707038799E1
1.615323292E1,9.999759690E0,-2.791098225E1,1.958376364E0,2.971284843E1
1.616319892E1,1.266254077E1,-2.199083779E1,7.007677460E-1,2.538558569E1
1.617316592E1,1.355057027E1,-1.147444502E1,-7.942594618E-1,1.777390478E1
1.618313292E1,1.307512732E1,-4.839407689E0,-1.113772960E0,1.398639737E1
1.619309992E1,1.049258758E1,-2.634509205E0,-6.547969365E-1,1.083807141E1
1.620306692E1,9.453680618E0,-2.678615338E0,-4.508659351E-1,9.836174940E0
1.621303392E1,1.088502931E1,-3.161566699E0,-6.095441651E-1,1.135125152E1
1.622300092E1,1.165518012E1,-3.669812531E0,-2.379946579E0,1.244889125E1
1.623296792E1,1.126968371E1,-4.022838761E0,-6.113738759E0,1.343751481E1
1.624293492E1,7.707195656E0,-4.094442009E0,-8.336073639E0,1.206877972E1
1.625290192E1,4.601186861E0,-3.520108023E0,-7.598063807E0,9.554718972E0
1.626286792E1,3.214763498E0,-2.266612337E0,-6.444990542E0,7.550505872E0
1.627283492E1,1.694952282E0,-1.019174951E0,-4.804443094E0,5.195599509E0
1.628280192E1,5.787340164E-1,1.245825309E-1,-2.945270591E0,3.004175881E0
1.629276892E1,-4.757019836E-1,1.251283684E0,-1.613557870E0,2.096562004E0
1.630273592E1,-1.266404584E0,2.085372625E0,-7.437670735E-1,2.550636982E0
1.631270292E1,-2.018931298E0,2.658369353E0,4.235964216E-2,3.338383673E0
1.632266992E1,-2.560008661E0,3.190556610E0,5.499949515E-1,4.127443552E0
1.633263692E1,-2.633592362E0,3.774257836E0,8.140494362E-1,4.673703823E0
1.634260392E1,-2.799638668E0,4.455274272E0,8.278441874E-1,5.326609758E0
1.635257092E1,-2.945741876E0,5.034903497E0,7.827633242E-1,5.885606753E0
1.636253692E1,-3.047674633E0,5.361179885E0,6.114234602E-1,6.197129099E0
1.637250417E1,-3.241373007E0,5.453405094E0,4.181765644E-1,6.357750996E0
1.638247117E1,-3.332667924E0,5.418709470E0,3.244877243E-1,6.369802202E0
1.639243817E1,-3.331803120E0,5.368545038E0,2.900721093E-1,6.325055706E0
1.640240517E1,-3.269414499E0,5.207801571E0,2.194576979E-1,6.152920449E0
1.641237217E1,-3.196097431E0,4.955130519E0,1.432989200E-1,5.898210901E0
1.642233917E1,-2.888937346E0,4.664910402E0,5.128366269E-2,5.487255968E0
1.643230617E1,-2.570640069E0,4.250925779E0,5.824879289E-2,4.968093524E0
1.644227317E1,-2.330216594E0,3.849917883E0,1.085992034E-1,4.501507622E0
1.645224017E1,-2.137421615E0,3.404708544E0,2.501590884E-1,4.027802254E0
1.646220717E1,-1.973748109E0,2.846865460E0,4.097752118E-1,3.488300484E0
1.647217317E1,-1.826800563E0,2.262702888E0,5.394886744E-1,2.957714098E0
1.648214017E1,-1.799767715E0,1.621197258E0,7.277456295E-1,2.529240613E0
1.649210717E1,-1.869401037E0,8.993678409E-1,7.977262759E-1,2.222586323E0
