"Time (s)","Linear Acceleration x (m/s^2)","Linear Acceleration y (m/s^2)","Linear Acceleration z (m/s^2)","Absolute acceleration (m/s^2)"
-8.008338045E-5,-2.292316112E-1,-2.415744987E-1,-2.416215688E-1,4.114442277E-1
9.886916669E-3,-2.225622770E-1,-4.132165906E-1,2.173287266E-1,5.172172593E-1
1.985391666E-2,-2.760128447E-1,-4.268625301E-1,6.543373454E-1,8.285843781E-1
2.982091665E-2,-3.431730866E-1,-4.116343340E-1,8.489350212E-1,1.003942858E0
3.978791664E-2,-3.633503661E-1,-3.844272396E-1,8.161315566E-1,9.725628560E-1
4.975491663E-2,-3.129836199E-1,-2.369215769E-1,5.368053871E-1,6.650192505E-1
5.972191662E-2,-1.721350121E-1,-9.209540069E-2,8.311407745E-2,2.121791109E-1
6.968891667E-2,4.866345227E-3,2.561869830E-2,-3.775500369E-1,3.784495071E-1
7.965591666E-2,9.629370153E-2,1.819533643E-1,-7.134105957E-1,7.425188090E-1
8.962291665E-2,1.073730057E-1,3.586135367E-1,-9.539334726E-1,1.024754459E0
9.958991664E-2,1.224558985E-1,5.290844312E-1,-1.082357039E0,1.210959348E0
1.095569166E-1,2.089420652E-1,6.067927578E-1,-1.048326829E0,1.229163691E0
1.195239166E-1,3.120711619E-1,6.239563823E-1,-8.758018076E-1,1.119704775E0
1.294909166E-1,4.699936393E-1,4.692264846E-1,-5.180709082E-1,8.422974420E-1
1.394579167E-1,5.488336945E-1,2.080389628E-1,-1.563802743E-1,6.074153640E-1
1.494249167E-1,5.446660915E-1,-1.067906231E-2,-4.147371590E-2,5.463471998E-1
1.593919166E-1,4.701187697E-1,-8.928172052E-2,-1.420423168E-1,4.991581944E-1
1.693589166E-1,4.003003836E-1,-3.301718026E-2,-3.922692329E-1,5.614318145E-1
1.793259166E-1,4.485355273E-1,1.141347259E-1,-8.664357376E-1,9.823043023E-1
1.892929166E-1,5.417696732E-1,2.987462345E-1,-1.445686063E0,1.572504971E0
1.992589167E-1,6.874317089E-1,4.985248357E-1,-1.999667646E0,2.172500877E0
2.092259167E-1,7.504810658E-1,5.806422552E-1,-2.342811497E0,2.527673430E0
2.191929166E-1,8.088783780E-1,6.469982126E-1,-2.611839550E0,2.809732506E0
2.291599166E-1,1.002007233E0,7.057416800E-1,-2.901498919E0,3.149727892E0
2.391269166E-1,1.296316600E0,6.880927366E-1,-3.143319878E0,3.469058690E0
2.490937083E-1,1.671790291E0,5.602997920E-1,-3.216880774E0,3.668397545E0
2.590607083E-1,2.121772420E0,3.851492245E-1,-3.123069216E0,3.795236416E0
2.690277083E-1,2.607189844E0,1.273744301E-1,-2.416033255E0,3.556807532E0
2.789947083E-1,2.933494006E0,-5.096728447E-1,-8.115508479E-1,3.086060316E0
2.889617083E-1,3.003548327E0,-9.799696621E-1,6.325155365E-1,3.222067504E0
2.989287083E-1,2.812496988E0,-9.599642909E-1,1.391275383E0,3.281359160E0
3.088957083E-1,2.210109084E0,-6.322544584E-1,1.576799349E0,2.787583909E0
3.188627083E-1,1.601457350E0,-4.809005968E-2,1.008355263E0,1.893081782E0
3.288297083E-1,1.135796936E0,4.546648711E-1,1.115064025E-1,1.228490335E0
3.387967083E-1,5.468013485E-1,7.945909989E-1,-5.236093909E-1,1.097512353E0
3.487637083E-1,-3.590979785E-2,1.226443689E0,-9.772311187E-1,1.568577156E0
3.587307083E-1,-4.568338957E-1,1.609079926E0,-1.447702768E0,2.212166070E0
3.686977083E-1,-5.034318191E-1,1.828000119E0,-1.851326124E0,2.649988009E0
3.786647083E-1,5.274480879E-3,2.000944093E0,-2.174977112E0,2.955390080E0
3.886317083E-1,4.949385922E-1,2.139790468E0,-2.241229573E0,3.137957530E0
3.985977083E-1,9.119000320E-1,1.984657844E0,-1.178151389E0,2.481626305E0
4.085647083E-1,1.591647476E0,1.067514321E0,1.946384309E0,2.731545422E0
4.185317083E-1,2.190232497E0,-1.015305410E-1,5.716488867E0,6.122554354E0
4.284987083E-1,1.805381919E0,-1.237521678E0,8.322229187E0,8.605252025E0
4.384657083E-1,6.706859411E-1,-2.221764631E0,9.290183113E0,9.575675432E0
4.484327083E-1,-8.828354964E-1,-2.377392807E0,8.671617279E0,9.034840414E0
4.583997083E-1,-2.620482904E0,-2.187851657E0,7.060842099E0,7.842774807E0
4.683667083E-1,-3.752189274E0,-2.068816234E0,5.031096375E0,6.608392822E0
4.783337083E-1,-4.290068503E0,-2.133871332E0,3.241494629E0,5.784927143E0
4.883007083E-1,-4.372427997E0,-2.364544867E0,1.976657683E0,5.349427503E0
4.982677083E-1,-4.387774599E0,-2.471110226E0,1.008561085E0,5.135771329E0
5.082347083E-1,-4.340609204E0,-2.374492881E0,2.564273036E-1,4.954276906E0
5.182017083E-1,-4.219816253E0,-2.167609035E0,-2.394224310E-1,4.750021183E0
5.281687083E-1,-3.937641613E0,-1.801802254E0,-6.669953978E-1,4.381369157E0
5.381357083E-1,-3.500653751E0,-1.286749971E0,-1.155207499E0,3.904459827E0
5.481027083E-1,-3.083312535E0,-6.458558129E-1,-1.664674814E0,3.563016721E0
5.580697083E-1,-2.591363478E0,-5.293537321E-2,-2.227990308E0,3.417880577E0
5.680367083E-1,-1.976184644E0,4.638868073E-1,-2.771382583E0,3.435266822E0
5.780037083E-1,-1.252472277E0,1.128248034E0,-3.288738377E0,3.695596101E0
5.879707083E-1,-3.227875002E-1,1.775946159E0,-3.856189606E0,4.257742924E0
5.979377083E-1,6.720402293E-1,2.149030823E0,-4.512952377E0,5.043482002E0
6.079037083E-1,1.505429404E0,2.253823307E0,-5.168043428E0,5.835641358E0
6.178707083E-1,2.029738561E0,2.267986871E0,-5.554898139E0,6.334074235E0
6.278377083E-1,2.141506772E0,2.346490857E0,-5.629952999E0,6.464397990E0
6.378047083E-1,1.814923114E0,2.537751819E0,-5.315856947E0,6.163802826E0
6.477717083E-1,1.232833088E0,2.658293340E0,-5.036156555E0,5.826600531E0
6.577387083E-1,5.584598560E-1,2.711300104E0,-5.150109433E0,5.846935337E0
6.677057083E-1,3.065086873E-1,2.596189185E0,-5.867408427E0,6.423443587E0
6.776727083E-1,4.340399142E-1,2.350516227E0,-7.133483228E0,7.523290513E0
6.876397083E-1,3.070307158E-1,1.674158998E0,-8.393692102E0,8.564528202E0
6.976067083E-1,-3.045960083E-1,1.063788621E0,-9.059637925E0,9.126963586E0
7.075737083E-1,-6.542516837E-1,1.115792076E0,-9.033040695E0,9.125177337E0
7.175407083E-1,-8.590042189E-1,7.703747553E-1,-8.696186110E0,8.772400947E0
7.275077083E-1,-1.033686424E0,-5.380176611E-1,-7.719991118E0,7.807447309E0
7.374747083E-1,-7.611186129E-1,-1.477177705E0,-6.557258252E0,6.764539252E0
7.474417083E-1,-1.439621331E0,-2.910180573E0,-3.777217696E0,4.980866799E0
7.574087083E-1,2.175965291E-1,-6.008787085E0,1.858145147E0,6.293295946E0
7.673757083E-1,3.111237375E0,-7.218704057E0,8.997582595E0,1.194763486E1
7.773427083E-1,1.120319502E1,-8.746100281E0,1.921999665E1,2.390426992E1
7.873097083E-1,1.935635840E1,-8.425244263E0,2.485329777E1,3.260889084E1
7.972767083E-1,1.915299458E1,-8.627157390E0,2.150947394E1,3.006530418E1
8.072427083E-1,8.791998585E0,-7.382777513E0,1.353482372E1,1.774812937E1
8.172097083E-1,4.638321358E-1,-3.805316783E0,7.243031983E0,8.194942854E0
8.271767083E-1,-1.033053609E0,-1.109367521E0,1.949785634E0,2.469728746E0
8.371437083E-1,-5.859548892E-1,-5.490773772E-1,-1.546310213E0,1.742384680E0
8.471107083E-1,7.738902475E-1,-4.363477372E-2,-2.713730206E0,2.822258270E0
8.570777083E-1,6.253714085E-1,1.235063508E0,-4.453980868E0,4.664163037E0
8.670447083E-1,-5.706648588E-2,1.186489153E0,-4.703922440E0,4.851587309E0
8.770117083E-1,-6.202192806E-1,1.460533606E0,-4.352572607E0,4.632787354E0
8.869787083E-1,-1.388467988E0,1.691560020E0,-3.387584388E0,4.032982351E0
8.969457083E-1,-2.118091597E0,1.679869389E0,-2.567584898E0,3.728373022E0
9.069127083E-1,-2.124376623E0,1.772824330E0,-1.614620894E0,3.203573438E0
9.168797083E-1,-1.946303617E0,1.391687611E0,-3.457528782E-1,2.417527090E0
9.268467083E-1,-1.082858000E0,4.657813782E-1,1.014859121E0,1.555465453E0
9.368137083E-1,9.590252280E-2,-4.338107765E-2,2.511970861E0,2.514175176E0
9.467807083E-1,3.229257868E-1,-3.792665602E-1,3.200612066E0,3.239142138E0
9.567477083E-1,1.402014671E-1,-6.012412651E-1,2.163634683E0,2.249991678E0
9.667147083E-1,2.954027966E-1,-4.149152798E-1,3.700544912E-1,6.295695578E-1
9.766817083E-1,2.022377940E-1,-9.792785212E-2,-6.886938304E-1,7.244233441E-1
9.866487083E-1,4.662189692E-2,1.888614842E-1,-1.135489519E0,1.152032425E0
9.966147083E-1,-8.132307529E-2,1.650902136E-1,-1.224995188E0,1.238741874E0
1.006581708E0,1.644602492E-1,-6.522569060E-4,-7.929146022E-1,8.097908158E-1
1.016548708E0,5.551054180E-2,8.749451905E-2,2.497211319E-1,2.703652249E-1
1.026515708E0,-2.846279861E-1,-7.908432260E-2,1.006532686E0,1.048987830E0
1.036482708E0,-2.253242093E-1,-1.184895860E-1,1.066781811E0,1.096737988E0
1.046449708E0,3.170060657E-1,2.733924150E-2,5.109758967E-1,6.019440562E-1
1.056416708E0,3.770286115E-1,1.018699718E-1,9.796249688E-2,4.026471356E-1
1.066383708E0,1.617047489E-2,-2.022763856E-2,-4.793664336E-2,5.448452438E-2
1.076350708E0,-2.273067078E-1,-6.809192263E-2,-8.233347416E-2,2.511645881E-1
1.086317708E0,-2.098725034E-1,1.053760354E-1,-1.895392495E-1,3.017875141E-1
1.096284708E0,-1.823674934E-1,7.270617977E-2,-3.031243372E-1,3.611487990E-1
1.106251708E0,-1.800221752E-1,2.325218394E-3,-4.619896781E-1,4.958304679E-1
1.116218708E0,-1.204735462E-1,2.545841150E-2,-5.530822814E-1,5.666233458E-1
1.126185708E0,-2.010377991E-1,4.688027076E-2,-7.248021412E-1,7.536259685E-1
1.136152708E0,-1.776736410E-1,-2.822670266E-3,-7.301377255E-1,7.514499240E-1
1.146119708E0,1.602484998E-1,1.134409538E-1,4.843833447E-3,1.963972872E-1
1.156086708E0,2.078752407E-1,5.892407320E-2,1.092213106E0,1.113379374E0
1.166053708E0,3.790135950E-2,-2.697764969E-1,1.337042457E0,1.364513981E0
1.176020708E0,3.227794603E-2,-3.728498257E-1,6.463032711E-1,7.468378515E-1
1.185986708E0,2.354204504E-1,-2.834686294E-2,-4.778578520E-2,2.418880203E-1
1.195953708E0,3.880127522E-1,3.512104500E-1,-2.860902286E-1,5.964480656E-1
1.205920708E0,-9.195711404E-2,3.291678357E-1,-4.117591721E-1,5.351197910E-1
1.215887708E0,-1.944327843E-1,3.633084854E-1,-4.933722693E-1,6.428167385E-1
1.225854708E0,-4.138264552E-2,3.976401928E-1,-3.244421160E-1,5.148717636E-1
1.235821708E0,7.340053663E-2,3.388457816E-1,1.438327342E-1,3.753557751E-1
1.245789458E0,-1.794013470E-2,1.876028710E-1,4.113071823E-1,4.524271034E-1
1.255756458E0,-1.690634698E-1,-2.928433972E-1,1.932387829E-1,3.894623721E-1
1.265723458E0,-4.815299034E-2,-5.984509007E-1,1.364377606E-1,6.156926616E-1
1.275690458E0,-1.080756949E-1,-5.575670227E-1,4.343949133E-1,7.150246718E-1
1.285657458E0,-4.652364908E-1,-3.602441058E-1,3.206841105E-1,6.701187260E-1
1.295624458E0,-4.056823070E-1,-4.683458939E-2,-4.013698393E-1,5.725987783E-1
1.305591458E0,-5.642460778E-2,2.455649310E-1,-6.372950506E-1,6.852961792E-1
1.315558458E0,-1.932191947E-1,1.984984995E-1,-3.611503512E-1,4.551536968E-1
1.325525458E0,2.626452327E-2,2.854466694E-1,8.650312364E-2,2.994201340E-1
1.335492458E0,1.461115403E-1,1.721273377E-1,5.406347287E-1,5.858859210E-1
1.345459458E0,2.155811401E-1,3.073603526E-2,7.251231533E-1,7.571152616E-1
1.355426458E0,4.547882473E-1,-1.437189328E-1,5.772166640E-1,7.487767082E-1
1.365392458E0,4.205821820E-1,-1.773684163E-1,1.815309030E-1,4.912254021E-1
1.375359458E0,1.961429487E-1,7.076936267E-2,-2.702618158E-1,3.413529084E-1
1.385326458E0,-1.058863512E-1,-5.140872002E-2,-2.349294305E-1,2.627672224E-1
1.395293458E0,-2.938648327E-1,-2.010521248E-2,7.871170878E-2,3.048873440E-1
1.405260458E0,-1.153578173E-1,1.414668046E-1,-3.122997880E-3,1.825651553E-1
1.415227458E0,1.180029514E-1,2.129262849E-1,-2.299101806E-1,3.348447259E-1
1.425194458E0,1.018548422E-1,7.417309999E-2,-1.189113164E-1,1.732511437E-1
1.435161458E0,6.151607081E-2,-7.909309343E-2,2.837156743E-1,3.008895615E-1
1.445128458E0,-6.351084843E-2,-1.391491145E-1,4.613815677E-1,4.860751536E-1
1.455095458E0,-2.333658850E-1,-2.644903216E-1,-4.490486205E-2,3.555716709E-1
1.465062458E0,-3.012545438E-1,-2.132530712E-1,-4.507039672E-1,5.825506318E-1
1.475029458E0,-2.589492077E-1,-9.368832842E-2,-6.919606698E-1,7.447427499E-1
1.484996458E0,1.052813105E-1,-1.785774013E-1,-4.195552647E-1,4.679750664E-1
1.494963458E0,4.608963950E-1,-2.840483078E-1,3.002369821E-1,6.190728338E-1
1.504930458E0,2.158172214E-1,-8.686755136E-2,6.688887262E-1,7.081914802E-1
1.514897458E0,-1.270563416E-1,-7.557964772E-3,5.315142417E-1,5.465416964E-1
1.524864458E0,-3.003746840E-1,-4.575709373E-2,1.490730089E-1,3.384396910E-1
1.534831458E0,-1.260345407E-1,1.520002712E-1,-7.882339060E-2,2.126074195E-1
1.544798458E0,1.683325678E-1,3.989534044E-1,1.240194440E-3,4.330140994E-1
1.554764458E0,2.440285751E-1,4.126237560E-1,-1.165408552E-1,4.933458021E-1
1.564731458E0,9.164531127E-2,1.564692251E-1,-5.735019279E-1,6.014864443E-1
1.574698458E0,-4.343457967E-2,4.150667958E-2,-5.946325958E-1,5.976598457E-1
1.584665458E0,-2.838108377E-1,-4.577200413E-2,-1.008878589E-1,3.046670774E-1
1.594632458E0,-3.155208729E-1,9.105233051E-2,4.611178583E-1,5.661039016E-1
1.604599458E0,-3.513007164E-3,3.580191672E-2,6.253380793E-1,6.263719597E-1
1.614566458E0,3.425237533E-1,-6.259027742E-2,3.497050112E-1,4.934912961E-1
1.624533458E0,-5.904591456E-2,-2.054945469E-2,-1.805620193E-2,6.507477655E-2
1.634500458E0,-2.269821873E-1,2.922957323E-2,-3.412247944E-1,4.108645052E-1
1.644467458E0,-1.647299521E-1,6.638241604E-2,-3.737575328E-1,4.138082595E-1
1.654434458E0,-1.144051597E-2,-4.921842612E-2,-1.561721134E-1,1.641434369E-1
1.664401458E0,1.375674427E-2,-3.986503724E-1,1.229915035E-1,4.174185877E-1
1.674368458E0,-1.742952660E-2,-3.429153706E-1,5.536167169E-1,6.514493142E-1
1.684335458E0,-1.516292654E-1,5.086836420E-2,7.354592764E-1,7.526482392E-1
1.694302458E0,-1.415368250E-1,2.095038365E-1,2.301417303E-1,3.418914248E-1
1.704269458E0,-2.582276613E-2,1.782729806E-1,-3.139972347E-1,3.619976993E-1
1.714236458E0,4.478557885E-2,2.199677213E-1,-4.246259701E-1,4.803111085E-1
1.724202458E0,1.985717359E-1,1.113281355E-1,-3.860320079E-1,4.481577838E-1
1.734169458E0,1.323214670E-1,-1.726606768E-1,-5.212792754E-2,2.236917539E-1
1.744136458E0,1.470810087E-1,-1.420558385E-1,4.259614742E-1,4.724995893E-1
1.754103458E0,8.770969659E-2,-2.718234609E-1,5.318334997E-1,6.036786034E-1
1.764070458E0,-6.553676248E-2,-1.267640539E-1,1.246088433E-1,1.894506702E-1
1.774037458E0,9.619298324E-2,3.044653961E-1,-2.570798528E-1,4.099296503E-1
1.784004458E0,-2.781445934E-1,3.789834818E-1,-5.278708416E-1,7.068525446E-1
1.793971458E0,-1.460444435E-1,1.928169063E-1,-6.666042191E-1,7.091322329E-1
1.803938458E0,4.965280116E-2,1.513230175E-1,-2.531452614E-1,2.990762104E-1
1.813905458E0,3.288693354E-2,1.693537109E-1,1.826664323E-1,2.512553587E-1
1.823872458E0,2.245414133E-1,2.290120482E-2,2.391218841E-1,3.288199917E-1
1.833839458E0,3.175046870E-1,-1.388552919E-1,1.861718380E-1,3.933827292E-1
1.843806458E0,1.058268557E-1,-2.707200913E-1,2.834700912E-1,4.060098322E-1
1.853773458E0,-2.319005728E-2,-3.475568904E-1,3.507674503E-1,4.943393319E-1
1.863740458E0,-3.587983087E-2,-1.520452948E-1,3.369908255E-1,3.714403726E-1
1.873707458E0,-1.978710933E-1,1.613752583E-1,2.987278157E-1,3.929799632E-1
1.883674458E0,-2.302898110E-1,1.800980428E-1,5.977374673E-2,2.983983962E-1
1.893641458E0,-1.903303778E-1,7.759883747E-2,-1.776524448E-1,2.716755849E-1
1.903607458E0,-2.098268951E-1,-1.058041978E-1,-5.667413771E-2,2.417308670E-1
1.913574458E0,-2.680758342E-2,-2.300557762E-1,1.892229152E-1,2.990812905E-1
1.923541458E0,2.724469203E-1,-3.465605979E-1,2.766849822E-1,5.204672437E-1
1.933508458E0,-2.573967719E-1,-5.705154625E-1,-7.340419114E-2,6.301818518E-1
1.943475458E0,2.229267047E-1,-6.400142983E-3,-6.306765872E-1,6.689471094E-1
1.953442458E0,5.019529121E-1,3.976499138E-1,-3.095159286E-1,7.112540263E-1
1.963409458E0,-1.757819206E-3,3.029867084E-1,5.846250862E-1,6.584759121E-1
1.973376458E0,-1.719936557E-1,3.114817625E-1,6.547396338E-1,7.451756129E-1
1.983343458E0,-3.289058805E-4,4.071194796E-1,-9.005881548E-3,4.072192097E-1
1.993310458E0,-1.001439469E-1,1.584986474E-1,-4.903036505E-1,5.249269483E-1
2.003277458E0,-2.707345632E-1,-6.056567900E-2,-4.945235860E-1,5.670264388E-1
2.013244458E0,-7.558359459E-2,-1.454679812E-1,-1.995841813E-1,2.582782584E-1
2.023211458E0,3.641105041E-2,-1.128683652E-1,2.157084632E-1,2.461608692E-1
2.033178458E0,7.342582583E-2,1.522169106E-2,4.763159412E-1,4.821824630E-1
2.043145458E0,2.084605470E-2,-9.239148907E-2,3.516345924E-1,3.641670384E-1
2.053112458E0,-1.645304158E-2,-6.872320265E-2,8.500682116E-2,1.105429365E-1
2.063079458E0,-2.501131877E-2,-3.168255329E-2,-6.620802283E-2,7.754258531E-2
2.073045458E0,1.205719256E-1,-1.861689144E-1,-1.830687207E-1,2.875945244E-1
2.083012458E0,2.466846728E-1,-1.623959628E-1,5.093392611E-2,2.996999189E-1
2.092979458E0,3.178868026E-2,-2.801870989E-1,2.212212181E-1,3.584050194E-1
2.102946458E0,1.951541846E-1,5.829652078E-2,1.540478200E-1,2.553710456E-1
2.112913458E0,2.095741493E-1,-1.687067896E-3,1.394379669E-1,2.517282600E-1
2.122880458E0,2.046398301E-1,-6.388302371E-2,1.906145525E-1,2.868665342E-1
2.132847458E0,1.328385070E-2,4.347784907E-2,4.261012226E-1,4.285195865E-1
2.142814458E0,-4.414066020E-1,1.897664139E-1,2.302662760E-1,5.327979335E-1
2.152781458E0,-3.267640454E-1,4.578690722E-1,-1.502997547E-1,5.822446607E-1
2.162748458E0,-3.204098761E-2,3.328731432E-1,-1.470235598E-1,3.653040945E-1
2.172715458E0,2.212036765E-1,-1.019254473E-1,1.312664831E-1,2.766780672E-1
2.182682458E0,5.319030815E-1,-5.101624028E-1,5.037896687E-1,8.927432978E-1
2.192649458E0,8.260303080E-1,-7.915851646E-1,6.668544799E-1,1.324246216E0
2.202616458E0,9.168679726E-1,-7.691710328E-1,5.244139677E-1,1.306629621E0
2.212583458E0,1.231915660E0,-6.114323772E-1,3.996899343E-1,1.432207313E0
2.222550458E0,9.792004609E-1,-6.834480739E-1,4.395018715E-1,1.272437310E0
2.232517458E0,5.888472144E-1,-7.515134648E-1,3.656462753E-1,1.022355480E0
2.242482917E0,7.324733958E-2,-7.816440940E-1,3.300776625E-1,8.516360289E-1
2.252449917E0,-8.317560478E-1,-5.278951807E-1,-2.255206758E-1,1.010619127E0
2.262416917E0,-1.664311995E-1,4.296015121E-2,-3.587892455E-1,3.978374560E-1
2.272383917E0,6.458607830E-1,6.288048204E-2,9.047630668E-2,6.551916270E-1
2.282350917E0,4.644494556E-1,4.094143655E-2,1.077214998E-1,4.785325689E-1
2.292317917E0,-6.793762922E-1,-3.174653279E-1,-5.283058745E-1,9.173022827E-1
2.302284917E0,-5.992863947E-1,1.600959240E-1,-7.502872306E-1,9.735018316E-1
2.312251917E0,-2.707984440E-1,5.743685583E-1,-3.346835142E-1,7.178050520E-1
2.322218917E0,-7.219229722E-1,3.826041143E-1,-2.513940203E-1,8.548436345E-1
2.332185917E0,-6.680120824E-1,3.951947776E-1,-2.342037910E-1,8.107221905E-1
2.342152917E0,-3.582378531E-1,3.729674278E-1,-1.031232494E-1,5.273267167E-1
2.352119917E0,-2.122610910E-1,1.820998005E-1,2.855897069E-2,2.811240348E-1
2.362086917E0,-1.057768621E-1,7.974827394E-2,-2.007816911E-2,1.339838222E-1
2.372053917E0,3.410447001E-2,2.897637052E-2,-3.595511377E-2,5.740657741E-2
2.382020917E0,9.586714715E-2,1.912286198E-1,-2.205774397E-1,3.072674760E-1
2.391987917E0,-5.898896268E-1,5.159175979E-1,-9.068639714E-1,1.198558719E0
2.401954917E0,4.515417270E-1,1.421490870E0,-6.184705245E-1,1.614630612E0
2.411920917E0,3.115981221E-3,9.644404075E-1,-1.565679699E-1,9.770714090E-1
2.421887917E0,-1.323031652E0,3.165029493E-1,-5.696585530E-1,1.474821255E0
2.431854917E0,-9.099612415E-2,3.097830733E-1,8.254923642E-2,3.332569932E-1
2.441821917E0,-2.040068690E-1,-6.029261403E-1,5.419281328E-1,8.359574357E-1
2.451788917E0,-3.936807507E-1,-9.199515749E-1,5.587347847E-1,1.146071548E0
2.461755917E0,-2.209630635E-1,-4.191415377E-1,3.608942431E-1,5.956080580E-1
2.471722917E0,-3.093829045E-1,1.029787684E-1,6.141096711E-2,3.318037299E-1
2.481689917E0,-4.918366443E-1,2.067176930E-1,-1.593138224E-1,5.567911487E-1
2.491656917E0,-6.873058476E-1,-3.203976335E-2,-3.684061611E-1,7.804735575E-1
2.501623917E0,-1.170902011E-1,-1.688437972E-1,-2.252674913E-1,3.048996322E-1
2.511590917E0,4.225395374E-1,-3.163875399E-1,1.397654110E-1,5.460541239E-1
2.521557917E0,6.313437545E-1,-4.796460402E-1,6.335387993E-1,1.014902296E0
2.531524917E0,-2.375972226E-2,-6.617823127E-1,5.742532951E-1,8.765199374E-1
2.541491917E0,-5.638927598E-1,-3.530547349E-1,-4.028041613E-1,7.777363839E-1
2.551458917E0,1.971476465E-1,1.489674118E-1,-7.941378397E-1,8.316930881E-1
2.561425917E0,1.299273245E-1,3.745668240E-1,-9.961544627E-1,1.072149770E0
2.571392917E0,-2.683009520E-2,5.676630445E-1,-9.023943597E-1,1.066431792E0
2.581358917E0,-2.563447116E-1,5.734527382E-1,-7.024143219E-1,9.423091497E-1
2.591325917E0,-1.025046140E-1,4.300623092E-1,-3.072781992E-1,5.384056811E-1
2.601292917E0,-1.334831625E-1,-6.648257884E-1,-6.355730456E-1,9.293891434E-1
2.611259917E0,6.635146965E-1,-1.293230513E-1,-2.470992404E-1,7.197459543E-1
2.621226917E0,8.550099859E-1,1.046827749E-1,6.362425518E-1,1.070889884E0
2.631193917E0,4.622425702E-1,8.350635253E-2,1.213536399E0,1.301273260E0
2.641160917E0,-1.830302753E-1,-9.797163315E-2,1.258734791E0,1.275739706E0
2.651127917E0,-9.494531898E-1,-3.278487770E-1,1.188571127E0,1.556164356E0
2.661094917E0,-9.038640574E-1,-3.093205585E-1,9.080147034E-1,1.318006124E0
2.671061917E0,-1.959643163E-1,8.814655669E-2,7.319819373E-1,7.628691796E-1
2.681028917E0,3.299522397E-1,1.583684738E-1,6.861403513E-1,7.776487868E-1
2.690995917E0,3.915120184E-1,1.438727146E-1,3.745474917E-1,5.605950786E-1
2.700962917E0,1.002091433E-1,6.714134809E-2,-2.249996889E-1,2.552933470E-1
2.710929917E0,-1.252783495E-1,8.751162216E-2,-5.762770164E-1,5.961947236E-1
2.720896917E0,-5.277550668E-2,2.771991352E-1,-4.611073333E-1,5.405965108E-1
2.730863917E0,-2.157809687E-1,2.546528563E-1,-1.538566160E-1,3.675341644E-1
2.740829917E0,-5.530346265E-1,2.045427298E-1,-1.601809645E-1,6.110179767E-1
2.750796917E0,1.817338014E-1,1.707113979E-1,-7.867311716E-2,2.614555704E-1
2.760763917E0,5.777022752E-1,-1.232035381E-1,5.183293551E-1,7.858653517E-1
2.770730917E0,-1.101178350E-1,-3.666458203E-1,5.952471381E-1,7.077246997E-1
2.780697917E0,5.759978119E-1,5.469964262E-2,5.560649461E-1,8.024797533E-1
2.790664917E0,5.111608149E-1,-4.743887355E-1,7.455176568E-1,1.020846035E0
2.800631917E0,-5.104085706E-1,-8.168115878E-1,2.526032245E-1,9.957441780E-1
2.810598917E0,6.912578344E-3,-2.202076033E-1,-1.726735407E-1,2.799202100E-1
2.820565917E0,-1.471166767E-1,-9.691208113E-2,-4.470839560E-1,4.805406661E-1
2.830532917E0,5.713779268E-1,1.788919084E-3,-1.933089495E-1,6.031950641E-1
2.840499917E0,1.888210653E-1,-2.891787644E-1,-1.117356133E-1,3.629911841E-1
2.850466917E0,-2.416946590E-3,-3.693875431E-1,-9.117037117E-2,3.804800063E-1
2.860433917E0,-1.141337027E-1,-7.184123770E-1,-4.665271175E-1,8.641703518E-1
2.870400917E0,-2.618545429E-1,-8.355425584E-1,-7.811593598E-1,1.173417707E0
2.880367917E0,6.969446902E-1,-6.444116237E-1,-3.414885038E-1,1.008767882E0
2.890334917E0,1.282899287E0,-9.177001776E-1,4.931559223E-1,1.652636367E0
2.900301917E0,1.192754517E0,-1.360839602E0,1.144543932E0,2.141151226E0
2.910267917E0,1.047921471E0,-1.606407749E0,1.514408973E0,2.443792095E0
2.920234917E0,5.905793059E-1,-1.737907828E0,1.360502071E0,2.284748000E0
2.930201917E0,1.046327666E0,-1.852122222E0,1.296370980E0,2.491131476E0
2.940168917E0,8.454019873E-1,-1.983083919E0,1.077486309E0,2.410042136E0
2.950135917E0,8.029117329E-1,-1.755015612E0,3.253291386E-1,1.957188314E0
2.960102917E0,8.378089392E-1,-1.934928444E0,-5.580459827E-1,2.181120634E0
2.970069917E0,8.050474285E-1,-1.896781940E0,-1.505711240E0,2.552067677E0
2.980036917E0,5.670717448E-1,-1.816052211E0,-2.172378609E0,2.887705805E0
2.990003917E0,1.726622848E-1,-1.537072197E0,-2.373533353E0,2.833030847E0
2.999970917E0,-4.125602406E-1,-1.139867110E0,-2.276264920E0,2.578930974E0
3.009937917E0,-7.165474807E-1,-7.484924278E-1,-1.797773230E0,2.075010794E0
3.019904917E0,-7.162668143E-1,-7.740976044E-1,-1.257337891E0,1.641086172E0
3.029871917E0,-4.634639074E-1,-9.562916547E-1,-9.885524976E-1,1.451388495E0
3.039838917E0,-2.937122203E-1,-7.681061818E-1,-6.345977300E-1,1.038733967E0
3.049805917E0,-1.604509597E-1,-2.251086298E-1,-2.098606628E-1,3.470733402E-1
3.059772917E0,-5.349636604E-1,3.852698965E-1,2.614231646E-2,6.597745310E-1
3.069738917E0,-9.728506771E-1,1.043517056E0,3.914020908E-1,1.479378884E0
3.079705917E0,-1.036291213E0,1.522234156E0,1.085622709E0,2.137679342E0
3.089672917E0,-8.485534903E-1,1.821038570E0,1.825583757E0,2.714586627E0
3.099639917E0,-6.598486385E-1,1.709407330E0,2.473879759E0,3.078563741E0
3.109606917E0,-8.882622242E-2,1.192073902E0,2.805224513E0,3.049297436E0
3.119573917E0,3.436705385E-1,7.028293280E-1,2.194629604E0,2.329909355E0
3.129540917E0,5.210893871E-1,6.024327084E-1,1.289641419E0,1.515794942E0
3.139507917E0,4.463089076E-1,8.314103311E-1,2.159131157E-1,9.680151100E-1
3.149474917E0,2.017135911E-1,1.141069297E0,-4.343241620E-1,1.237483330E0
3.159441917E0,2.822348669E-2,1.144851642E0,-5.347471672E-1,1.263897298E0
3.169408917E0,-2.025051579E-2,1.172764057E0,-5.314879292E-1,1.287736400E0
3.179375917E0,1.892470349E-1,1.444647013E0,-5.443266606E-1,1.555349139E0
3.189342917E0,6.375003610E-1,2.098743161E0,-7.429437125E-1,2.315835686E0
3.199309917E0,7.646324971E-1,3.083843462E0,-1.343064505E0,3.449431202E0
3.209276917E0,1.748269241E-1,3.589986928E0,-2.626801990E0,4.451815280E0
3.219243917E0,-2.555598691E-1,3.543071208E0,-3.402087237E0,4.918623995E0
3.229209917E0,4.174317022E-1,3.573801250E0,-2.671023898E0,4.481146423E0
3.239176917E0,1.791119391E0,3.678431327E0,-5.678003079E-1,4.130540266E0
3.249144083E0,2.219405572E0,3.021073895E0,2.008872333E0,4.253024409E0
3.259111083E0,1.499176392E0,1.484951286E0,3.203555555E0,3.836062873E0
3.269078083E0,5.097713703E-1,2.706013015E-1,3.230504787E0,3.281654018E0
3.279045083E0,-1.886680144E-1,-7.040945924E-1,3.112691578E0,3.196903763E0
3.289012083E0,-7.698099142E-1,-1.378614407E0,3.629052760E0,3.957677213E0
3.298979083E0,-1.319463388E0,-1.427583814E0,3.840509713E0,4.304473723E0
3.308946083E0,-2.134350950E0,-1.353580430E0,3.532840919E0,4.343800055E0
3.318913083E0,-2.811826897E0,-1.561832231E0,3.097202888E0,4.465238644E0
3.328880083E0,-2.559843185E0,-2.007678039E0,2.600869004E0,4.165103578E0
3.338847083E0,-2.049744955E0,-1.717869420E0,1.603334014E0,3.118206165E0
3.348814083E0,-1.126956677E0,-8.734934731E-1,-1.675484562E-1,1.435651310E0
3.358781083E0,-6.667521536E-1,-1.076400481E0,-1.854130449E0,2.245216281E0
3.368748083E0,-1.423361979E0,-4.354975520E-1,-1.722141834E0,2.276266667E0
3.378715083E0,-6.364939821E-1,5.085684519E-1,-1.231659844E0,1.476737089E0
3.388681083E0,9.271766138E-1,1.798837277E0,-1.838101476E-1,2.032057625E0
3.398648083E0,1.907182821E0,2.765755223E0,8.888428527E-1,3.475167605E0
3.408615083E0,1.782379265E0,2.501297646E0,9.538714921E-1,3.216090263E0
3.418582083E0,8.665737319E-1,1.439074324E0,1.142659374E0,2.031638597E0
3.428549083E0,8.958057171E-1,7.714842644E-1,2.041384606E0,2.359005503E0
3.438516083E0,1.322656553E0,2.817308369E-1,2.639653001E0,2.965899625E0
3.448483083E0,1.644900700E0,1.736359924E-1,2.846463171E0,3.292142214E0
3.458450083E0,1.107101287E0,3.358395088E-1,2.267579466E0,2.545658671E0
3.468417083E0,-2.956089109E-1,5.592013925E-2,1.571283671E0,1.599826261E0
3.478384083E0,-1.463635261E0,-5.404961497E-2,8.346701539E-1,1.685770982E0
3.488351083E0,-1.755157553E0,5.106724262E-2,2.233519435E-2,1.756042357E0
3.498318083E0,-1.839629354E0,2.162589785E-1,-5.456206495E-1,1.930985758E0
3.508285083E0,-2.670932096E0,5.654856876E-1,-1.400536203E0,3.068412290E0
3.518252083E0,-2.619664879E0,8.388927206E-1,-1.986482760E0,3.393007343E0
3.528219083E0,-2.830799650E0,5.445681506E-1,-2.306132205E0,3.691642843E0
3.538186083E0,-2.951820057E0,5.338186294E-1,-2.683895666E0,4.025108685E0
3.548152083E0,-2.700955210E0,9.565693974E-1,-2.951735272E0,4.113748312E0
3.558119083E0,-2.113997084E0,1.451763074E0,-2.938010103E0,3.899808080E0
3.568086083E0,-1.433825571E0,1.872913460E0,-2.741579910E0,3.616617342E0
3.578053083E0,-1.255076773E0,1.591101639E0,-2.262573080E0,3.037442851E0
3.588020083E0,-7.844571894E-1,7.651379889E-1,-1.352400169E0,1.740630760E0
3.597987083E0,5.088247061E-2,1.689348310E-1,-5.301027238E-1,5.586921342E-1
3.607954083E0,3.137113059E-1,-3.767220712E-1,-3.739405507E-1,6.165758978E-1
3.617921083E0,-3.890281212E-1,-7.170370388E-1,-9.602057809E-1,1.259952434E0
3.627888083E0,-1.171951586E0,-9.113470316E-1,-1.796366390E0,2.330441190E0
3.637855083E0,-1.410684046E0,-1.122467185E0,-2.428884265E0,3.024804263E0
3.647822083E0,-1.350262427E0,-1.518573945E0,-2.804374328E0,3.463205282E0
3.657789083E0,-8.738845056E-1,-1.897475274E0,-2.826622399E0,3.514808776E0
3.667756083E0,8.526702225E-2,-1.991290340E0,-2.416246678E0,3.132212588E0
3.677723083E0,7.634148145E-1,-1.913165107E0,-1.778070452E0,2.721127972E0
3.687690083E0,1.082569293E0,-1.705232564E0,-9.878999484E-1,2.248492980E0
3.697656083E0,9.132672572E-1,-1.783791660E0,-8.633063078E-2,2.005847140E0
3.707623083E0,-3.660532415E-2,-2.398831623E0,5.805349588E-1,2.468350450E0
3.717590083E0,-1.776082984E0,-2.453138516E0,1.148048168E-1,3.030765496E0
3.727557083E0,-2.375235477E0,-1.571754079E0,-8.655984163E-1,2.976812906E0
3.737524083E0,-7.258786136E-1,-2.113075563E-1,-9.867468774E-1,1.243068801E0
3.747491083E0,1.310003763E0,7.242817390E-1,-5.584745836E-1,1.597681995E0
3.757458083E0,2.152522634E0,7.431454414E-1,4.016148376E-1,2.312339360E0
3.767425083E0,1.869092889E0,3.750658473E-1,1.631821064E0,2.509386897E0
3.777392083E0,9.888460279E-1,4.967355877E-2,2.248683604E0,2.457002621E0
3.787359083E0,-3.203057957E-1,-1.821767280E-1,2.530535771E0,2.557224169E0
3.797326083E0,-1.489827279E0,-4.164772904E-1,2.263244340E0,2.741407230E0
3.807293083E0,-1.921475755E0,-4.562898123E-1,2.003244388E0,2.813051288E0
3.817260083E0,-1.345680549E0,-2.951151136E-1,1.809561217E0,2.274304480E0
3.827227083E0,-4.216737109E-1,-3.611073741E-1,1.672472661E0,1.762206587E0
3.837194083E0,5.501920027E-1,-6.940256140E-1,1.446309376E0,1.695934434E0
3.847161083E0,2.019138290E0,-9.236973743E-1,1.506680709E0,2.683323132E0
3.857127083E0,3.373119546E0,-1.040544185E0,1.873888190E0,3.996514059E0
3.867094083E0,3.897558072E0,-1.408084958E0,2.395791364E0,4.786802527E0
3.877061083E0,4.105471027E0,-1.727030107E0,2.863849867E0,5.295201734E0
3.887028083E0,4.621686614E0,-1.921408512E0,3.107879027E0,5.891579574E0
3.896995083E0,5.102850482E0,-2.216840252E0,3.249534550E0,6.443053510E0
3.906962083E0,5.051675066E0,-2.848287210E0,3.503196121E0,6.775289224E0
3.916929083E0,4.988012921E0,-3.396016073E0,3.615629307E0,7.034626739E0
3.926896083E0,4.494636558E0,-3.592896502E0,3.410999563E0,6.689213787E0
3.936863083E0,3.724379332E0,-3.611805813E0,2.838846588E0,5.913982803E0
3.946830083E0,2.821011411E0,-3.633829935E0,2.212216567E0,5.104579073E0
3.956797083E0,2.324890366E0,-3.940918392E0,1.385432552E0,4.780729687E0
3.966764083E0,2.131218304E0,-3.568313930E0,1.708868363E0,4.493905523E0
3.976731083E0,1.131179536E0,-2.896131468E0,1.440292591E0,3.426599972E0
3.986698083E0,-1.125723499E-1,-3.838978912E0,3.951130262E-1,3.860899626E0
3.996665083E0,-2.835151148E-1,-4.216575434E0,-4.363709798E-1,4.248565504E0
4.006632083E0,7.664308083E-1,-4.175554585E0,-9.512788367E-1,4.350586593E0
4.016598083E0,1.646525642E0,-4.202103283E0,-1.332109162E0,4.705659731E0
4.026565083E0,2.041776370E0,-4.199391929E0,-1.640778413E0,4.949332997E0
4.036532083E0,2.296910269E0,-3.858313900E0,-1.877555564E0,4.866990634E0
4.046499083E0,2.646022958E0,-3.344946492E0,-1.965766659E0,4.696205179E0
4.056466083E0,2.566434166E0,-3.033291944E0,-1.763926038E0,4.347284142E0
4.066433083E0,2.064290489E0,-2.765598810E0,-1.559496853E0,3.787065148E0
4.076400083E0,1.076433225E0,-2.370989083E0,-1.275489549E0,2.899512254E0
4.086367083E0,-6.245416886E-1,-1.957288489E0,-3.050012934E-1,2.077030654E0
4.096334083E0,-2.497204887E0,-1.798512318E0,1.231331230E0,3.314642576E0
4.106301083E0,-3.632582724E0,-1.470259718E0,2.162969270E0,4.476131918E0
4.116268083E0,-3.842871403E0,-5.340956412E-1,2.379057802E0,4.551135551E0
4.126235083E0,-3.545018916E0,7.346064600E-1,2.443677721E0,4.367878955E0
4.136202083E0,-2.931799191E0,1.945980851E0,2.649647647E0,4.404874643E0
4.146169083E0,-2.317021183E0,2.378296202E0,4.246160299E0,5.390246494E0
4.156136083E0,-1.659759060E0,2.404801631E0,6.162995703E0,6.820585536E0
4.166102083E0,-5.723371625E-1,2.525776137E0,6.823864388E0,7.298783468E0
4.176069083E0,5.889296602E-1,2.624834402E0,6.911833409E0,7.416875006E0
4.186036083E0,1.872190451E0,2.782306059E0,1.138794716E1,1.187146430E1
4.196003083E0,5.925506946E-1,3.224093315E0,1.080209474E1,1.128854042E1
4.205970083E0,-3.315479156E0,2.997955173E0,2.463315010E-1,4.476697048E0
4.215937083E0,-7.852481423E0,1.600867951E0,-9.973865880E0,1.279461775E1
4.225904083E0,-7.465407441E0,1.166489994E0,-4.521905633E0,8.805716196E0
4.235871083E0,-3.622099251E0,3.115361416E-1,3.670008413E0,5.165812569E0
4.245837958E0,-4.135745133E-1,-6.064498186E-1,4.665741291E0,4.723131065E0
4.255804958E0,9.519770674E-1,-6.624114731E-1,5.644482161E0,5.762397779E0
4.265771958E0,1.427791683E0,-3.005521470E-1,6.816096947E0,6.970516357E0
4.275738958E0,1.921690786E0,2.893664235E-1,7.303541894E0,7.557668463E0
4.285705958E0,2.489796465E0,9.508277240E-1,7.002650024E0,7.492680906E0
4.295672958E0,2.998726129E0,1.549662714E0,6.242112039E0,7.096321275E0
4.305639958E0,3.436865306E0,1.940691752E0,5.271826243E0,6.585626740E0
4.315606958E0,3.241932293E0,1.650370186E0,4.135859592E0,5.508101425E0
4.325572958E0,2.452497369E0,2.023442717E0,2.301260598E0,3.924903071E0
4.335539958E0,1.992515917E0,2.530484315E0,-4.160597992E-1,3.247549277E0
4.345506958E0,2.862585114E0,2.359864609E0,-8.981755936E-1,3.817076618E0
4.355473958E0,3.004022829E0,1.538898574E0,6.355426401E-1,3.434570778E0
4.365440958E0,3.273964217E0,9.649312082E-1,1.815455795E0,3.865981593E0
4.375407958E0,-1.003641822E0,-7.406472185E-1,-2.907045588E0,3.163347793E0
4.385374958E0,-1.160510924E0,-1.443163867E0,-1.103848481E0,2.155919530E0
4.395341958E0,7.902921259E-1,3.352585879E-1,4.942768335E-1,9.905905073E-1
4.405308958E0,5.241537666E-1,5.260131812E-1,9.203657770E-1,1.182582006E0
4.415275958E0,1.454976119E0,1.313875789E0,2.791870642E0,3.411417122E0
4.425242958E0,1.547676122E-1,1.730059549E0,1.674639055E0,2.412773305E0
4.435209958E0,-1.566184314E0,1.808182443E0,3.371130323E-1,2.415802610E0
4.445176958E0,-2.399211985E0,1.350319145E0,-1.841457778E0,3.312181561E0
4.455143958E0,-2.795630987E0,4.552074927E-1,-4.298091175E0,5.147460949E0
4.465110958E0,-2.123315207E0,-5.276895779E-1,-5.261007140E0,5.697817116E0
4.475077958E0,8.894959867E-2,-7.074440968E-1,-4.284769464E0,4.343689507E0
4.485043958E0,1.579645189E0,-2.341447341E-1,-2.433058008E0,2.910304786E0
4.495010958E0,1.523598458E0,4.107247996E-1,-7.408001232E-1,1.743224582E0
4.504977958E0,7.579540998E-1,1.187972957E0,6.032630861E-2,1.410465677E0
4.514944958E0,3.675770259E-1,1.472955723E0,-3.977860808E-3,1.518132819E0
4.524911958E0,-2.637491870E-1,1.128582203E0,-4.720235002E-1,1.251426229E0
4.534878958E0,-9.875222182E-1,5.503393525E-1,-1.288115296E0,1.713859548E0
4.544845958E0,-1.235600867E0,2.132567257E-1,-1.767213342E0,2.166848156E0
4.554812958E0,-7.145741916E-1,5.130621833E-1,-1.773209077E0,1.979424035E0
4.564779958E0,2.504426783E-1,1.085127450E0,-1.507074811E0,1.873899038E0
4.574746958E0,1.060522367E0,1.577724379E0,-9.326408368E-1,2.117484554E0
4.584713958E0,9.079907298E-1,1.934387577E0,-5.841350895E-1,2.215291463E0
4.594680958E0,2.447936833E-1,2.116762233E0,-8.315489101E-1,2.287374016E0
4.604647958E0,1.528105491E-1,2.188347940E0,-9.776149884E-1,2.401655436E0
4.614614958E0,-5.904927671E-2,2.035139195E0,-1.415870526E0,2.479912843E0
4.624581958E0,-3.772483206E-1,2.052018353E0,-1.635096089E0,2.650780043E0
4.634548958E0,-6.609581476E-1,1.971811511E0,-1.802108356E0,2.751817733E0
4.644514958E0,-3.342157370E-1,2.024264544E0,-1.662907786E0,2.640948581E0
4.654481958E0,5.274387324E-1,2.205743991E0,-1.344188924E0,2.636350135E0
4.664448958E0,1.575600670E0,2.561417255E0,-3.300519347E-1,3.025278517E0
4.674415958E0,2.343023166E0,2.852967029E0,1.693669403E-1,3.695654690E0
4.684382958E0,1.875887353E0,2.521722847E0,-4.310187310E-1,3.172351908E0
4.694349958E0,3.400851721E-1,1.303222162E0,-1.281668448E0,1.859225629E0
4.704316958E0,-3.934035927E-1,1.185569751E-1,-2.065866898E0,2.106330502E0
4.714283958E0,-6.060855371E-1,-8.960770279E-1,-1.994955668E0,2.269392393E0
4.724250958E0,-1.779548044E0,-2.668657529E0,-1.104718839E0,3.392481092E0
4.734217958E0,-3.031561460E0,-4.037887740E0,-4.027541676E-1,5.065285106E0
4.744184958E0,-3.756738993E0,-5.505678617E0,1.011743724E-2,6.665259729E0
4.754151958E0,-1.951308834E0,-4.915640178E0,3.850926527E-1,5.302774828E0
4.764118958E0,-3.172360075E-1,-2.770980880E0,3.997133231E-1,2.817577765E0
4.774085958E0,-2.944897538E-1,-1.917532977E0,-1.339155641E-1,1.944631151E0
4.784052958E0,-9.790466791E-1,-1.542372113E0,6.790839314E-2,1.828129012E0
4.794019958E0,-2.121834692E0,-6.501115626E-1,1.224947825E-1,2.222573391E0
4.803985958E0,-3.198630445E0,4.806680238E-1,-3.361505806E-1,3.251964896E0
4.813952958E0,-3.836387426E0,1.403483784E0,-1.680907270E0,4.417361708E0
4.823919958E0,-2.073750699E0,2.214927043E0,-2.818630132E0,4.141378948E0
4.833886958E0,-6.080139488E-1,1.860886906E0,-2.771781363E0,3.393427908E0
4.843853958E0,9.076872593E-1,1.330478958E0,-2.238361807E0,2.757595691E0
4.853820958E0,1.595073652E0,6.820280045E-1,-1.581308137E0,2.347329883E0
4.863787958E0,1.055949259E0,-3.662877148E-1,-2.827982461E-1,1.152896516E0
4.873754958E0,3.373586154E-1,-1.215051997E0,4.195061481E-1,1.328964860E0
4.883721958E0,4.630281436E-1,-1.914970143E0,6.431329107E-1,2.072468492E0
4.893688958E0,1.546108484E0,-1.724886518E0,8.145177251E-1,2.455427471E0
4.903655958E0,2.216083623E0,-1.247424522E0,1.357929589E0,2.882892181E0
4.913622958E0,2.009747077E0,-1.241004864E0,2.122160090E0,3.175333027E0
4.923589958E0,8.012141401E-1,-1.699675078E0,2.633058219E0,3.234785163E0
4.933556958E0,4.893078697E-1,-1.770315875E0,2.289349527E0,2.935057367E0
4.943523958E0,1.205298257E-1,-1.675886266E0,1.905251193E0,2.540296110E0
4.953490958E0,-3.030155790E-1,-1.392017979E0,1.412349625E0,2.006056818E0
4.963456958E0,-6.191903168E-1,-1.555913095E0,1.263604645E0,2.097846254E0
4.973423958E0,-9.707266760E-1,-1.506640947E0,1.849420224E0,2.575389755E0
4.983390958E0,-3.005977553E-1,-1.149146276E0,2.117571487E0,2.427963175E0
4.993357958E0,-1.694488013E-1,-1.486749305E0,2.577146850E0,2.980070851E0
5.003324958E0,-2.084181547E-1,-1.649424691E0,3.154846494E0,3.566103804E0
5.013291958E0,4.480955243E-1,-4.314309597E-1,2.808312720E0,2.876376646E0
5.023258958E0,1.154976534E0,8.450536394E-1,1.970159965E0,2.435080437E0
5.033225958E0,1.590102350E0,1.446026371E0,1.115767445E0,2.421642983E0
5.043192958E0,2.379734325E0,1.566479014E0,1.438450134E-1,2.852662501E0
5.053159958E0,1.976272936E0,1.670641313E0,-1.222011061E0,2.861819028E0
5.063126958E0,1.275057878E0,1.498567697E0,-1.508010658E0,2.479026801E0
5.073093958E0,1.374120821E0,6.818403089E-1,-1.041944008E0,1.854389807E0
5.083060958E0,1.798164994E0,-5.887462038E-1,-8.586223957E-1,2.077799763E0
5.093027958E0,3.251055996E0,-1.956747329E-1,1.319369541E0,3.514027557E0
5.102994958E0,4.491816446E0,6.648687655E-1,1.129758955E0,4.679190182E0
5.112960958E0,1.768982710E0,8.662796170E-1,7.305037612E-1,2.100803643E0
5.122927958E0,4.934991539E-1,7.128726518E-1,2.029767358E0,2.207189245E0
5.132894958E0,5.510737628E-1,1.194264561E0,8.946935767E-1,1.590731508E0
5.142861958E0,8.310583287E-1,-4.461963487E-1,4.303807998E-1,1.036810860E0
5.152828958E0,2.096432049E0,-2.585472116E0,-3.886024439E-1,3.351224441E0
5.162795958E0,3.589376478E0,-4.096893162E0,-1.939667028E0,5.781908445E0
5.172762958E0,5.182821681E0,-6.579302840E0,-4.540174674E0,9.526912013E0
5.182729958E0,3.804465721E0,-1.024214900E1,-6.441015605E0,1.268314857E1
5.192696958E0,3.291239816E0,-1.158189813E1,-7.782541707E0,1.433668648E1
5.202663958E0,4.536579806E0,-9.865884179E0,-8.565440614E0,1.383050975E1
5.212630958E0,4.111177910E0,-6.101547314E0,-6.175357302E0,9.605503695E0
5.222597958E0,2.234866049E0,-3.677260129E0,-2.282795675E0,4.871142003E0
5.232564958E0,1.480358298E0,-2.777542625E0,9.454760599E-1,3.286354927E0
5.242531958E0,7.072242415E-1,-2.687391424E0,1.975034789E0,3.409252294E0
5.252499417E0,4.663341594E-1,-2.912806265E0,1.681963862E0,3.395719411E0
5.262465417E0,2.683456832E-1,-2.754026293E0,1.252561886E0,3.037364237E0
5.272432417E0,2.527131522E-1,-2.366537159E0,1.077174652E0,2.612406418E0
5.282399417E0,1.822816855E-1,-2.050595725E0,1.061888861E0,2.316414772E0
5.292366417E0,-1.104001093E-1,-1.744649522E0,8.577841973E-1,1.947250335E0
5.302333417E0,2.630931294E-1,-9.404006767E-1,6.338253129E-1,1.164176084E0
5.312300417E0,8.178266644E-1,-7.548264241E-1,3.073843262E-1,1.154594521E0
5.322267417E0,3.880533904E-1,-1.419769449E0,-3.471649808E-1,1.512234852E0
5.332234417E0,7.277315962E-1,-1.433713304E0,-6.877173454E-1,1.748737334E0
5.342201417E0,1.199299306E0,-4.581387019E-1,1.061901140E-1,1.288210478E0
5.352168417E0,2.038180625E0,5.899466372E-1,9.107450607E-1,2.309041762E0
5.362135417E0,1.850260469E0,9.408813179E-1,1.317640226E0,2.458637270E0
5.372102417E0,5.977105701E-1,1.033031098E0,1.730277650E0,2.101968582E0
5.382069417E0,-7.022672644E-1,4.341464067E-1,3.069679459E0,3.178772467E0
5.392036417E0,-3.402353870E0,-4.396930754E-1,3.368972701E0,4.808255288E0
5.402003417E0,-3.729968101E0,1.354209298E-1,-5.572840905E-1,3.773799997E0
5.411970417E0,-1.763960536E0,2.390224814E-1,-1.927690176E0,2.623866981E0
5.421936417E0,1.226716608E-1,1.152848732E-1,-1.555968059E0,1.565048094E0
5.431903417E0,1.645676041E0,-4.481522423E-1,-7.031352836E-1,1.844854816E0
5.441870417E0,1.691376125E0,-1.692829158E0,1.757161394E-1,2.399437416E0
5.451837417E0,-4.666089785E-1,-2.047416594E0,1.153655648E0,2.395946578E0
5.461804417E0,-1.620108506E0,-3.559989542E-1,1.050558127E0,1.963455934E0
5.471771417E0,-2.692788988E0,1.377336205E0,4.433145484E-1,3.056909444E0
5.481738417E0,-4.285369680E0,3.448760297E0,6.209169996E-1,5.535691357E0
5.491705417E0,-3.280370719E0,4.803979994E0,-6.009774095E-1,5.848096245E0
5.501672417E0,-1.191143317E0,5.488690701E0,-3.561289378E0,6.650363152E0
5.511639417E0,6.218393978E-1,5.230434973E0,-3.962949824E0,6.591593552E0
5.521606417E0,2.009303858E0,4.181828647E0,-2.620843678E0,5.328584653E0
5.531573417E0,2.560244596E0,2.929907616E0,-2.087362432E0,4.415460673E0
5.541540417E0,3.227590535E0,1.301114241E0,-2.939747311E0,4.555475077E0
5.551507417E0,3.662818969E0,-5.563725096E-1,-3.543320299E0,5.126491189E0
5.561474417E0,3.049510951E0,-1.452737221E0,-3.456113171E0,4.832668075E0
5.571440417E0,2.009411739E0,-4.102850890E-1,-2.883704672E0,3.538618661E0
5.581407417E0,1.098904952E0,1.293476023E0,-1.693723197E0,2.397784516E0
5.591374417E0,1.374658180E0,1.977368120E0,-1.631452104E0,2.908832371E0
5.601341417E0,1.951461154E0,1.842687448E0,-2.230436490E0,3.489777157E0
5.611308417E0,2.204467544E0,1.571516390E0,-3.024959954E0,4.059522588E0
5.621275417E0,2.414229681E0,1.261104083E0,-3.884766119E0,4.744501687E0
5.631242417E0,2.060602358E0,8.125980842E-1,-4.129848654E0,4.686368277E0
5.641209417E0,1.777401531E0,-4.245470327E-1,-4.200846716E0,4.581103526E0
5.651176417E0,1.600690488E0,-1.170993227E0,-3.845036335E0,4.326400304E0
5.661143417E0,2.148995594E0,-9.126807815E-1,-3.499163881E0,4.206580100E0
5.671110417E0,3.199779715E0,-7.408533329E-1,-2.866335226E0,4.359281078E0
5.681077417E0,3.399802145E0,-1.116081440E-1,-1.388301489E0,3.674029400E0
5.691044417E0,3.205389534E0,-2.776749158E-1,3.266032469E-1,3.233928741E0
5.701011417E0,2.579111807E0,-5.486939460E-1,1.129822397E0,2.868689842E0
5.710978417E0,2.056482994E0,-1.836977057E0,1.477987252E0,3.128586475E0
5.720944417E0,1.685252336E0,-3.957448179E0,2.393997438E0,4.922671557E0
5.730911417E0,5.807776183E-1,-5.521268463E0,3.596631119E0,6.614942440E0
5.740878417E0,4.330892301E-1,-6.338764175E0,4.173189094E0,7.601513321E0
5.750845417E0,1.491703066E0,-6.113476219E0,4.172836799E0,7.550651393E0
5.760812417E0,2.855679553E0,-4.915439034E0,4.848217104E0,7.471389141E0
5.770779417E0,5.005228878E0,-3.093296948E0,5.920801692E0,8.347256723E0
5.780746417E0,5.839197366E0,-1.990958803E0,6.813970900E0,9.191862828E0
5.790713417E0,4.254664489E0,-1.825570893E0,6.600358078E0,8.062233299E0
5.800680417E0,3.339259490E0,-1.923731611E0,5.767045648E0,6.936152590E0
5.810647417E0,3.436312745E0,-1.936452228E0,3.890803953E0,5.540437520E0
5.820614417E0,2.661670107E0,-2.109909881E0,1.413067663E0,3.678718212E0
5.830581417E0,1.971078855E0,-2.725371428E0,-4.000811130E-2,3.363688737E0
5.840548417E0,1.214145094E0,-3.037738459E0,-6.914089850E-1,3.343658122E0
5.850515417E0,-1.037891303E0,-2.518614467E0,-2.913669606E0,3.988747644E0
5.860482417E0,-2.897328685E0,-1.677711182E0,-3.895508331E0,5.136556577E0
5.870448417E0,-2.170091763E0,-9.800974238E-1,-1.891083975E0,3.040738039E0
5.880415417E0,-1.243138513E0,-4.640245092E-1,-6.856070852E-1,1.493575972E0
5.890382417E0,-2.957814038E-1,-5.374281156E-1,-6.716088510E-1,9.096010482E-1
5.900349417E0,-3.173751712E-2,-2.746068817E-1,-3.866317861E-1,4.752897511E-1
5.910316417E0,-3.404839522E-1,3.255729675E-3,-7.273804709E-2,3.481820572E-1
5.920283417E0,-4.076462406E-1,1.724823368E-1,1.211345740E-1,4.589108835E-1
5.930250417E0,-4.202195084E-1,5.118325138E-1,2.513694620E-1,7.083385941E-1
5.940217417E0,-6.389603376E-2,7.266077614E-1,2.571468034E-1,7.734119346E-1
5.950184417E0,-1.003160012E-1,8.389666879E-1,1.625210202E-1,8.604309882E-1
5.960151417E0,5.330146372E-2,9.272321624E-1,-1.141119218E-1,9.357467925E-1
5.970118417E0,2.476523870E-1,8.662614906E-1,-3.592378731E-1,9.699445986E-1
5.980085417E0,5.040171254E-1,7.372420925E-1,-4.949282134E-1,1.021035309E0
5.990052417E0,4.883658832E-1,4.914362562E-1,-4.375940712E-1,8.194506702E-1
6.000019417E0,6.043173391E-1,3.047369993E-1,-3.601057461E-1,7.666421808E-1
6.009986417E0,7.916662216E-1,1.718964458E-1,-3.065825267E-1,8.661851074E-1
6.019953417E0,7.247255427E-1,9.387704730E-3,-2.457703145E-1,7.653223430E-1
6.029919417E0,5.932748723E-1,-1.270208198E-1,-5.286599234E-2,6.090190275E-1
6.039886417E0,2.092326719E-1,-2.563875425E-1,8.915366650E-2,3.427262160E-1
6.049853417E0,2.014172834E-1,-1.512575287E-1,-1.974020004E-3,2.518961270E-1
6.059820417E0,2.321145809E-1,-1.420218515E-1,-3.707544029E-1,4.598980455E-1
6.069787417E0,6.423341811E-2,-3.245292395E-1,-4.175040615E-1,5.326863999E-1
6.079754417E0,8.240948796E-2,-3.315213400E-1,-2.986897358E-1,4.537766861E-1
6.089721417E0,1.899351060E-1,-2.633451444E-1,-3.930053242E-1,5.097834780E-1
6.099688417E0,3.041996402E-1,-1.895035815E-1,-3.865804768E-1,5.271560428E-1
6.109655417E0,2.411479443E-1,-2.101764125E-1,-2.522617471E-1,4.073848849E-1
6.119622417E0,2.172328323E-1,6.678689718E-3,-3.721866053E-2,2.204992903E-1
6.129589417E0,2.022458339E-1,2.172591448E-2,-1.344859235E-1,2.438480188E-1
6.139556417E0,3.521836460E-2,-2.098881447E-1,-1.037389247E-1,2.367596482E-1
6.149523417E0,3.321645337E-1,-3.373036516E-1,-5.073044300E-2,4.761098704E-1
6.159490417E0,9.480850875E-1,-4.618516839E-1,-1.046734194E-1,1.059777729E0
6.169457417E0,8.218454558E-1,-2.070124841E-1,-1.160344497E-1,8.554227699E-1
6.179423417E0,3.141042387E-1,3.034225452E-1,1.755579722E-1,4.706881296E-1
6.189390417E0,1.860724354E-1,5.533968616E-1,-2.487745043E-1,6.346335884E-1
6.199357417E0,2.525272107E-1,7.860406154E-1,-2.440136647E-1,8.609137645E-1
6.209324417E0,4.552384830E-1,8.279464406E-1,-2.839302671E-1,9.865869356E-1
6.219291417E0,4.156119025E-1,5.434881699E-1,-1.680232136E-1,7.045171713E-1
6.229258417E0,5.868762642E-1,6.035794204E-1,-6.816446465E-2,8.446172272E-1
6.239225417E0,3.204028594E-1,5.392436761E-1,2.724276245E-1,6.838556464E-1
6.249191542E0,6.004681170E-2,5.508182395E-1,7.009080791E-1,8.934643182E-1
6.259158542E0,4.888857007E-1,5.729598910E-1,6.800007749E-1,1.014738054E0
6.269125542E0,2.969058233E-1,1.554944211E-1,3.168711047E-1,4.612362517E-1
6.279092542E0,3.840743601E-1,7.873041987E-2,2.037836881E-1,4.418590100E-1
6.289059542E0,3.188808292E-1,3.692563462E-1,1.681296694E-1,5.160453645E-1
6.299026542E0,2.376717746E-1,2.135438240E-1,3.325603902E-1,4.611781113E-1
6.308993542E0,7.871621114E-1,6.798978639E-1,5.489014856E-1,1.176085939E0
6.318960542E0,8.625268739E-1,8.048867762E-1,8.024017096E-1,1.426759908E0
6.328926542E0,8.754024428E-1,5.392068386E-1,1.241142858E0,1.611678953E0
6.338893542E0,1.259010195E0,7.541569179E-1,6.276740420E-1,1.596193607E0
6.348860542E0,6.518739134E-1,6.119362611E-1,1.714181435E-1,9.103789137E-1
6.358827542E0,1.032493739E0,8.267091697E-1,-5.346931536E-2,1.323763702E0
6.368794542E0,5.429993427E-1,6.795014226E-1,4.129339143E-1,9.628524742E-1
6.378761542E0,3.215682095E-1,3.118361038E-1,5.419526545E-1,7.031077789E-1
6.388728542E0,-4.929524392E-1,-2.341412258E-1,1.586314523E-1,5.683204717E-1
6.398695542E0,-1.290939501E0,-1.075503518E0,-2.190202896E-1,1.694462304E0
6.408662542E0,-1.665631419E0,-1.652779824E0,-7.369853997E-1,2.459503334E0
6.418629542E0,-2.037383941E0,-1.883187017E0,-1.534889431E0,3.170680090E0
6.428596542E0,-2.118640943E0,-1.960796526E0,-1.567601094E0,3.284925517E0
6.438563542E0,-1.915052004E0,-1.816647457E0,-1.285948902E0,2.936204479E0
6.448530542E0,-1.157457508E0,-1.432031645E0,-1.240304368E0,2.220085007E0
6.458497542E0,-4.644256282E-1,-1.075760795E0,-9.657249677E-1,1.518412713E0
6.468464542E0,-3.306044966E-1,-7.619454092E-1,-3.938918718E-1,9.192447696E-1
6.478430542E0,-2.073352504E-1,-5.107431775E-1,1.482772028E-1,5.708175088E-1
6.488397542E0,4.013938129E-2,-2.703816837E-1,6.111989272E-1,6.695383136E-1
6.498364542E0,5.429665983E-2,-2.319643074E-1,7.174089217E-1,7.559306371E-1
6.508331542E0,3.823318899E-2,-2.175865889E-1,6.007218862E-1,6.400566263E-1
6.518298542E0,7.679440677E-2,-2.159856212E-1,3.135744810E-1,3.884277599E-1
6.528265542E0,8.623824477E-2,-2.474869108E-1,5.569118422E-2,2.679334132E-1
6.538232542E0,2.798787314E-1,-2.662757689E-1,-7.378952265E-2,3.932935075E-1
6.548199542E0,4.563553011E-1,-2.079223108E-1,-1.817630192E-1,5.334132013E-1
6.558166542E0,5.787392789E-1,-1.725764769E-1,-1.143200827E-1,6.146469512E-1
6.568133542E0,7.792660314E-1,-1.822542036E-1,-8.274743875E-2,8.045615458E-1
6.578100542E0,9.002671427E-1,-1.744335526E-1,-1.035541892E-1,9.228388064E-1
6.588067542E0,4.876074994E-1,-4.359473491E-1,-6.004503926E-2,6.568230898E-1
6.598034542E0,3.152590638E-1,-8.351671672E-1,3.957159838E-2,8.935649869E-1
6.608001542E0,4.862895370E-1,-4.658412391E-1,-3.046050349E-2,6.741019330E-1
6.617968542E0,4.875414258E-1,-2.864381379E-1,2.565990290E-2,5.660405280E-1
6.627935542E0,3.914003366E-1,-2.785204232E-1,8.486881773E-2,4.878222687E-1
6.637901542E0,2.363152206E-1,-1.581315154E-1,3.080899755E-2,2.860063880E-1
6.647868542E0,1.802357447E-1,6.362121463E-2,-2.599473274E-1,3.226533676E-1
6.657835542E0,2.425933760E-1,-7.955195367E-2,-2.323706889E-1,3.452190558E-1
6.667802542E0,1.528818852E-1,-6.270203233E-2,1.834738414E-2,1.662559538E-1
6.677769542E0,9.505233765E-2,1.193814325E-1,1.721770664E-2,1.535686255E-1
6.687736542E0,6.566715539E-2,7.052151382E-2,5.174200674E-2,1.093741033E-1
6.697703542E0,2.098858058E-2,1.507412195E-3,5.976906896E-2,6.336508826E-2
6.707670542E0,1.127927899E-1,-3.953302503E-3,-2.066639900E-2,1.147385816E-1
6.717637542E0,1.175851679E-1,-3.689651549E-2,-8.421393871E-2,1.492635657E-1
6.727604542E0,1.203175718E-1,-4.121059120E-2,-1.495337695E-1,1.963032835E-1
6.737571542E0,1.755334139E-1,-7.983203530E-2,-2.420829141E-1,3.094984177E-1
6.747538542E0,1.931528288E-1,-1.513405591E-1,-2.625756508E-1,3.593855207E-1
6.757505542E0,1.255829895E-1,-2.230046189E-1,-2.126983166E-1,3.327802896E-1
6.767472542E0,1.169127381E-1,-2.622172165E-1,-1.357817030E-1,3.175895587E-1
6.777439542E0,1.300181025E-1,-2.006477898E-1,-1.337486170E-1,2.739579075E-1
6.787405542E0,3.127207875E-2,-1.756205374E-1,-1.331662434E-1,2.226067485E-1
6.797372542E0,-2.130725384E-3,-1.057387090E-1,-1.587793869E-1,1.907776409E-1
6.807339542E0,2.821047664E-2,-2.189782262E-3,-1.796504384E-1,1.818650768E-1
6.817306542E0,-2.480154991E-2,6.741839647E-2,-2.067195386E-1,2.188454356E-1
6.827273542E0,-7.520747244E-2,1.510809427E-1,-2.111365253E-1,2.702965917E-1
6.837240542E0,-1.157912421E-1,1.994958884E-1,-7.474144936E-2,2.424716591E-1
6.847207542E0,-2.629709226E-1,3.631524378E-1,2.166979034E-2,4.488908320E-1
6.857174542E0,-2.241535968E-1,3.049790740E-1,-3.894945463E-2,3.804919586E-1
6.867141542E0,-1.725694603E-1,4.093074346E-1,-2.774735888E-2,4.450648386E-1
6.877108542E0,2.097671074E-1,2.313772470E-1,2.052267627E-1,3.737053570E-1
6.887075542E0,8.069157600E-5,-3.979077029E-1,4.220315605E-1,5.800355029E-1
6.897042542E0,-5.032558179E-1,-2.279396689E-1,8.467545944E-1,1.011047108E0
6.907009542E0,-3.406868505E-1,4.406093341E-1,-1.133377504E-1,5.683744902E-1
6.916976542E0,-4.504782647E-1,1.324043512E-1,-3.746965957E-1,6.007155050E-1
6.926942542E0,-1.912869823E-1,5.632213533E-2,-4.198066950E-1,4.647585972E-1
6.936909542E0,-2.723293912E-1,-2.790829253E-1,-1.602487922E-1,4.215806589E-1
6.946876542E0,-5.650106013E-2,3.209829032E-2,-7.052270154E-2,9.589641010E-2
6.956843542E0,1.870576912E-1,-3.266371608E-2,-2.737227827E-1,3.331391000E-1
6.966810542E0,5.081663096E-1,-1.741610724E-1,-1.125056916E-1,5.488375060E-1
6.976777542E0,6.819397116E-1,-4.516289967E-1,4.437545514E-1,9.305528587E-1
6.986744542E0,5.110402161E-1,-5.014297324E-1,-3.143258482E-1,7.819172705E-1
6.996711542E0,2.591708171E-1,-2.729246378E-2,2.054208902E-1,3.318314831E-1
7.006678542E0,3.810759079E-1,-4.076725531E-1,-1.598675354E-1,5.804940887E-1
7.016645542E0,7.814242387E-1,1.761888868E-1,-3.143942606E-1,8.605289744E-1
7.026612542E0,7.107103515E-1,-5.140784293E-1,2.282700183E-1,9.063625304E-1
7.036579542E0,5.096591038E-1,-3.192275691E-1,1.531257141E-1,6.205691962E-1
7.046546542E0,4.631409949E-1,2.990476584E-1,2.215745727E-2,5.517427264E-1
7.056513542E0,4.112492949E-1,-1.080834424E-1,-1.883276882E-1,4.650541164E-1
7.066480542E0,4.003489155E-1,2.533013821E-3,-1.892304983E-1,4.428248545E-1
7.076447542E0,1.740067059E-1,2.043806523E-1,2.838156617E-1,3.906419262E-1
7.086413542E0,1.939088738E-1,3.279065913E-1,4.288985306E-1,5.736526244E-1
7.096380542E0,1.090803927E-1,2.170866519E-1,1.807240055E-1,3.027974780E-1
7.106347542E0,3.306267160E-1,2.003671235E-1,2.717504803E-1,4.725561692E-1
7.116314542E0,2.648981649E-1,4.408683658E-2,5.435589212E-1,6.062763295E-1
7.126281542E0,-2.583709180E-2,-1.138318402E-1,2.723849581E-1,2.963423839E-1
7.136248542E0,-9.429687738E-2,-2.150956750E-2,-2.464835286E-2,9.981033953E-2
7.146215542E0,-2.164902359E-1,-1.123694515E-1,-1.514545798E-1,2.871121830E-1
7.156182542E0,-3.004363722E-1,-1.975733238E-1,-7.857312977E-2,3.680638107E-1
7.166149542E0,-3.221593630E-1,-5.626366317E-2,-8.414669573E-2,3.376876092E-1
7.176116542E0,-4.846201569E-1,-8.237381995E-2,-1.317851311E-1,5.089297235E-1
7.186083542E0,-5.309172410E-1,-2.703167796E-3,4.436222216E-2,5.327742774E-1
7.196050542E0,-6.536666697E-1,2.675843757E-1,-3.709183076E-2,7.072887085E-1
7.206017542E0,-3.671992958E-1,8.815244776E-1,5.440364560E-2,9.564938495E-1
7.215984542E0,-1.178028013E0,1.365376895E0,-1.657556999E-1,1.810933189E0
7.225951542E0,-8.936387390E-1,2.238583708E0,-7.257137221E-1,2.517242067E0
7.235917542E0,-3.673811442E-1,1.796093325E0,-2.496585850E-1,1.850202569E0
7.245884542E0,-6.329254264E-1,1.970687091E-1,4.780812156E-1,8.173079714E-1
7.255851792E0,-4.194622940E-1,-1.229558355E-1,5.466480052E-1,6.999219922E-1
7.265818792E0,-3.290988386E-1,1.977078098E-1,4.988177812E-1,6.294550043E-1
7.275785792E0,-4.630252200E-1,1.723887813E-1,2.696607220E-1,5.628740102E-1
7.285752792E0,-3.249297738E-1,-1.760421216E-2,-1.423194748E-1,3.551677056E-1
7.295719792E0,-1.996876770E-1,-3.277025235E-1,-5.496604908E-1,6.703661442E-1
7.305686792E0,-2.034538686E-2,-7.293226236E-1,-8.279376698E-1,1.103542572E0
7.315653792E0,1.003838289E-1,-1.184007375E0,-1.091184581E0,1.613268164E0
7.325620792E0,4.169485760E-1,-1.480443082E0,-1.295750590E0,2.011101048E0
7.335587792E0,5.658619559E-1,-1.601219661E0,-8.656329149E-1,1.906154374E0
7.345554792E0,8.277534825E-1,-1.752566067E0,-8.314419061E-1,2.109018561E0
7.355521792E0,1.279929779E0,-1.632101730E0,-9.526634574E-1,2.282442542E0
7.365488792E0,1.689196283E0,-1.561427019E0,-7.997114056E-1,2.435359676E0
7.375455792E0,2.854345803E0,-1.420819609E0,-7.143362099E-1,3.267459953E0
7.385421792E0,2.814069597E0,-2.256359244E0,-4.343522286E-1,3.633016184E0
7.395388792E0,2.381726471E0,-2.507198364E0,3.429292578E-1,3.475092099E0
7.405355792E0,2.268691607E0,-9.717142707E-1,1.043419846E0,2.679536379E0
7.415322792E0,1.292495445E0,3.366803384E-1,1.616321849E0,2.096758080E0
7.425289792E0,5.082978719E-1,5.499452502E-1,1.587437773E0,1.755210867E0
7.435256792E0,-3.401576775E-1,9.928800219E-1,8.226580726E-1,1.333523261E0
7.445223792E0,-5.010917634E-1,1.004926456E0,1.055463356E-1,1.127878613E0
7.455190792E0,-5.509322602E-1,1.189895521E0,-4.612295401E-1,1.390003739E0
7.465157792E0,-6.262648630E-1,1.450919906E0,-3.570344961E-1,1.620138847E0
7.475124792E0,-1.170351788E0,1.290368813E0,-3.522748625E-1,1.777321738E0
7.485091792E0,-1.334604169E0,8.733389604E-1,-5.991986134E-1,1.703798170E0
7.495058792E0,-1.055782614E0,8.930195189E-1,-6.210164022E-1,1.515856906E0
7.505025792E0,-1.066715738E0,2.953457862E-1,-3.018052053E-1,1.147256719E0
7.514992792E0,-1.108202317E0,1.727793753E-2,9.482195735E-2,1.112385773E0
7.524959792E0,-1.000216523E0,-2.706220043E-1,4.920741509E-1,1.147086018E0
7.534925792E0,-9.864907694E-1,-9.471723372E-1,4.361689585E-1,1.435459102E0
7.544892792E0,-6.533368868E-1,-4.994416791E-1,-2.672462605E-2,8.228033083E-1
7.554859792E0,-7.808886337E-1,-1.747148037E-2,-2.324034333E-1,8.149255590E-1
7.564826792E0,-4.861071038E-1,1.018641100E0,-6.037747175E-1,1.280028795E0
7.574793792E0,-3.454704577E-1,1.340430919E0,-2.291278231E-1,1.403069651E0
7.584760792E0,-1.386632109E-1,9.291991657E-1,-7.456139166E-2,9.424425588E-1
7.594727792E0,-1.642096961E-1,1.018818855E-2,3.713637558E-1,4.061768859E-1
7.604694792E0,2.103945136E-2,-2.437096095E-1,4.246997181E-1,4.901090520E-1
7.614661792E0,1.713789672E-1,6.425692391E-1,-8.272289872E-2,6.701559934E-1
7.624628792E0,-1.181424075E-1,1.134049349E0,-4.602343440E-2,1.141115118E0
7.634595792E0,-1.906771177E-1,1.379214331E0,2.662751111E-1,1.417565649E0
7.644562792E0,-5.130586749E-1,9.431050140E-1,7.501672165E-1,1.309743152E0
7.654529792E0,-6.273068368E-1,-7.167692363E-2,8.844885043E-1,1.086725063E0
7.664496792E0,-3.450190526E-1,-6.309490675E-1,3.016224068E-2,7.197531752E-1
7.674463792E0,1.284913945E-1,-9.966812968E-1,-5.656140339E-1,1.153170795E0
7.684429792E0,3.871564275E-1,-1.557495351E0,-4.812035557E-1,1.675481642E0
7.694396792E0,4.972402024E-1,-1.831508741E0,-1.733412927E-1,1.905707032E0
7.704363792E0,4.425985569E-1,-1.454166865E0,-8.351329610E-2,1.522323626E0
7.714330792E0,4.256322759E-1,-8.612855101E-1,1.100195286E-1,9.669952745E-1
7.724297792E0,4.672387236E-1,-7.118727779E-1,-6.776922941E-4,8.515135560E-1
7.734264792E0,4.897236067E-1,-5.036341327E-1,-3.192234761E-1,7.716088247E-1
7.744231792E0,5.698105806E-1,-1.739815629E-1,-4.744114300E-1,7.615903669E-1
7.754198792E0,4.529311717E-1,-5.022758245E-1,-4.373783089E-2,6.777467433E-1
7.764165792E0,8.186674941E-1,-4.876648021E-1,-2.371403358E-1,9.819719771E-1
7.774132792E0,7.338471991E-1,-4.422822225E-1,-6.247757234E-2,8.590976213E-1
7.784099792E0,5.610736710E-1,-5.860769498E-1,3.246776857E-1,8.739024288E-1
7.794066792E0,6.724859333E-1,-4.729228020E-1,1.437315043E-1,8.345969401E-1
7.804033792E0,2.654828864E-1,-5.893940753E-1,-5.111701705E-2,6.484438976E-1
7.814000792E0,-1.129348773E-1,-3.766010338E-1,-1.394743659E-1,4.171758908E-1
7.823967792E0,-3.656918836E-1,1.384141195E-1,-1.181102479E-1,4.084593650E-1
7.833933792E0,-7.884987849E-1,6.055622113E-1,-2.772468265E-1,1.032134550E0
7.843900792E0,-1.253951184E0,9.495229179E-1,-3.091399527E-1,1.602983111E0
7.853867792E0,-1.272787989E0,1.407014918E0,-1.382171414E-1,1.902310233E0
7.863834792E0,-1.432475449E0,1.437898741E0,-2.834695796E-1,2.049364220E0
7.873801792E0,-1.344384806E0,1.412741681E0,-6.760427946E-1,2.064035713E0
7.883768792E0,-9.972864836E-1,1.705410612E0,-2.856424049E-1,1.996145603E0
7.893735792E0,-1.016404540E0,1.702205753E0,6.341597736E-2,1.983583676E0
7.903702792E0,-8.840463817E-1,1.542814747E0,5.178270793E-1,1.852015182E0
7.913669792E0,-8.347350580E-1,9.170714557E-1,9.162464136E-1,1.541852834E0
7.923636792E0,-8.478521168E-1,4.271706784E-1,9.544134559E-1,1.346192054E0
7.933603792E0,-8.657755870E-1,8.419195318E-1,3.601275270E-1,1.260193517E0
7.943570792E0,-6.906491393E-1,3.509259099E-1,7.006377916E-1,1.044527904E0
7.953537792E0,-6.403958291E-1,-1.969470870E-1,3.876633811E-1,7.740658047E-1
7.963504792E0,-6.010528386E-1,1.306519407E-1,-2.736847758E-2,6.156975539E-1
7.973471792E0,-5.243584192E-1,1.862162769E-1,1.579894280E-1,5.784366110E-1
7.983437792E0,-1.570597208E-1,1.896544397E-2,1.112291714E-1,1.933891737E-1
7.993404792E0,-1.295362920E-1,-2.491995603E-1,2.983916008E-1,4.097775241E-1
8.003371792E0,1.693792194E-1,-4.448380405E-1,3.597967938E-1,5.966774129E-1
8.013338792E0,3.391297370E-1,-9.421028012E-1,4.092507166E-1,1.081689796E0
8.023305792E0,7.231514722E-1,-1.724179004E0,5.522560698E-1,1.949545603E0
8.033272792E0,5.185930645E-1,-1.578378097E0,-3.792204402E-2,1.661822574E0
8.043239792E0,5.004666960E-1,-1.296628257E0,2.149167502E-1,1.406378669E0
8.053206792E0,5.506007230E-1,-1.392530195E0,5.576670831E-1,1.597903025E0
8.063173792E0,5.968498600E-1,-1.176032943E0,2.686854064E-1,1.345910504E0
8.073140792E0,6.716310704E-1,-1.381798800E0,3.503881853E-2,1.536777127E0
8.083107792E0,5.696462739E-1,-2.052637573E0,-2.670540333E-2,2.130382844E0
8.093074792E0,2.313912803E-1,-9.989424151E-1,-8.680729580E-1,1.343494895E0
8.103041792E0,3.890152574E-1,-9.746103966E-1,-4.005869337E-1,1.123240040E0
8.113008792E0,9.698367298E-2,-9.352755922E-1,-3.430035174E-2,9.409159263E-1
8.122975792E0,-1.027431804E-1,-1.928628069E-1,-5.178107071E-1,5.620321626E-1
8.132941792E0,-8.181307197E-2,-1.609533817E-1,-3.710596275E-1,4.126555670E-1
8.142908792E0,4.071796328E-1,-2.877870905E-1,-3.098794062E-2,4.995767361E-1
8.152875792E0,2.118978328E-1,-1.303975868E-1,1.214642107E-1,2.768714082E-1
8.162842792E0,5.362428850E-1,-1.308220947E-1,6.880711019E-2,5.562420971E-1
8.172809792E0,7.259762621E-1,-3.510750139E-1,3.453558522E-1,8.772490314E-1
8.182776792E0,5.924012983E-1,-4.627147329E-1,2.500228117E-1,7.921840876E-1
8.192743792E0,-6.907210600E-1,3.681073684E-1,-8.270535707E-1,1.138690575E0
8.202710792E0,-6.614826429E-1,7.485453451E-1,-8.167606439E-1,1.290340021E0
8.212677792E0,-1.061853778E0,6.226770115E-1,-5.637926994E-1,1.353928474E0
8.222644792E0,-6.028186977E-1,2.289108914E-1,-6.293771166E-2,6.478825002E-1
8.232611792E0,3.801859617E-2,1.696265566E-1,5.365872129E-1,5.640429234E-1
8.242578792E0,2.916538543E-1,2.134859365E-1,5.064589226E-1,6.222048345E-1
8.252546208E0,3.188977861E-1,6.453232777E-1,3.429369322E-1,7.973353562E-1
8.262513208E0,5.988513619E-1,6.611680627E-1,4.115942075E-1,9.824336885E-1
8.272480208E0,6.999736941E-1,5.022027344E-1,7.445593712E-1,1.138656847E0
8.282446208E0,7.467408943E-1,5.417076927E-1,7.923094884E-1,1.216068877E0
8.292413208E0,1.030627892E0,3.898683661E-1,1.038753183E0,1.514331328E0
8.302380208E0,9.442902446E-1,1.553915101E-1,1.140851342E0,1.489084408E0
8.312347208E0,5.511059225E-1,7.507415593E-2,5.292548045E-1,7.677659244E-1
8.322314208E0,9.029135925E-1,9.018160701E-3,6.652283692E-1,1.121544946E0
8.332281208E0,1.034875894E0,-1.234967029E-1,4.384271167E-1,1.130680277E0
8.342248208E0,1.555309662E0,-4.068977970E-1,2.756254667E-1,1.631111082E0
8.352215208E0,3.408264821E0,-6.348795658E-1,6.411161330E-1,3.525673134E0
8.362182208E0,5.624801018E0,-6.820145559E-1,1.923276113E0,5.983520815E0
8.372149208E0,2.283313739E0,-3.870856762E-2,1.836631486E0,2.930569091E0
8.382116208E0,2.111377532E0,-6.053341699E-1,1.173418506E-1,2.199571242E0
8.392083208E0,1.445483165E0,-7.791479176E-1,8.259677428E-1,1.838128333E0
8.402050208E0,9.150465649E-1,-1.143852206E0,-1.951900353E-1,1.477771036E0
8.412017208E0,7.194156861E-1,-1.076259563E0,-2.764914393E-1,1.323760210E0
8.421984208E0,3.886293411E-2,-1.072362978E0,-6.787851387E-1,1.269733023E0
8.431951208E0,7.212248147E-2,-3.969931984E-1,-3.442226619E-1,5.303720325E-1
8.441917208E0,-1.348632224E0,8.948958904E-1,-8.415608782E-2,1.620718907E0
8.451884208E0,-3.777280846E0,9.092028576E-1,-1.491983147E0,4.161792179E0
8.461851208E0,-5.505761647E0,-1.621836358E-1,-1.448134292E0,5.695332104E0
8.471818208E0,-6.397640374E0,-1.646996927E-1,-1.934260692E0,6.685678183E0
8.481785208E0,-6.750108195E0,1.025876445E-1,-2.187617038E0,7.096488792E0
8.491752208E0,-4.188821332E0,8.390514725E-1,-1.642424989E0,4.576875722E0
8.501719208E0,-2.269506708E0,9.358725929E-1,-5.608935767E-1,2.518158020E0
8.511686208E0,-1.608235735E0,7.358136177E-3,6.292796874E-1,1.726982700E0
8.521653208E0,-1.239482834E0,-2.885589230E-1,1.171825871E0,1.729959485E0
8.531620208E0,-1.043936155E0,-1.070350367E-1,5.921136153E-1,1.204930590E0
8.541587208E0,-1.020943733E0,-4.425535333E-1,3.017221749E-2,1.113144240E0
8.551554208E0,-1.499326081E0,-8.723040032E-1,-1.457927209E-1,1.740732170E0
8.561521208E0,-1.568261830E0,-6.624620515E-1,2.944839066E-1,1.727721594E0
8.571488208E0,-1.381660806E0,6.017486572E-2,2.620534945E-1,1.407579352E0
8.581454208E0,-1.013848137E0,7.827343073E-1,3.198602378E-1,1.320178629E0
8.591421208E0,-3.487829053E-1,9.932916659E-1,5.669471991E-1,1.195703548E0
8.601388208E0,2.198851293E-1,8.907464138E-1,5.020150387E-1,1.045847858E0
8.611355208E0,5.656017548E-1,6.961279804E-1,4.808481181E-1,1.017700556E0
8.621322208E0,1.242643254E0,5.807507211E-1,4.310239935E-1,1.437781395E0
8.631289208E0,1.827250798E0,6.116304517E-1,3.176032126E-1,1.952897614E0
8.641256208E0,2.011679581E0,5.186734638E-1,1.788511240E-1,2.085153382E0
8.651223208E0,1.982137109E0,2.234531003E-1,-1.739312768E-2,1.994768490E0
8.661190208E0,2.442394842E0,1.382559523E-1,-9.599255165E-2,2.448187461E0
8.671157208E0,2.758421060E0,-3.104871511E-2,1.905525720E-1,2.765169263E0
8.681124208E0,2.485746683E0,-3.208221048E-1,2.879672213E-1,2.522853249E0
8.691091208E0,2.861646636E0,-7.597220054E-1,2.449901863E-1,2.970895351E0
8.701058208E0,3.068541591E0,-8.070715883E-1,2.961603399E-1,3.186694681E0
8.711025208E0,3.406398389E0,-1.016505112E0,4.797675526E-1,3.587061407E0
8.720992208E0,3.571227306E0,-1.050782952E0,7.590142000E-1,3.799198841E0
8.730959208E0,3.590358810E0,-1.113065739E0,1.103667802E0,3.917610795E0
8.740925208E0,3.589444891E0,-1.248594550E0,1.148349885E0,3.970114662E0
8.750892208E0,3.579002348E0,-1.196563686E0,1.256400583E0,3.977381662E0
8.760859208E0,3.235255065E0,-8.142139623E-1,1.342175728E0,3.596005478E0
8.770826208E0,2.880108050E0,-3.067405477E-1,1.194963888E0,3.133217330E0
8.780793208E0,2.523241369E0,4.043466568E-2,1.237898823E0,2.810831810E0
8.790760208E0,2.138764721E0,3.331927666E-1,1.361734664E0,2.557274574E0
8.800727208E0,1.518932379E0,3.905176994E-1,1.470490537E0,2.149884198E0
8.810694208E0,8.767157274E-1,4.672434014E-1,1.500227137E0,1.799341081E0
8.820661208E0,4.980769390E-1,5.084683183E-1,9.885419726E-1,1.218128031E0
8.830628208E0,1.102954441E-1,4.702620265E-1,4.067627263E-1,6.314803038E-1
8.840595208E0,-5.795128655E-1,2.257697672E-1,2.180428544E-2,6.223203162E-1
8.850562208E0,-1.287011926E0,1.602216026E-1,-2.686947437E-1,1.324487646E0
8.860529208E0,-1.459046951E0,2.280843875E-1,-4.879115546E-1,1.555280739E0
8.870496208E0,-1.452101628E0,3.587611789E-1,-6.533947742E-1,1.632247975E0
8.880463208E0,-1.472122495E0,4.321253166E-1,-9.342657781E-1,1.796309960E0
8.890429208E0,-1.529243944E0,4.699451074E-1,-1.051136416E0,1.914242203E0
8.900396208E0,-1.764301429E0,2.112713036E-1,-1.133876857E0,2.107859535E0
8.910363208E0,-1.904055730E0,-3.555019408E-2,-1.269569682E0,2.288776795E0
8.920330208E0,-1.824694980E0,-6.488012016E-2,-1.295255331E0,2.238617335E0
8.930297208E0,-1.872618760E0,-2.268558875E-1,-1.324181507E0,2.304695484E0
8.940264208E0,-1.665338473E0,-2.338009179E-1,-1.334422320E0,2.146787840E0
8.950231208E0,-1.776925567E0,-5.062566090E-1,-1.200114700E0,2.203187582E0
8.960198208E0,-1.845916865E0,-6.799151132E-1,-1.318276404E0,2.368025825E0
8.970165208E0,-1.586651908E0,-5.736405069E-1,-1.239513239E0,2.093542638E0
8.980132208E0,-1.752390066E0,1.262788081E-1,-9.625686407E-1,2.003336135E0
8.990099208E0,-1.305737634E0,5.255594373E-1,-8.101247851E-1,1.624027604E0
9.000066208E0,-9.534978551E-1,5.450888452E-1,-6.526211876E-1,1.277573647E0
9.010033208E0,-7.633224285E-1,1.054099785E0,-3.868027440E-1,1.357720092E0
9.020000208E0,-2.653004533E-1,1.479638213E0,-1.325400797E-1,1.509066084E0
9.029967208E0,9.868228912E-2,1.712769333E0,-2.693461418E-2,1.715821219E0
9.039934208E0,5.382584202E-1,2.036789572E0,4.259703912E-2,2.107142234E0
9.049900208E0,8.576742697E-1,2.058149451E0,-6.095780790E-2,2.230538089E0
9.059867208E0,9.910188532E-1,2.008261007E0,-3.348389771E-1,2.264364763E0
9.069834208E0,1.087168713E0,1.911828142E0,-4.940236491E-1,2.254125555E0
9.079801208E0,1.182605213E0,1.629629527E0,-5.418608167E-1,2.085152424E0
9.089768208E0,1.362105378E0,1.429595110E0,-6.301601319E-1,2.072721648E0
9.099735208E0,1.427777211E0,1.211615296E0,-6.337550001E-1,1.976918003E0
9.109702208E0,1.436852090E0,8.886817619E-1,-5.825681088E-1,1.787088359E0
9.119669208E0,1.461053131E0,5.851191759E-1,-5.649101023E-1,1.672173473E0
9.129636208E0,1.660756010E0,3.272379622E-1,-4.361438155E-1,1.747975011E0
9.139603208E0,1.894349352E0,1.466192248E-1,-2.748905448E-1,1.919797249E0
9.149570208E0,2.204615479E0,1.810064077E-2,-6.719503284E-2,2.205713538E0
9.159537208E0,2.535032279E0,-5.447266102E-3,2.297885585E-1,2.545431420E0
9.169504208E0,2.710815369E0,7.705694675E-2,3.443682575E-1,2.733687480E0
9.179471208E0,2.821442935E0,3.354921842E-1,2.600948234E-1,2.853199005E0
9.189438208E0,2.882691350E0,3.188691348E-1,2.843517783E-1,2.914179624E0
9.199405208E0,2.856785846E0,2.210612968E-1,6.737161875E-2,2.866118002E0
9.209371208E0,2.824923783E0,3.734102082E-1,-6.577953887E-1,2.924435730E0
9.219338208E0,2.718995039E0,-5.144380331E-3,-5.320545244E-1,2.770567181E0
9.229305208E0,2.344482631E0,-5.004558787E-1,6.470294952E-2,2.398174590E0
9.239272208E0,2.028233634E0,-8.813724500E-1,-1.773144758E-1,2.218555722E0
9.249239042E0,1.391645511E0,-1.497249734E0,-4.990862415E-1,2.104167549E0
9.259206042E0,7.897348863E-1,-2.117925829E0,-9.171966592E-1,2.439373017E0
9.269173042E0,3.407406449E-2,-2.464069009E0,-1.368736267E0,2.818906896E0
9.279140042E0,-8.678057402E-1,-2.466121966E0,-1.535353115E0,3.031856451E0
9.289107042E0,-2.078254809E0,-2.769019724E0,-1.442936118E0,3.750823632E0
9.299074042E0,-3.361563694E0,-3.273702847E0,-1.085524476E0,4.816181494E0
9.309041042E0,-4.553335587E0,-4.311409670E0,-6.578375617E-1,6.305066897E0
9.319008042E0,-6.203816285E0,-5.352372808E0,-5.275300220E-1,8.210573616E0
9.328975042E0,-7.482916929E0,-5.704922490E0,-2.852892331E-1,9.413903352E0
9.338942042E0,-8.985732043E0,-6.589593354E0,-4.234500951E-1,1.115102824E1
9.348909042E0,-9.690689903E0,-7.069348043E0,-5.147512977E-1,1.200625343E1
9.358875042E0,-9.811705048E0,-7.382831308E0,-8.687407100E-1,1.230977110E1
9.368842042E0,-9.805468408E0,-7.430045235E0,-1.233270752E0,1.236421205E1
9.378809042E0,-1.055701454E1,-7.885721675E0,-1.110635344E0,1.322379194E1
9.388776042E0,-1.195981303E1,-8.332195181E0,-1.520103577E0,1.465514651E1
9.398743042E0,-1.292842536E1,-8.405370162E0,-1.694735204E0,1.551343151E1
9.408710042E0,-1.283520203E1,-8.181160432E0,-1.650307475E0,1.531003958E1
9.418677042E0,-1.211456778E1,-7.493564708E0,-1.440134132E0,1.431748061E1
9.428644042E0,-9.609425300E0,-5.331968365E0,-6.048354024E-1,1.100621493E1
9.438611042E0,-6.140338327E0,-2.519628959E0,9.300949591E-1,6.702041592E0
9.448578042E0,-3.089170568E0,-8.346496886E-1,2.919614178E0,4.331715809E0
9.458545042E0,-6.010762274E-1,-2.657691076E-1,3.951688086E0,4.005966123E0
9.468512042E0,1.142699136E0,6.032853055E-1,3.750131639E0,3.966510026E0
9.478479042E0,2.199935367E0,1.449396122E0,3.140415566E0,4.099106569E0
9.488446042E0,2.932406132E0,1.882251755E0,2.634655970E0,4.368442454E0
9.498413042E0,3.918225641E0,2.822992448E0,2.494825071E0,5.435616861E0
9.508380042E0,4.829919412E0,3.744028316E0,2.568287149E0,6.628873844E0
9.518347042E0,5.754496354E0,4.562773578E0,2.607168210E0,7.792974854E0
9.528313042E0,6.443729298E0,5.195427693E0,2.757122394E0,8.724439241E0
9.538280042E0,7.033260782E0,5.643642501E0,3.065352520E0,9.524381554E0
9.548247042E0,7.665927762E0,5.877946279E0,3.084857662E0,1.014066308E1
9.558214042E0,8.109067771E0,6.120788162E0,2.806921960E0,1.054039082E1
9.568181042E0,8.565498501E0,6.440040289E0,2.675533855E0,1.104537754E1
9.578148042E0,8.894904318E0,6.519989854E0,2.370640150E0,1.128049313E1
9.588115042E0,9.046819659E0,6.411309410E0,1.880305656E0,1.124657208E1
9.598082042E0,8.948369504E0,6.197583153E0,1.405002891E0,1.097530805E1
9.608049042E0,9.050626196E0,6.117908993E0,1.372468983E0,1.101028229E1
9.618016042E0,9.161509870E0,5.970729312E0,1.523771535E0,1.104104847E1
9.627983042E0,9.022283573E0,5.683193067E0,1.718401955E0,1.080061061E1
9.637950042E0,8.395158584E0,5.285968904E0,1.632565999E0,1.005412486E1
9.647917042E0,7.836054840E0,5.067252633E0,9.752664542E-1,9.382534272E0
9.657884042E0,7.623561761E0,4.908484356E0,5.219704163E-1,9.082090382E0
9.667851042E0,7.455269539E0,4.834350432E0,7.809517837E-1,8.919746279E0
9.677817042E0,7.518549861E0,4.810099105E0,1.158952129E0,9.000489734E0
9.687784042E0,7.451279399E0,4.715834388E0,1.228965447E0,8.903427133E0
9.697751042E0,7.178595082E0,4.583553997E0,9.402580778E-1,8.568855224E0
9.707718042E0,6.869943956E0,4.341431322E0,3.333953726E-1,8.133591357E0
9.717685042E0,6.547906800E0,4.097128805E0,1.593180251E-1,7.725731689E0
9.727652042E0,6.397022908E0,3.868392161E0,4.066294829E-1,7.486768831E0
9.737619042E0,5.999080122E0,3.399124453E0,7.484248924E-1,6.935643386E0
9.747586042E0,5.225617452E0,2.817745156E0,9.520448220E-1,6.012749360E0
9.757553042E0,4.168055531E0,2.285669582E0,7.315533364E-1,4.809588613E0
9.767520042E0,2.842026304E0,1.647369980E0,4.622059886E-1,3.317314537E0
9.777487042E0,1.330942642E0,7.336378688E-1,3.878528309E-1,1.568458688E0
9.787454042E0,-4.573592681E-1,-2.835197926E-1,6.993024337E-1,8.823745614E-1
9.797421042E0,-2.775589655E0,-1.277653458E0,1.205249725E0,3.284649630E0
9.807388042E0,-5.218671545E0,-2.273309737E0,2.659406649E0,6.282906460E0
9.817355042E0,-7.958991380E0,-3.399204560E0,4.949110225E0,9.969645302E0
9.827322042E0,-9.905245296E0,-4.340682878E0,4.382745994E0,1.166892774E1
9.837289042E0,-1.137343437E1,-5.126442828E0,1.301873794E0,1.254313760E1
9.847255042E0,-1.182686606E1,-5.387947268E0,-8.761929133E-1,1.302583781E1
9.857222042E0,-9.600072094E0,-6.697663933E0,-1.541231906E0,1.180658639E1
9.867189042E0,-7.392756371E0,-6.757458730E0,-5.565722505E0,1.145833157E1
9.877156042E0,-1.230572379E1,-8.424691701E0,-5.454468702E0,1.587946778E1
9.887123042E0,-1.746647281E1,-1.080815713E1,-3.320229726E0,2.080667822E1
9.897090042E0,-1.579534209E1,-9.053978405E0,-2.825628372E0,1.842421049E1
9.907057042E0,-1.137981368E1,-5.886936958E0,-2.428206573E0,1.304041308E1
9.917024042E0,-7.736454538E0,-3.443264499E0,-1.085152666E0,8.537350616E0
9.926991042E0,-4.677377835E0,-1.853059239E0,-4.146207994E-1,5.048128600E0
9.936958042E0,-3.653875360E0,-1.626232295E0,-2.099378461E-1,4.004935770E0
9.946925042E0,-3.382418958E0,-1.222456911E0,-8.980814534E-1,3.706981144E0
9.956892042E0,-2.698944352E0,-8.120671570E-1,-1.016015700E0,2.996004270E0
9.966859042E0,-1.818816774E0,-4.352632248E-1,-6.203523047E-1,1.970376998E0
9.976826042E0,-1.035674624E0,-1.059807837E-1,-2.806360189E-1,1.078244141E0
9.986793042E0,-1.422650957E-1,1.499372274E-1,-4.333372982E-1,4.801059712E-1
9.996760042E0,6.774122125E-1,4.439738220E-1,-5.019326661E-1,9.528569995E-1
1.000672604E1,1.400095323E0,7.839549136E-1,-2.629978929E-1,1.626044314E0
1.001669304E1,2.132873066E0,9.700443059E-1,-8.745505035E-2,2.344734923E0
1.002666004E1,2.724590240E0,1.088237000E0,5.474579908E-2,2.934390711E0
1.003662704E1,3.054643344E0,1.190546901E0,3.760373622E-1,3.299947270E0
1.004659404E1,3.432022642E0,1.245489094E0,6.398877060E-1,3.706680291E0
1.005656104E1,3.830180606E0,1.473129385E0,6.837739100E-1,4.160281291E0
1.006652804E1,4.215373539E0,1.715537112E0,1.056259747E0,4.672058038E0
1.007649504E1,4.413884756E0,1.854782413E0,1.155893962E0,4.925310883E0
1.008646204E1,4.442489335E0,1.965493302E0,1.379900794E0,5.050049664E0
1.009642904E1,4.381046208E0,2.116720133E0,1.575603594E0,5.114352030E0
1.010639604E1,4.238094065E0,2.247712381E0,1.475602757E0,5.019069211E0
1.011636304E1,3.921456227E0,2.142293808E0,1.435294392E0,4.693326293E0
1.012633004E1,3.496165429E0,1.955838087E0,1.496665744E0,4.276503674E0
1.013629704E1,3.104945771E0,1.806667430E0,1.451732084E0,3.874565974E0
1.014626404E1,2.764512690E0,1.725474163E0,1.366446936E0,3.533690525E0
1.015623104E1,2.404340578E0,1.623094387E0,1.223678395E0,3.148440537E0
1.016619704E1,2.071664413E0,1.481752274E0,1.125891314E0,2.784782665E0
1.017616404E1,2.228631163E0,1.393628302E0,9.987319154E-1,2.811843193E0
1.018613104E1,2.894208611E0,1.568211251E0,3.488747066E-1,3.310202950E0
1.019609804E1,3.487993945E0,1.754714919E0,-6.490774825E-2,3.905040233E0
1.020606504E1,3.692379860E0,1.890255716E0,1.276153354E-1,4.150062816E0
1.021603204E1,4.012901418E0,2.219398701E0,1.336416221E-1,4.587697513E0
1.022599904E1,4.345514433E0,2.711385181E0,-4.817462504E-1,5.144626783E0
1.023596604E1,4.539477686E0,3.190845754E0,-7.837198555E-1,5.603799702E0
1.024593304E1,4.306069116E0,3.198160621E0,-9.779291300E-1,5.452229633E0
1.025590054E1,3.947813721E0,3.129698789E0,-1.181733978E0,5.174624903E0
1.026586754E1,3.438065740E0,2.776346577E0,-1.477232523E0,4.659464805E0
1.027583454E1,2.558276131E0,2.335745721E0,-1.506698981E0,3.777648297E0
1.028580154E1,1.392925467E0,1.514184440E0,-1.360237923E0,2.466423136E0
1.029576854E1,3.839919144E-1,6.519703925E-1,-1.108229361E0,1.341896978E0
1.030573554E1,-1.597585616E0,-1.140271079E0,-9.864030612E-1,2.196699555E0
1.031570154E1,-3.079846013E0,-2.977712113E0,-1.288041036E0,4.473395869E0
1.032566854E1,-4.397049453E0,-4.357493916E0,-1.509096047E0,6.371747641E0
1.033563554E1,-6.183249289E0,-5.279320035E0,-1.878413058E0,8.344592705E0
1.034560254E1,-8.115572798E0,-5.942799502E0,-1.536542585E0,1.017547792E1
1.035556954E1,-9.114908731E0,-6.768326365E0,-1.009441676E0,1.139784082E1
1.036553654E1,-1.104445598E1,-8.241479723E0,3.500264619E-1,1.378493796E1
1.037550354E1,-1.244554124E1,-9.326368607E0,9.150955354E-1,1.557915428E1
1.038547054E1,-1.249271891E1,-9.193666633E0,-7.619309373E-1,1.552971573E1
1.039543754E1,-1.199094127E1,-8.109566538E0,6.724283382E-2,1.447592013E1
1.040540454E1,-1.284685904E1,-7.830308781E0,6.767565934E-1,1.506032942E1
1.041537154E1,-1.498974897E1,-8.132960079E0,9.126076913E-1,1.707836253E1
1.042533854E1,-1.533368219E1,-6.807037271E0,1.054939591E0,1.680983235E1
1.043530554E1,-1.288989805E1,-5.156990436E0,8.711703743E-1,1.391053414E1
1.044527254E1,-1.012415452E1,-4.312695181E0,1.233031601E0,1.107331077E1
1.045523954E1,-8.134755174E0,-4.058421699E0,1.317316729E0,9.185877846E0
1.046520654E1,-6.907493021E0,-3.977800874E0,1.158072489E0,8.054656512E0
1.047517354E1,-5.752054557E0,-3.706293017E0,1.589406969E0,7.024881071E0
1.048514054E1,-4.584268527E0,-3.324592042E0,2.090181960E0,6.036330905E0
1.049510654E1,-3.445839028E0,-2.925729781E0,2.264064559E0,5.055659174E0
1.050507354E1,-2.004708531E0,-2.052873800E0,2.256834330E0,3.650540827E0
1.051504054E1,-3.840936559E-1,-6.796195364E-1,2.165887615E0,2.302277093E0
1.052500754E1,1.602807764E0,6.671781233E-1,1.826593425E0,2.520032325E0
1.053497454E1,3.518139265E0,1.767820576E0,1.545295721E0,4.229708304E0
1.054494154E1,5.022434894E0,2.757994506E0,1.656724940E0,5.964572364E0
1.055490854E1,6.125065400E0,3.668088772E0,1.922665079E0,7.393777275E0
1.056487554E1,6.844360049E0,4.366570256E0,1.817340353E0,8.319550844E0
1.057484254E1,7.518697795E0,5.139221333E0,1.838990838E0,9.291087113E0
1.058480954E1,7.985444768E0,5.672715442E0,2.009848818E0,9.999326022E0
1.059477654E1,8.396049115E0,5.987412003E0,2.183428677E0,1.054087776E1
1.060474354E1,8.788891960E0,6.239030557E0,2.371344155E0,1.103600459E1
1.061471054E1,9.139518492E0,6.331268629E0,2.513530898E0,1.139884197E1
1.062467754E1,9.258364320E0,6.180353748E0,2.267956027E0,1.136035681E1
1.063464454E1,9.172714305E0,5.571671462E0,1.077745925E0,1.078627586E1
1.064461054E1,9.267079010E0,5.338449419E0,4.457724255E-1,1.070404170E1
1.065457754E1,1.030695954E1,5.626662771E0,1.186536881E0,1.180256830E1
1.066454454E1,1.083069698E1,5.779414263E0,1.852173386E0,1.241515898E1
1.067451154E1,9.965593239E0,5.445212560E0,1.334686614E0,1.143436823E1
1.068447854E1,9.065269378E0,5.248889955E0,7.968749213E-1,1.050547306E1
1.069444554E1,8.580596012E0,4.962686291E0,3.081962121E-1,9.917150198E0
1.070441254E1,8.296676854E0,4.671009340E0,7.198507190E-2,9.521468213E0
1.071437954E1,7.997308769E0,4.507559782E0,-6.377673229E-2,9.180365472E0
1.072434654E1,7.755946816E0,4.396810009E0,-1.255701256E-1,8.916412795E0
1.073431354E1,7.549396262E0,4.375685481E0,-1.484397372E-1,8.727086668E0
1.074428054E1,7.412058030E0,4.308904431E0,-5.838912606E-2,8.573719784E0
1.075424754E1,7.469508094E0,4.037488082E0,2.500444829E-1,8.494550219E0
1.076421454E1,7.402490231E0,3.796548884E0,6.118041140E-1,8.341759366E0
1.077418154E1,7.356794241E0,3.700933459E0,8.279914641E-1,8.276768683E0
1.078414854E1,7.125476051E0,3.507228361E0,7.043848336E-1,7.973030648E0
1.079411454E1,6.670037593E0,3.241502815E0,4.669493230E-1,7.430665089E0
1.080408154E1,5.606454209E0,2.851304958E0,6.072742395E-1,6.319102054E0
1.081404854E1,4.234289866E0,2.208159476E0,6.938586760E-1,4.825621080E0
1.082401554E1,2.738404287E0,1.293364634E0,6.924629456E-1,3.106630819E0
1.083398254E1,1.027836431E0,3.470410198E-1,8.772822496E-1,1.395173589E0
1.084394954E1,-1.456525047E0,-7.117187038E-1,1.359692232E0,2.115838295E0
1.085391654E1,-5.809525670E0,-2.302890217E0,1.639852799E0,6.460882994E0
1.086388354E1,-8.642618598E0,-3.792832393E0,2.292797776E0,9.712741911E0
1.087385054E1,-8.824124358E0,-3.746557821E0,2.880771124E0,1.001003039E1
1.088381754E1,-9.570436651E0,-3.792830054E0,4.563430220E0,1.126071547E1
1.089378454E1,-1.151703848E1,-4.489921948E0,4.380764957E0,1.311459782E1
1.090375154E1,-1.071870292E1,-4.170026920E0,-2.473042438E0,1.176416830E1
1.091371854E1,-8.579589121E0,-3.428771883E0,-6.478553560E0,1.128439109E1
1.092368554E1,-8.160504557E0,-6.821707351E0,-2.714888540E0,1.097725583E1
1.093365254E1,-1.039395675E1,-8.880625418E0,-1.897401160E0,1.380217287E1
1.094361954E1,-1.630315523E1,-9.381528901E0,-5.617700744E-1,1.881811735E1
1.095358654E1,-1.804399178E1,-9.620064894E0,-1.161751995E0,2.048123423E1
1.096355254E1,-1.686746299E1,-9.155818191E0,-2.145827865E0,1.931178117E1
1.097351954E1,-1.242492045E1,-6.525100905E0,-2.598680976E0,1.427265682E1
1.098348654E1,-6.932974017E0,-3.563488223E0,-2.121784114E0,8.078771247E0
1.099345354E1,-4.063124322E0,-2.295992256E0,-5.227153516E-1,4.696146403E0
1.100342054E1,-2.325528882E0,-1.604805466E0,-1.291544688E-1,2.828456476E0
1.101338754E1,-8.337024397E-1,-7.258034769E-1,-8.633415373E-1,1.402572299E0
1.102335454E1,-1.198866320E-1,-7.392547041E-2,-6.195876351E-1,6.353948515E-1
1.103332154E1,5.926305091E-1,6.354593173E-1,-7.272049083E-1,1.133069478E0
1.104328854E1,1.287552794E0,1.119276067E0,-7.159050179E-1,1.850159751E0
1.105325554E1,1.691646266E0,1.303155212E0,-4.631754935E-1,2.185042822E0
1.106322254E1,2.360692867E0,1.615628662E0,-2.735801107E-1,2.873668885E0
1.107318954E1,3.006482168E0,1.740578398E0,-3.391724217E-1,3.490499408E0
1.108315654E1,3.469307998E0,1.715361403E0,-4.313374043E-1,3.894177023E0
1.109312354E1,4.135771884E0,1.874803280E0,-2.355710162E-1,4.546975931E0
1.110309054E1,4.614091666E0,1.869410685E0,-2.743854184E-1,4.985962853E0
1.111305754E1,4.849590615E0,1.838579194E0,2.322543293E-1,5.191612915E0
1.112302354E1,5.100097028E0,1.981881586E0,5.645529105E-1,5.500687621E0
1.113299054E1,5.312929831E0,2.138382605E0,7.167755221E-1,5.771799607E0
1.114295754E1,5.158923526E0,2.094951826E0,9.838576220E-1,5.654316132E0
1.115292454E1,4.973694259E0,2.169691521E0,1.056144264E0,5.528167561E0
1.116289154E1,4.599976487E0,2.169939151E0,1.170776003E0,5.219112573E0
1.117285854E1,4.252877580E0,1.961630047E0,1.161223553E0,4.825287586E0
1.118282554E1,3.838480729E0,1.718874995E0,9.253557909E-1,4.306361445E0
1.119279254E1,3.134250262E0,1.511459930E0,6.990159202E-1,3.549177240E0
1.120275954E1,2.480201769E0,1.239551539E0,4.981549993E-1,2.817099081E0
1.121272654E1,2.087109833E0,1.100544511E0,7.992354423E-2,2.360850154E0
1.122269354E1,1.731145962E0,8.682074440E-1,-2.514530772E-1,1.952915553E0
1.123266054E1,1.643400305E0,7.763149416E-1,-8.404241064E-1,2.002434051E0
1.124262754E1,1.869539031E0,7.585984629E-1,-1.103401753E0,2.299596323E0
1.125259429E1,2.266847979E0,7.266498613E-1,-1.139647474E0,2.639207485E0
1.126256129E1,2.567648633E0,7.485146472E-1,-1.118427343E0,2.898960745E0
1.127252829E1,2.951568627E0,6.413047788E-1,-8.911115724E-1,3.149144171E0
1.128249429E1,3.463357286E0,7.560096082E-1,-7.970311882E-1,3.633407896E0
1.129246129E1,4.002686917E0,1.017914876E0,-9.931011929E-1,4.247811581E0
1.130242829E1,4.285495103E0,1.189203503E0,-1.200157093E0,4.606522582E0
1.131239529E1,4.360105575E0,1.437723617E0,-1.314398530E0,4.775480428E0
1.132236229E1,4.133918316E0,1.701633018E0,-1.089345339E0,4.601250791E0
1.133232929E1,3.648188943E0,1.714704469E0,-9.736219248E-1,4.146978856E0
1.134229629E1,2.860937369E0,1.364988640E0,-7.187397480E-1,3.250345126E0
1.135226329E1,1.700077951E0,8.203617248E-1,-7.499325970E-1,2.031171411E0
1.136223029E1,7.936864346E-1,3.194409925E-1,-1.260494218E0,1.523425869E0
1.137219729E1,-5.505644703E-1,-6.874129978E-1,-1.473392510E0,1.716549840E0
1.138216429E1,-2.608817124E0,-2.348488559E0,-1.753548399E0,3.923806479E0
1.139213129E1,-4.535439599E0,-3.689031159E0,-1.730001662E0,6.096890109E0
1.140209829E1,-6.101842598E0,-4.159491406E0,-1.518941296E0,7.539299339E0
1.141206529E1,-7.144987625E0,-3.972518792E0,-9.655425346E-1,8.231890797E0
1.142203229E1,-7.807610475E0,-4.133146776E0,-9.725527614E-2,8.834655748E0
1.143199829E1,-8.466801594E0,-4.773629144E0,2.982305101E-1,9.724361464E0
1.144196529E1,-9.591673154E0,-5.557438170E0,3.847554146E-1,1.109203992E1
1.145193229E1,-1.089240265E1,-6.259100540E0,8.970216456E-1,1.259465850E1
1.146189929E1,-1.134523208E1,-6.472757800E0,1.417364489E0,1.313848570E1
1.147186629E1,-1.198644125E1,-6.379355546E0,1.245229916E0,1.363530523E1
1.148183329E1,-1.324433522E1,-6.576497930E0,1.160843046E0,1.483274408E1
1.149180029E1,-1.438102341E1,-6.900237211E0,9.624768394E-1,1.597978315E1
1.150176729E1,-1.376715699E1,-6.410260420E0,1.131186553E0,1.522844815E1
1.151173429E1,-1.216663841E1,-5.536612726E0,9.433919661E-1,1.340041638E1
1.152170129E1,-1.079733043E1,-4.996888994E0,9.765199511E-1,1.193753891E1
1.153166829E1,-9.437295551E0,-4.614169141E0,1.368440105E0,1.059366473E1
1.154163529E1,-7.676137000E0,-3.681818034E0,1.874716741E0,8.717420842E0
1.155160229E1,-5.998986567E0,-2.922333426E0,2.662188170E0,7.184366244E0
1.156156929E1,-4.513448220E0,-2.306844689E0,3.038758214E0,5.909889909E0
1.157153629E1,-2.716991199E0,-1.597187713E0,2.747081555E0,4.180850013E0
1.158150329E1,-5.950962800E-1,-9.231677628E-1,2.358693265E0,2.601886281E0
1.159147029E1,1.504150034E0,2.210305989E-2,2.055473911E0,2.547141313E0
1.160143629E1,3.113126026E0,9.605343944E-1,1.507613924E0,3.589857897E0
1.161140329E1,4.412483178E0,1.819059434E0,1.105720613E0,4.899143098E0
1.162137029E1,5.250339480E0,2.481037336E0,1.153661934E0,5.920519131E0
1.163133729E1,6.090587293E0,3.085591195E0,7.943309440E-1,6.873651740E0
1.164130429E1,7.043320917E0,3.734472211E0,6.177694434E-1,7.996017216E0
1.165127129E1,7.696668913E0,4.394969306E0,5.974398440E-1,8.883208988E0
1.166123829E1,8.311149883E0,4.924609222E0,6.394591051E-1,9.681730027E0
1.167120529E1,8.791715580E0,5.259407927E0,5.864897633E-1,1.026155957E1
1.168117229E1,9.225440987E0,5.492752762E0,5.754057813E-1,1.075221773E1
1.169113929E1,9.471883585E0,5.569740711E0,5.692837465E-1,1.100284846E1
1.170110629E1,9.602786372E0,5.547338274E0,4.001378310E-1,1.109714280E1
1.171107329E1,9.469876821E0,5.407748864E0,-3.796661443E-1,1.091175793E1
1.172104029E1,9.769062474E0,5.219396600E0,-9.044144996E-1,1.111281459E1
1.173100729E1,9.991906879E0,5.291109191E0,-6.513652056E-1,1.132511882E1
1.174097429E1,9.514258942E0,5.287917781E0,2.543538809E-4,1.088499875E1
1.175094029E1,9.018005165E0,5.158695484E0,7.455901623E-2,1.038951949E1
1.176090729E1,8.418624045E0,4.743918564E0,-1.680279644E-1,9.664689729E0
1.177087429E1,8.127772429E0,4.502419787E0,-2.275478324E-1,9.294312595E0
1.178084129E1,7.921256958E0,4.304314659E0,-2.889231315E-1,9.019806708E0
1.179080829E1,7.773642245E0,4.131797824E0,-1.900462031E-1,8.805531476E0
1.180077529E1,7.669191678E0,4.104034367E0,-1.715499982E-3,8.698252814E0
1.181074229E1,7.615852207E0,4.035437756E0,2.450076914E-1,8.622412162E0
1.182070929E1,7.572251274E0,4.065614944E0,2.708477068E-1,8.598928579E0
1.183067629E1,7.698128963E0,3.945931795E0,9.709593952E-2,8.651069002E0
1.184064329E1,7.594556063E0,3.824029628E0,1.038933277E-2,8.502975498E0
1.185061029E1,7.433909075E0,3.727762239E0,-1.418190993E-2,8.316214077E0
1.186057729E1,7.099640129E0,3.538621477E0,2.748243982E-1,7.937396321E0
1.187054429E1,6.007564432E0,3.168856423E0,4.376091278E-1,6.806172433E0
1.188051129E1,4.596240701E0,2.554867497E0,7.203681976E-1,5.307702596E0
1.189047829E1,3.051878781E0,1.544680594E0,8.580827708E-1,3.526515032E0
1.190044529E1,8.218086183E-1,3.627074647E-1,1.014553311E0,1.355081006E0
1.191041129E1,-2.070686758E0,-1.013033328E0,1.069041029E0,2.541029102E0
1.192037829E1,-4.385864314E0,-2.216035091E0,1.613188326E0,5.171942950E0
1.193034529E1,-5.557313039E0,-3.413122980E0,3.027356728E0,7.190133896E0
1.194031229E1,-7.702522561E0,-4.651334921E0,5.821561579E0,1.071701216E1
1.195027929E1,-1.138765831E1,-5.950376909E0,5.512184814E0,1.398105606E1
1.196024629E1,-1.037072927E1,-4.574200206E0,-3.638532266E-2,1.133475439E1
1.197021329E1,-7.893740546E0,-3.014163070E0,-6.142117050E0,1.044614382E1
1.198018029E1,-1.017833015E1,-6.025262784E0,-1.813463064E0,1.196623769E1
1.199014729E1,-9.134134961E0,-7.038206942E0,-2.453274171E0,1.178928889E1
1.200011429E1,-9.527440320E0,-8.037643447E0,-3.856374963E0,1.304789098E1
1.201008129E1,-1.327734509E1,-9.072260309E0,-2.121874161E0,1.622023889E1
1.202004829E1,-1.681393758E1,-9.316603757E0,-1.548678481E0,1.928486473E1
1.203001529E1,-1.441436424E1,-6.420228753E0,-2.568904907E0,1.598726074E1
1.203998229E1,-1.334652700E1,-6.359302520E0,-2.347540871E0,1.496935068E1
1.204994929E1,-1.023008970E1,-4.219137099E0,-1.761538035E-1,1.106737924E1
1.205991629E1,-4.700364994E0,-1.534702320E0,7.848186935E-1,5.006464088E0
1.206988329E1,-3.512059915E0,-8.953528503E-1,-5.116679147E-2,3.624753732E0
1.207984929E1,-2.276245040E0,-4.902372846E-1,-1.031632590E0,2.546741030E0
1.208981629E1,-5.438091820E-1,3.079152533E-1,-7.063666011E-1,9.431298982E-1
1.209978329E1,7.476729405E-1,8.337898555E-1,1.690532371E-2,1.120047383E0
1.210975029E1,1.262096940E0,1.045124017E0,2.031568301E-1,1.651195202E0
1.211971729E1,1.717504992E0,1.488142696E0,2.300633776E-1,2.284145626E0
1.212968429E1,2.420849606E0,1.642228815E0,1.917167526E-1,2.931583806E0
1.213965129E1,2.946744674E0,1.811360990E0,1.551669770E-1,3.462428281E0
1.214961829E1,3.406368569E0,1.850503713E0,7.575769544E-2,3.877299324E0
1.215958529E1,3.681582976E0,1.839636371E0,1.019081980E-1,4.116879943E0
1.216955229E1,3.985297297E0,1.887413093E0,1.027776790E-1,4.410837333E0
1.217951929E1,4.331398669E0,1.856423434E0,3.443420912E-1,4.725028453E0
1.218948629E1,4.677869586E0,1.649366804E0,4.544327366E-1,4.980901909E0
1.219945329E1,4.933670653E0,1.747202124E0,4.773966528E-1,5.255637824E0
1.220942029E1,5.192311127E0,1.931230957E0,4.519638960E-1,5.558238859E0
1.221938729E1,5.124779879E0,1.880297616E0,6.771631211E-1,5.500676125E0
1.222935329E1,4.804133776E0,1.734329771E0,9.257639265E-1,5.190822665E0
1.223932029E1,4.443496810E0,1.547124145E0,8.855713356E-1,4.787744105E0
1.224928729E1,3.878206712E0,1.376616413E0,9.065439825E-1,4.213950883E0
1.225925379E1,3.234112519E0,1.315138203E0,9.196173334E-1,3.610369554E0
1.226922079E1,2.708363632E0,1.234214492E0,9.119566038E-1,3.112906009E0
1.227918779E1,2.376224241E0,1.221064982E0,7.493949455E-1,2.774713340E0
1.228915479E1,2.308491265E0,1.330983280E0,2.545921549E-1,2.676838728E0
1.229912179E1,2.308684223E0,1.359770585E0,-1.937755573E-1,2.686363313E0
1.230908879E1,2.241047725E0,1.303972360E0,-3.724707069E-1,2.619422312E0
1.231905579E1,2.417365251E0,1.377509283E0,-4.944161434E-1,2.825886392E0
1.232902279E1,2.704674039E0,1.543731591E0,-4.606379481E-1,3.148103588E0
1.233898979E1,2.903217416E0,1.427086655E0,-4.919221598E-1,3.272191176E0
1.234895679E1,3.010857055E0,1.176984577E0,-3.422351933E-1,3.250796491E0
1.235892379E1,3.045570220E0,8.923941591E-1,-1.760802747E-1,3.178501150E0
1.236889079E1,3.142656219E0,9.032430831E-1,-2.587059635E-1,3.280101363E0
1.237885679E1,3.241428555E0,8.801644152E-1,-4.318961057E-1,3.386455776E0
1.238882379E1,3.081214846E0,7.399262568E-1,-7.184568889E-1,3.249239310E0
1.239879079E1,2.399931777E0,2.962567824E-1,-1.080537678E0,2.648584960E0
1.240875779E1,1.750179234E0,2.210104260E-1,-1.657184970E0,2.420379099E0
1.241872479E1,3.541202438E-1,-1.167817605E-1,-1.997887169E0,2.032385856E0
1.242869179E1,-9.823947948E-1,-6.069216889E-1,-1.890285830E0,2.215092320E0
1.243865879E1,-2.427825919E0,-1.443597438E0,-1.373164802E0,3.140683656E0
1.244862579E1,-3.865221215E0,-2.175139080E0,-8.379203287E-1,4.513676499E0
1.245859279E1,-5.456891788E0,-3.112465875E0,-2.069095731E-1,6.285532864E0
1.246855979E1,-6.988844748E0,-3.996447937E0,2.903497790E-1,8.056044316E0
1.247852679E1,-8.205800598E0,-4.695818199E0,6.014469409E-1,9.473521544E0
1.248849379E1,-9.409642898E0,-5.406190581E0,8.549002044E-1,1.088573059E1
1.249846079E1,-1.030668589E1,-5.849864441E0,5.428154477E-1,1.186352968E1
1.250842779E1,-1.026012685E1,-5.607813102E0,-9.003396481E-2,1.169298409E1
1.251839479E1,-1.064692367E1,-5.652410985E0,-6.233161122E-2,1.205448542E1
1.252836179E1,-1.219527690E1,-6.439007671E0,7.295125119E-1,1.381006108E1
1.253832879E1,-1.339857892E1,-6.813137087E0,9.293587947E-1,1.506002861E1
1.254829479E1,-1.391261349E1,-6.400126026E0,9.047659904E-1,1.534082882E1
1.255826179E1,-1.288635815E1,-5.594911805E0,6.197142273E-1,1.406219436E1
1.256822879E1,-1.055323023E1,-4.869795669E0,7.198466259E-1,1.164490263E1
1.257819579E1,-8.487860926E0,-4.207804610E0,1.556999508E0,9.600710922E0
1.258816279E1,-6.974104502E0,-3.675522337E0,2.135860409E0,8.167588245E0
1.259812979E1,-5.681314942E0,-3.113035979E0,2.591625726E0,6.977453430E0
1.260809679E1,-4.422904086E0,-2.691916291E0,2.991952422E0,5.979989395E0
1.261806379E1,-3.171364878E0,-2.456350684E0,3.039466311E0,5.032849027E0
1.262803079E1,-1.669912750E0,-2.036773784E0,2.848498002E0,3.879561433E0
1.263799779E1,1.511388302E-2,-1.321195918E0,2.786519271E0,3.083906083E0
1.264796479E1,1.791724870E0,-1.201965344E-1,2.566558127E0,3.132402567E0
1.265793179E1,3.343387624E0,1.263008521E0,2.055317790E0,4.122834286E0
1.266789879E1,4.187561842E0,2.176443886E0,1.445225741E0,4.935712675E0
1.267786579E1,4.960003588E0,2.792339589E0,1.163580566E0,5.809708746E0
1.268783279E1,5.639010921E0,3.326345622E0,8.715409416E-1,6.604740947E0
1.269779879E1,6.343702734E0,3.849658559E0,5.775220348E-1,7.442846706E0
1.270776579E1,7.085154821E0,4.344564553E0,4.541824758E-1,8.323517388E0
1.271773279E1,7.813247191E0,4.662925857E0,2.882789876E-1,9.103450664E0
1.272769979E1,8.499565882E0,4.979145033E0,6.445926681E-2,9.850820293E0
1.273766679E1,8.997839288E0,5.327223934E0,-1.044343413E-1,1.045711878E1
1.274763379E1,9.338481699E0,5.387578894E0,-3.883225085E-1,1.078814355E1
1.275760079E1,9.611911536E0,5.294162607E0,-6.784600335E-1,1.099442173E1
1.276756779E1,9.759615712E0,5.129782172E0,-9.269183131E-1,1.106453531E1
1.277753479E1,9.785270371E0,5.003843088E0,-1.493052603E0,1.109140063E1
1.278750179E1,9.360549091E0,4.821204137E0,-2.274402582E0,1.077203768E1
1.279746879E1,9.308200724E0,4.721489815E0,-2.622874416E0,1.076171627E1
1.280743579E1,9.432292088E0,5.048577796E0,-2.076921498E0,1.089815923E1
1.281740279E1,9.096250851E0,5.391890046E0,-1.539089486E0,1.068564711E1
1.282736979E1,8.461706330E0,5.376703073E0,-1.183778164E0,1.009508498E1
1.283733679E1,8.111710128E0,5.092017345E0,-1.011863592E0,9.630802135E0
1.284730379E1,8.090695235E0,4.663191905E0,-7.804753818E-1,9.370904436E0
1.285726979E1,7.952746553E0,4.156558443E0,-7.271983302E-1,9.002886939E0
1.286723679E1,7.894429348E0,3.784389599E0,-8.354870099E-1,8.794410606E0
1.287720379E1,7.812121602E0,3.607589093E0,-7.980778398E-1,8.641809488E0
1.288717079E1,7.465113911E0,3.349275185E0,-6.261894339E-1,8.205954130E0
1.289713779E1,6.926759012E0,3.000263654E0,-3.241602802E-1,7.555570944E0
1.290710479E1,6.313823462E0,2.467176511E0,-4.709692472E-1,6.795081947E0
1.291707179E1,5.150274324E0,1.911348670E0,-5.131284030E-1,5.517416072E0
1.292703879E1,3.883606616E0,1.466930459E0,-2.281713648E-1,4.157685352E0
1.293700579E1,2.523898596E0,6.287703949E-1,1.897421479E-2,2.601110600E0
1.294697279E1,3.192667454E-1,-4.780841392E-1,5.104163182E-1,7.687785876E-1
1.295693979E1,-2.155659081E0,-1.795793655E0,1.631184010E0,3.245381672E0
1.296690679E1,-4.441042149E0,-2.915819335E0,2.626872449E0,5.926661508E0
1.297687379E1,-6.302686855E0,-3.358833044E0,3.401416269E0,7.910452177E0
1.298684079E1,-6.605484917E0,-3.524582897E0,4.597393772E0,8.785849138E0
1.299680779E1,-7.621084296E0,-4.448104124E0,5.022313857E0,1.015333406E1
1.300677479E1,-1.072234457E1,-5.960318345E0,5.756523584E0,1.355107492E1
1.301674079E1,-8.887323988E0,-4.329359453E0,7.558435473E-1,9.914594314E0
1.302670779E1,-6.425430436E0,-1.050317806E0,-4.168555468E0,7.730858844E0
1.303667479E1,-4.938926715E0,-8.487695450E-1,-9.438318229E-1,5.099433826E0
1.304664179E1,-1.619150147E0,-6.262826970E-1,-3.628562179E0,4.022479422E0
1.305660879E1,-3.814973168E0,-3.349338628E0,-4.244535942E0,6.617263398E0
1.306657579E1,-1.358260015E1,-6.837232293E0,-2.792559444E0,1.546069728E1
1.307654279E1,-1.798867127E1,-9.434895269E0,-1.439321369E0,2.036372237E1
1.308650979E1,-2.077237862E1,-8.101440078E0,-2.416467264E0,2.242686690E1
1.309647679E1,-1.395493096E1,-3.599341011E0,-2.541396389E0,1.463400319E1
1.310644379E1,-5.452504038E0,-8.416230780E-1,3.549147342E-1,5.528480275E0
1.311641079E1,-3.866544440E0,-1.214831850E0,2.349887797E-1,4.059704676E0
1.312637779E1,-2.729648082E0,-1.532519262E0,-6.258029330E-1,3.192369535E0
1.313634479E1,-1.306086128E0,-1.313672306E0,-7.277456295E-1,1.990278775E0
1.314631179E1,-5.290449625E-1,-9.177892014E-1,-3.684090847E-1,1.121584078E0
1.315627879E1,-3.553095675E-1,-7.723920447E-1,-6.510172963E-2,8.526855192E-1
1.316624579E1,-5.809618056E-2,-4.766565415E-1,2.032977480E-1,5.214466407E-1
1.317621179E1,5.487372154E-1,2.934717536E-3,4.360259941E-1,7.008850203E-1
1.318617879E1,1.268630619E0,3.578507674E-1,3.006930649E-1,1.351997462E0
1.319614579E1,1.958165864E0,7.111193642E-1,2.180005717E-1,2.094666692E0
1.320611279E1,2.744579532E0,1.010931838E0,2.873957656E-1,2.938927749E0
1.321607979E1,3.482961831E0,1.157296125E0,4.672714680E-1,3.699824329E0
1.322604679E1,3.955253718E0,1.223359429E0,5.304003471E-1,4.173962721E0
1.323601379E1,4.307886431E0,1.345186752E0,3.551173402E-1,4.526977051E0
1.324598079E1,4.536306156E0,1.546839970E0,4.263840817E-1,4.811713917E0
1.325594792E1,4.515060298E0,1.660838456E0,5.384028465E-1,4.840870944E0
1.326591492E1,4.292194843E0,1.663531099E0,6.566364706E-1,4.649886422E0
1.327588192E1,3.908184217E0,1.614561837E0,7.717190301E-1,4.298402501E0
1.328584892E1,3.538065407E0,1.635056913E0,7.870668018E-1,3.976278672E0
1.329581592E1,3.028154873E0,1.628988088E0,7.972573292E-1,3.529722846E0
1.330578292E1,2.418639359E0,1.473033783E0,8.605971466E-1,2.959775722E0
1.331574992E1,1.941874352E0,1.321680652E0,7.804068232E-1,2.475227374E0
1.332571692E1,1.618630915E0,1.252306070E0,4.361566794E-1,2.092479195E0
1.333568292E1,1.337861068E0,1.066456706E0,3.858402193E-2,1.711341833E0
1.334564992E1,1.176170352E0,7.892744181E-1,-2.723635975E-1,1.442398258E0
1.335561692E1,1.223697106E0,6.188619956E-1,-3.335517856E-1,1.411269489E0
1.336558392E1,1.435044715E0,6.042348933E-1,-3.217917193E-1,1.589969513E0
1.337555092E1,1.622329863E0,5.972965872E-1,-3.665661885E-1,1.767226123E0
1.338551792E1,2.015020096E0,7.533479556E-1,-3.613468176E-1,2.181378154E0
1.339548492E1,2.578305184E0,9.076530531E-1,-3.787548557E-1,2.759519329E0
1.340545192E1,3.097513960E0,1.153424098E0,-3.567626005E-1,3.324493862E0
1.341541892E1,3.304441075E0,1.438437855E0,-3.878237410E-1,3.624753996E0
1.342538592E1,3.442451736E0,1.731727467E0,-4.767857650E-1,3.882869898E0
1.343535292E1,3.558399684E0,1.966664207E0,-7.830830938E-1,4.140434222E0
1.344531992E1,3.633363912E0,2.176644153E0,-1.083455731E0,4.371840506E0
1.345528692E1,3.613852923E0,2.348304956E0,-1.219089500E0,4.478911511E0
1.346525392E1,3.510946020E0,2.505701769E0,-1.179469059E0,4.471736863E0
1.347522092E1,3.251297486E0,2.433300960E0,-1.191063503E0,4.232082368E0
1.348518692E1,2.874669555E0,2.108689859E0,-1.084107696E0,3.726337004E0
1.349515392E1,2.187776667E0,1.713535318E0,-9.973750690E-1,2.952511991E0
1.350512092E1,1.481104987E0,1.279491530E0,-1.125739871E0,2.257888575E0
1.351508792E1,1.439327216E-1,5.118801686E-1,-9.324037322E-1,1.073366040E0
1.352505492E1,-1.793622876E0,-8.941541710E-1,-6.951405318E-1,2.121276753E0
1.353502192E1,-3.595886768E0,-1.933936172E0,-3.116047002E-1,4.094827011E0
1.354498892E1,-5.764006850E0,-3.258548910E0,1.753185287E-1,6.623643450E0
1.355495592E1,-7.794913831E0,-4.529224301E0,2.778020927E-1,9.019519300E0
1.356492292E1,-9.152751326E0,-5.464728811E0,3.857785311E-1,1.066700253E1
1.357488992E1,-1.007220552E1,-6.239332273E0,5.107640813E-1,1.185915137E1
1.358485692E1,-1.026371236E1,-6.701661090E0,6.386407873E-1,1.227452300E1
1.359482392E1,-1.016392729E1,-6.821609117E0,6.131026344E-1,1.225624998E1
1.360479092E1,-1.101380371E1,-7.214708655E0,7.252839518E-1,1.318642976E1
1.361475792E1,-1.271652928E1,-7.546817640E0,9.556022680E-1,1.481815606E1
1.362472492E1,-1.397421391E1,-7.479585185E0,8.250906605E-1,1.587147200E1
1.363469192E1,-1.382890709E1,-6.650058242E0,6.823020928E-1,1.535993106E1
1.364465792E1,-1.235826453E1,-5.645904204E0,9.651557413E-1,1.362110355E1
1.365462492E1,-1.066721117E1,-5.072061968E0,1.735815987E0,1.193852017E1
1.366459192E1,-9.134887497E0,-4.448920980E0,2.003296575E0,1.035626693E1
1.367455892E1,-7.743331448E0,-3.819205382E0,1.742688512E0,8.808091446E0
1.368452592E1,-6.602727955E0,-3.463488264E0,1.691891849E0,7.645538924E0
1.369449292E1,-5.392339112E0,-3.116762702E0,1.854723941E0,6.498579209E0
1.370445992E1,-3.855360471E0,-2.595301870E0,1.927415210E0,5.031334371E0
1.371442692E1,-2.157532529E0,-2.024847219E0,2.267150134E0,3.727589382E0
1.372439392E1,-5.637487721E-1,-1.281997354E0,2.385386243E0,2.766115946E0
1.373436092E1,7.432302260E-1,-4.408397144E-1,2.516516486E0,2.660749152E0
1.374432792E1,2.161260713E0,4.566973633E-1,2.290192988E0,3.181918332E0
1.375429492E1,3.402336329E0,1.328676554E0,1.783494183E0,4.064741736E0
1.376426192E1,4.619295688E0,2.129316497E0,1.326291621E0,5.256513184E0
1.377422892E1,5.610857747E0,2.754565699E0,1.215191746E0,6.367577862E0
1.378419592E1,6.377332994E0,3.308284450E0,1.140812093E0,7.274377936E0
1.379416292E1,7.118609081E0,3.837424429E0,1.002650573E0,8.148971080E0
1.380412892E1,7.653985409E0,4.301215342E0,7.941458796E-1,8.815589245E0
1.381409592E1,8.197498137E0,4.684528980E0,5.100847811E-1,9.455367468E0
1.382406292E1,8.745571693E0,5.031588711E0,1.659363788E-1,1.009105763E1
1.383402992E1,9.092375901E0,5.309769995E0,1.842983902E-2,1.052925907E1
1.384399692E1,9.373156857E0,5.587519755E0,-6.875346199E-2,1.091243206E1
1.385396392E1,9.557544125E0,5.779320123E0,-1.792364556E-1,1.117046626E1
1.386393092E1,9.795684847E0,5.810520866E0,-4.202861667E-1,1.139711520E1
1.387389792E1,1.006297511E1,5.651570156E0,-7.673301101E-1,1.156687117E1
1.388386492E1,9.897867279E0,5.548404806E0,-9.509706885E-1,1.138669916E1
1.389383192E1,9.373746257E0,5.338707865E0,-1.336678176E0,1.086994154E1
1.390379892E1,8.710538101E0,4.973755655E0,-1.887350820E0,1.020655733E1
1.391376592E1,8.705682573E0,4.946633345E0,-1.610442912E0,1.014157862E1
1.392373292E1,8.664433975E0,5.092167034E0,-1.106793723E0,1.011076523E1
1.393369992E1,8.356217882E0,5.024298987E0,-8.413077669E-1,9.786611076E0
1.394366692E1,8.142374096E0,4.825098383E0,-5.134480995E-1,9.478578969E0
1.395363292E1,7.896321507E0,4.576035940E0,-5.215365529E-1,9.141334620E0
1.396359992E1,7.900384153E0,4.343052170E0,-3.789475214E-1,9.023401417E0
1.397356692E1,7.732714074E0,4.126049134E0,-3.319128111E-2,8.764716200E0
1.398353392E1,7.441347318E0,3.920918283E0,-2.394887969E-2,8.411172549E0
1.399350092E1,7.103173601E0,3.708665525E0,-1.099627376E-2,8.013076569E0
1.400346792E1,6.466625240E0,3.341904185E0,2.849083601E-1,7.284692056E0
1.401343492E1,4.969760837E0,2.599486430E0,7.864540136E-1,5.663423204E0
1.402340192E1,3.515800964E0,1.954138009E0,1.516332561E0,4.298694710E0
1.403336892E1,1.694562272E0,1.219035413E0,2.483936970E0,3.244615772E0
1.404333592E1,-8.545302218E-1,2.420925620E-1,3.485755631E0,3.597127052E0
1.405330292E1,-3.022970731E0,-6.398266026E-1,3.401375046E0,4.595332668E0
1.406326992E1,-5.059977527E0,-1.916246590E0,2.114899895E0,5.809317958E0
1.407323692E1,-6.191118472E0,-2.247452180E0,1.213052250E0,6.697199787E0
1.408320392E1,-7.000353237E0,-2.728071088E0,2.001318169E0,7.775126476E0
1.409317092E1,-8.941079196E0,-3.738055385E0,3.097544658E0,1.017402271E1
1.410313792E1,-8.650492458E0,-4.224690785E0,-4.858451486E-3,9.626996188E0
1.411310492E1,-5.344524091E0,-3.696838654E0,-3.983615053E0,7.622318721E0
1.412307092E1,-3.305797044E0,-3.033379652E0,-2.888283335E0,5.335903563E0
1.413303792E1,-2.657088813E0,-2.804207683E0,-2.884999538E0,4.821506406E0
1.414300492E1,-6.941192279E0,-5.926536641E0,-3.348912658E0,9.722098683E0
1.415297192E1,-1.501838278E1,-1.066425365E1,-8.805484311E-1,1.844053939E1
1.416293892E1,-1.390208500E1,-9.289486710E0,-1.149928048E0,1.675962008E1
1.417290592E1,-1.492116347E1,-8.724552122E0,-6.603950608E-1,1.729725558E1
1.418287292E1,-1.700211267E1,-7.255280730E0,-1.906642831E0,1.858349323E1
1.419283992E1,-8.679970027E0,-2.314187330E0,-1.144826937E0,9.055825273E0
1.420280692E1,-4.380432250E0,-1.541457024E0,8.181307197E-1,4.715253369E0
1.421277392E1,-3.072721766E0,-8.267688113E-1,3.932802165E-1,3.206218184E0
1.422274092E1,-2.296116802E0,-5.187907004E-1,1.239875767E-1,2.357258806E0
1.423270792E1,-1.736352907E0,-3.561653075E-1,-1.274431349E-1,1.777081005E0
1.424267492E1,-1.426015445E0,-3.655509657E-1,-6.434495375E-2,1.473529040E0
1.425264192E1,-9.398258954E-1,-3.416145113E-1,2.150921667E-1,1.022857677E0
1.426260892E1,-2.754021031E-1,-2.529830012E-1,9.174690664E-2,3.850509215E-1
1.427257592E1,3.639190078E-1,-1.121735698E-1,3.496634960E-4,3.808150158E-1
1.428254192E1,1.065596581E0,5.997109026E-2,8.803640977E-2,1.070907565E0
1.429250892E1,1.646036814E0,1.905870706E-1,3.435413150E-1,1.692271037E0
1.430247592E1,2.047144114E0,3.024615553E-1,4.170816001E-1,2.110980596E0
1.431244292E1,2.295962436E0,4.761606976E-1,4.331851244E-1,2.384496145E0
1.432240992E1,2.709364091E0,7.061270115E-1,4.716317368E-1,2.839314288E0
1.433237692E1,3.112077620E0,8.458462295E-1,5.758273655E-1,3.275982313E0
1.434234392E1,3.493776841E0,1.087887921E0,7.294413221E-1,3.731227866E0
1.435231092E1,3.687101578E0,1.342396460E0,1.008064510E0,4.051288728E0
1.436227792E1,3.832680291E0,1.613247383E0,1.107832189E0,4.303405336E0
1.437224492E1,3.941192919E0,1.784514961E0,1.028679600E0,4.446985157E0
1.438221192E1,3.870046923E0,1.932391922E0,8.430888288E-1,4.407062570E0
1.439217892E1,3.842860293E0,1.966524751E0,7.416633184E-1,4.380052432E0
1.440214592E1,3.633376776E0,1.922662447E0,8.537946421E-1,4.198454832E0
1.441211292E1,3.345167516E0,1.885015442E0,9.852293788E-1,3.964102150E0
1.442207992E1,2.991710347E0,1.765317383E0,9.903891081E-1,3.612138819E0
1.443204692E1,2.715220662E0,1.656951520E0,7.781845888E-1,3.274672936E0
1.444201292E1,2.715645754E0,1.622888565E0,4.057920885E-1,3.189540151E0
1.445197992E1,2.855885959E0,1.635562112E0,5.351225585E-2,3.291505977E0
1.446194692E1,3.087768406E0,1.595355196E0,-2.429360229E-1,3.484033559E0
1.447191392E1,3.115347968E0,1.476663735E0,-2.747951621E-1,3.458531643E0
1.448188092E1,3.147756160E0,1.404906996E0,-3.275045952E-1,3.462570111E0
1.449184792E1,3.200116223E0,1.404589493E0,-3.273768336E-1,3.510098442E0
1.450181492E1,3.338573027E0,1.395700555E0,-3.571070015E-1,3.636148416E0
1.451178192E1,3.430121713E0,1.283807360E0,-4.743549313E-1,3.693089344E0
1.452174892E1,3.463938500E0,1.232032312E0,-7.109794696E-1,3.744631538E0
1.453171592E1,3.469289871E0,1.176627897E0,-7.173703301E-1,3.732967400E0
1.454168292E1,3.213985818E0,1.084778956E0,-5.686212569E-1,3.439444774E0
1.455164992E1,2.746563492E0,9.368119481E-1,-7.583844548E-1,2.999395709E0
1.456161692E1,2.325127763E0,7.554032519E-1,-1.087928851E0,2.675900292E0
1.457158392E1,1.920522074E0,5.953906873E-1,-1.392319695E0,2.445700154E0
1.458155092E1,1.210195885E0,1.911852407E-1,-1.387453642E0,1.850987165E0
1.459151692E1,-9.848933101E-2,-6.670608866E-1,-1.130009216E0,1.315899389E0
1.460148392E1,-1.293031635E0,-1.668032578E0,-9.835398258E-1,2.328435973E0
1.461145092E1,-2.197600574E0,-2.350416386E0,-9.981340376E-1,3.369002378E0
1.462141792E1,-3.461113710E0,-3.057541809E0,-7.176195677E-1,4.673633262E0
1.463138492E1,-5.235547194E0,-3.738483693E0,-3.949626066E-1,6.445402253E0
1.464135192E1,-7.212797785E0,-4.838611591E0,-3.501371205E-2,8.685495954E0
1.465131892E1,-8.825870921E0,-5.854886030E0,5.245288655E-1,1.060428302E1
1.466128592E1,-1.026994198E1,-6.523938478E0,1.036373951E0,1.221096035E1
1.467125292E1,-1.087299808E1,-6.583551427E0,8.901637387E-1,1.274196327E1
1.468121992E1,-1.154527351E1,-6.651659210E0,8.550978403E-1,1.335174532E1
1.469118692E1,-1.239744672E1,-6.971697788E0,6.443624340E-1,1.423785300E1
1.470115392E1,-1.338028415E1,-7.074878340E0,4.192737213E-1,1.514139022E1
1.471112092E1,-1.378940915E1,-6.690356083E0,5.655739805E-1,1.533716216E1
1.472108792E1,-1.314366487E1,-5.832874187E0,6.363878551E-1,1.439386456E1
1.473105492E1,-1.174245098E1,-4.671210777E0,1.056739072E0,1.268156389E1
1.474102192E1,-1.017032297E1,-4.064882872E0,1.633271173E0,1.107367675E1
1.475098792E1,-8.613894736E0,-3.781129776E0,1.749782208E0,9.568587287E0
1.476095492E1,-7.202499084E0,-3.375409316E0,1.643298563E0,8.122180204E0
1.477092192E1,-6.180865964E0,-3.164514281E0,1.723583758E0,7.154578650E0
1.478088892E1,-4.949551690E0,-2.796239974E0,2.067239825E0,6.049008218E0
1.479085592E1,-3.468857762E0,-2.342068900E0,2.384378183E0,4.817003242E0
1.480082292E1,-1.948541932E0,-1.645689782E0,2.575583305E0,3.624739974E0
1.481078992E1,-5.310803783E-1,-9.015421280E-1,2.632797725E0,2.833098734E0
1.482075692E1,5.914002550E-1,-1.750325999E-1,2.408882402E0,2.486585028E0
1.483072392E1,1.815017254E0,5.902384132E-1,1.774961926E0,2.606368902E0
1.484069092E1,3.115029879E0,1.458320142E0,9.860595372E-1,3.578047260E0
1.485065792E1,4.348642693E0,2.267443518E0,5.088730918E-1,4.930613066E0
1.486062492E1,5.440003860E0,3.009770350E0,3.124103004E-1,6.224946566E0
1.487059192E1,6.246273503E0,3.613740364E0,2.530610615E-1,7.220740405E0
1.488055892E1,7.107896397E0,4.176276716E0,2.003415419E-1,8.246430448E0
1.489052592E1,7.940414191E0,4.648583221E0,2.572144850E-1,9.204654409E0
1.490049292E1,8.385251647E0,5.071916957E0,2.693682151E-1,9.803537424E0
1.491045892E1,8.635499613E0,5.427309555E0,3.463758990E-2,1.019944814E1
1.492042592E1,9.034498991E0,5.670997530E0,-2.345411754E-1,1.066946084E1
1.493039292E1,9.330598483E0,5.817053375E0,-2.699508901E-1,1.099868408E1
1.494035992E1,9.503521700E0,5.777930825E0,-2.617592333E-1,1.112519336E1
1.495032692E1,9.793309708E0,5.649628880E0,-3.125434707E-1,1.131038925E1
1.496029392E1,1.000593084E1,5.523656466E0,-4.955848557E-1,1.144006281E1
1.497026092E1,9.612065903E0,5.285853714E0,-9.422717857E-1,1.100999258E1
1.498022792E1,8.883989321E0,4.676702482E0,-1.654601816E0,1.017519138E1
1.499019492E1,8.795035045E0,4.673883539E0,-1.938810410E0,1.014676375E1
1.500016192E1,8.750844128E0,4.848827553E0,-1.275464260E0,1.008539591E1
1.501012892E1,8.701927491E0,5.009868643E0,-7.111522548E-1,1.006618415E1
1.502009592E1,8.403057588E0,4.881847073E0,-3.858355415E-1,9.725876656E0
1.503006292E1,8.268441235E0,4.688254533E0,-2.030742382E-1,9.507265126E0
1.504002992E1,8.203760505E0,4.554913750E0,2.250644468E-2,9.383465897E0
1.504999692E1,8.095308688E0,4.397312577E0,1.386701544E-1,9.213555777E0
1.505996292E1,7.899621091E0,4.188161474E0,1.050048103E-1,8.941797131E0
1.506992992E1,7.642517849E0,4.019147998E0,-1.168567510E-1,8.635698304E0
1.507989692E1,7.414860016E0,3.812641006E0,-2.947043467E-1,8.342855096E0
1.508986392E1,7.057751260E0,3.513642756E0,-3.163073234E-1,7.890347812E0
1.509983092E1,6.234277940E0,3.025447319E0,4.229831949E-2,6.929743290E0
1.510979792E1,4.560101400E0,2.707931523E0,7.581290777E-1,5.357441330E0
1.511976492E1,3.570923250E0,2.418429736E0,1.656389894E0,4.619948347E0
1.512973192E1,2.527170698E0,1.756141347E0,2.178553854E0,3.770506738E0
1.513969892E1,5.200735795E-1,1.034007875E0,2.648087902E0,2.889985874E0
1.514966592E1,-2.325840538E0,-1.117569557E-1,3.544126046E0,4.240619442E0
1.515963292E1,-4.826138602E0,-1.962531980E0,4.749380448E0,7.049805687E0
1.516959992E1,-7.243290430E0,-3.644094430E0,6.054285439E0,1.011924170E1
1.517956692E1,-8.813052070E0,-4.815758625E0,6.008495893E0,1.170313808E1
1.518953392E1,-9.781649775E0,-5.077989875E0,3.507029848E-1,1.102676952E1
1.519950092E1,-9.635917280E0,-4.365178911E0,-2.301599298E0,1.082603566E1
1.520946692E1,-6.309705852E0,-3.205373162E0,-1.184325610E0,7.175613716E0
1.521943392E1,-2.076548007E0,-6.306879893E-1,-1.868173999E0,2.863545539E0
1.522940092E1,-4.244209083E0,-3.401586423E0,-1.206200628E0,5.571267440E0
1.523936792E1,-1.356755176E1,-9.834175898E0,-3.137390217E0,1.704795277E1
1.524933492E1,-2.061976863E1,-1.197629283E1,-4.892175302E0,2.434214098E1
1.525930229E1,-1.716482431E1,-8.861274642E0,-2.140546952E0,1.943541415E1
1.526926929E1,-2.025462872E1,-1.076178053E1,-4.663052157E-1,2.294086627E1
1.527923629E1,-1.419719163E1,-6.146091403E0,-2.161173005E0,1.562067087E1
1.528920329E1,-6.017036337E0,-1.893928353E0,1.175103235E0,6.416584644E0
1.529917029E1,-4.122394624E0,-1.727597287E0,2.296884249E-1,4.475654879E0
1.530913729E1,-2.906810530E0,-1.364027650E0,-9.940725616E-1,3.361294266E0
1.531910429E1,-1.759861638E0,-8.311276183E-1,-4.965936466E-1,2.008604329E0
1.532907129E1,-1.030374708E0,-5.462080023E-1,-2.051115543E-1,1.184097111E0
1.533903829E1,-6.321366370E-1,-5.227182752E-1,3.511928353E-1,8.922822034E-1
1.534900529E1,1.103065538E-1,-4.342727065E-2,3.838800864E-1,4.017678240E-1
1.535897229E1,9.296137333E-1,5.280462581E-1,1.909335181E-2,1.069289063E0
1.536893829E1,1.477337626E0,7.207622999E-1,-2.077445555E-1,1.656859244E0
1.537890529E1,1.989557810E0,8.365564656E-1,-3.303766014E-1,2.183418352E0
1.538887229E1,2.746467013E0,1.059080443E0,-4.516792828E-1,2.978044092E0
1.539883929E1,3.520430789E0,1.275986709E0,-2.701760079E-1,3.754273578E0
1.540880629E1,3.962631150E0,1.475213333E0,5.249571741E-2,4.228647043E0
1.541877329E1,4.280308038E0,1.673153569E0,1.375320670E-1,4.597759763E0
1.542874029E1,4.597677947E0,1.812576334E0,3.008977175E-2,4.942163581E0
1.543870729E1,4.721811411E0,1.935700861E0,4.495266303E-2,5.103377467E0
1.544867429E1,4.777099759E0,1.980722668E0,2.570172876E-1,5.177837606E0
1.545864129E1,4.583400800E0,1.932138445E0,5.881439406E-1,5.008656023E0
1.546860829E1,4.331038481E0,1.903978547E0,8.538683170E-1,4.807506603E0
1.547857529E1,3.944038759E0,1.884962232E0,9.663551514E-1,4.476870182E0
1.548854229E1,3.482273614E0,1.786369405E0,1.111934595E0,4.068629219E0
1.549850929E1,3.067322447E0,1.695924966E0,1.013612933E0,3.648566795E0
1.550847629E1,2.836764979E0,1.704804548E0,7.900547290E-1,3.402613785E0
1.551844329E1,2.783344232E0,1.715829180E0,4.821356750E-1,3.305076353E0
1.552840929E1,2.911550283E0,1.714282007E0,1.551824722E-1,3.382302389E0
1.553837629E1,3.126617306E0,1.633176156E0,-1.505362746E-1,3.530674342E0
1.554834329E1,3.423628964E0,1.573383113E0,-5.585941592E-1,3.809041499E0
1.555831029E1,3.779994539E0,1.580287213E0,-7.478498188E-1,4.164726371E0
1.556827729E1,4.076213315E0,1.684762047E0,-7.648807114E-1,4.476492002E0
1.557824429E1,4.422664350E0,1.988773699E0,-8.926701477E-1,4.930724163E0
1.558821129E1,4.517065308E0,2.182189945E0,-1.101054681E0,5.135966643E0
1.559817829E1,4.486900692E0,2.159320022E0,-1.405199942E0,5.173927682E0
1.560814529E1,4.314744045E0,2.087472068E0,-1.683316030E0,5.080168173E0
1.561811229E1,4.089800490E0,1.986209987E0,-1.713333004E0,4.858704368E0
1.562807929E1,3.757060590E0,1.693479076E0,-1.473047524E0,4.376442010E0
1.563804629E1,3.328179601E0,1.420296868E0,-1.179584834E0,3.805974649E0
1.564801329E1,2.628953766E0,1.202077610E0,-9.950715584E-1,3.057213746E0
1.565798029E1,1.840377213E0,7.512324330E-1,-9.171375293E-1,2.189173292E0
1.566794729E1,8.370002693E-1,2.437441081E-2,-7.563224342E-1,1.128355967E0
1.567791329E1,-4.714551508E-1,-5.759978119E-1,-5.573060176E-1,9.298566748E-1
1.568788029E1,-2.559085386E0,-1.527900839E0,-2.037947613E-1,2.987462350E0
1.569784729E1,-5.023964526E0,-2.745451059E0,1.990304500E-1,5.728641566E0
1.570781429E1,-7.283211710E0,-3.940462017E0,6.372938812E-2,8.281091423E0
1.571778129E1,-8.879543098E0,-4.825667609E0,2.354407695E-1,1.010884691E1
1.572774829E1,-9.692425357E0,-5.175723161E0,4.278208888E-1,1.099610159E1
1.573771529E1,-9.823086069E0,-5.440340660E0,6.597913358E-1,1.124836215E1
1.574768229E1,-1.008678380E1,-5.881109038E0,9.485774231E-1,1.171454011E1
1.575764929E1,-1.134859890E1,-6.709640200E0,1.634756074E0,1.328466771E1
1.576761629E1,-1.333120964E1,-7.220580429E0,2.140489503E0,1.531142147E1
1.577758329E1,-1.466857545E1,-7.109558176E0,2.050754769E0,1.642919713E1
1.578755029E1,-1.490404399E1,-6.688156945E0,2.246292678E0,1.648962708E1
1.579751729E1,-1.399198945E1,-6.204188168E0,2.564642580E0,1.551918526E1
1.580748429E1,-1.245133700E1,-5.674878327E0,2.747256387E0,1.395662763E1
1.581745129E1,-1.107550821E1,-5.296804964E0,2.489399439E0,1.252677670E1
1.582741829E1,-9.779212655E0,-4.825324670E0,2.145304831E0,1.111391430E1
1.583738429E1,-8.629796823E0,-4.436471088E0,2.251598441E0,9.961192924E0
1.584735129E1,-7.488405125E0,-4.089724768E0,2.606729668E0,8.921720661E0
1.585731829E1,-6.022775964E0,-3.568339366E0,2.990931498E0,7.612657050E0
1.586728529E1,-4.579635778E0,-3.110806435E0,3.113983812E0,6.351934801E0
1.587725229E1,-3.088417447E0,-2.557930561E0,2.965530608E0,4.987554798E0
1.588721929E1,-1.584421780E0,-1.667652801E0,2.630543624E0,3.494455322E0
1.589718629E1,8.706504107E-3,-5.424254385E-1,2.152731818E0,2.220035009E0
1.590715329E1,1.636536843E0,6.181115055E-1,1.415406257E0,2.250264328E0
1.591712029E1,3.073973070E0,1.493705445E0,5.178130460E-1,3.456674231E0
1.592708729E1,4.274086601E0,2.226048155E0,-9.973741919E-3,4.819046185E0
1.593705429E1,5.334178612E0,2.819850446E0,-1.965839750E-1,6.036858725E0
1.594702129E1,5.932660430E0,3.197234130E0,-4.160650617E-1,6.752175649E0
1.595698829E1,6.680077263E0,3.636703549E0,-4.711241984E-1,7.620433252E0
1.596695529E1,7.540520189E0,4.263076001E0,-3.696757378E-1,8.670058931E0
1.597692229E1,8.204606012E0,4.817583834E0,-3.902414185E-1,9.522445178E0
1.598688929E1,8.852855821E0,5.391354441E0,-4.068948734E-1,1.037329853E1
1.599685529E1,9.452939191E0,5.801027911E0,-3.625016427E-1,1.109690910E1
1.600682229E1,9.811100446E0,6.081060424E0,-2.669449827E-1,1.154591908E1
1.601678929E1,1.013205762E1,6.076110756E0,-4.696740890E-1,1.182363342E1
1.602675629E1,1.034102308E1,5.801129068E0,-6.782091880E-1,1.187643989E1
1.603672329E1,9.993794360E0,5.424580659E0,-9.383037190E-1,1.140975087E1
1.604669029E1,8.864878281E0,4.711053996E0,-2.024097167E0,1.024095045E1
1.605665729E1,8.638791595E0,4.421870883E0,-2.590153981E0,1.004442930E1
1.606662429E1,9.111296321E0,4.807533347E0,-2.015388616E0,1.049713717E1
1.607659129E1,8.921092243E0,4.959651586E0,-1.326980569E0,1.029295429E1
1.608655829E1,8.766745631E0,4.952927288E0,-7.977810936E-1,1.010068178E1
1.609652529E1,8.654796594E0,4.779224052E0,-3.798957936E-1,9.893978342E0
1.610649229E1,8.413184381E0,4.501835358E0,-2.045139688E-1,9.544109124E0
1.611645929E1,8.100101650E0,4.279140934E0,-4.123830700E-1,9.170210122E0
1.612642629E1,8.037306647E0,4.167074660E0,-8.150640012E-1,9.089947123E0
1.613639329E1,7.885438669E0,4.190680162E0,-9.736714800E-1,8.982760120E0
1.614635929E1,7.685982542E0,4.222815582E0,-9.169363850E-1,8.817441319E0
1.615632629E1,7.692735491E0,4.197484567E0,-6.787219888E-1,8.789637056E0
1.616629329E1,7.852697185E0,4.172733011E0,-3.834639108E-1,8.900763924E0
1.617626029E1,7.578197892E0,3.956253300E0,-4.348106503E-2,8.548854547E0
1.618622729E1,6.809680213E0,3.644037127E0,-3.744556904E-3,7.723390784E0
1.619619429E1,5.572429846E0,3.086952427E0,2.896008968E-2,6.370407237E0
1.620616129E1,4.695091975E0,2.434921223E0,2.913147157E-1,5.296941974E0
1.621612829E1,3.759200671E0,2.207320400E0,6.901904252E-1,4.413639752E0
1.622609529E1,2.205984896E0,1.700289620E0,9.099780522E-1,2.930087748E0
1.623606229E1,8.142201018E-1,5.534907094E-1,1.652395661E0,1.923465040E0
1.624602929E1,-1.672976691E0,-8.332963505E-1,2.624162849E0,3.221717628E0
1.625599604E1,-6.763905870E0,-3.611259098E0,4.992250983E0,9.149545604E0
1.626596304E1,-1.121165127E1,-6.962757395E0,8.029277835E0,1.544831438E1
1.627593004E1,-1.171109821E1,-7.373044238E0,8.423256794E0,1.620070547E1
1.628589704E1,-1.277973300E1,-5.909865060E0,2.045406321E0,1.422785183E1
1.629586404E1,-1.221749047E1,-3.323032005E0,-3.581128103E0,1.315804293E1
1.630583004E1,-1.169122352E1,-3.559347225E0,-1.273438200E0,1.228720086E1
1.631579704E1,-1.703945299E0,5.629652452E-1,-2.245033480E0,2.874114607E0
1.632576404E1,-6.134723246E-1,-1.348849448E0,-3.680254196E0,3.967368659E0
