"Time (s)","Linear Acceleration x (m/s^2)","Linear Acceleration y (m/s^2)","Linear Acceleration z (m/s^2)","Absolute acceleration (m/s^2)"
7.872916758E-4,-4.996866775E-1,-1.385088444E-2,1.820760974E0,1.888133773E0
1.078929170E-2,-6.993591517E-1,-1.120373297E-1,2.095315230E0,2.211786948E0
2.079129172E-2,-6.247901952E-1,-5.207752454E-1,1.859873584E-1,8.343625961E-1
3.079329175E-2,-2.829432571E-1,-5.184006912E-1,5.202003179E-1,7.870225754E-1
4.079629167E-2,-2.744010597E-1,-1.924318671E-3,8.835568236E-1,9.251877134E-1
5.079829169E-2,-2.274631208E-1,-9.304791212E-2,1.432454107E0,1.453383003E0
6.080029171E-2,-2.936120868E-2,3.622180527E-1,1.692934992E0,1.731500184E0
7.080229174E-2,-2.691268712E-1,-2.192834508E-1,1.625937011E0,1.662584033E0
8.080429176E-2,4.429751176E-1,1.374130762E-1,1.615252978E0,1.680521196E0
9.080629167E-2,5.320837605E-1,-6.037653619E-1,1.054741809E0,1.326697413E0
1.008092917E-1,7.495136440E-1,-1.252725023E-1,2.194026610E0,2.321899366E0
1.108112917E-1,7.594159037E-1,-3.578145146E-1,2.580278034E0,2.713407171E0
1.208132918E-1,1.075466681E-1,-4.896388221E-1,3.148882919E0,3.188538239E0
1.308152917E-1,-1.166280956E0,-4.901831979E-1,3.010545398E0,3.265558824E0
1.408172917E-1,-2.730167899E0,-8.212724286E-1,3.490705299E0,4.507031023E0
1.508192917E-1,-3.297381147E0,-6.857140893E-1,2.452053273E0,4.165992258E0
1.608222917E-1,-3.614634696E0,-4.377249026E-1,3.689172077E-1,3.659684000E0
1.708242918E-1,-4.533335186E0,-3.140814346E-1,-2.609530485E-1,4.551688867E0
1.808262917E-1,-4.176985399E0,-3.892123085E-1,-2.755181118E0,5.018935767E0
1.908282917E-1,-2.419903527E0,4.339692360E-1,-4.048584051E0,4.736591094E0
2.008302917E-1,-6.509728575E-1,9.985787183E-1,-2.985488909E0,3.214664702E0
2.108332918E-1,-7.412012422E-1,-2.445241266E-1,-4.338701549E0,4.408344640E0
2.208352917E-1,8.627590084E-1,-2.290745550E0,-5.344812359E0,5.878680756E0
2.308372917E-1,1.093199531E0,-4.658345733E0,-1.023953880E0,4.893235303E0
2.408392917E-1,2.789887267E0,-6.404022610E-1,-1.972198889E0,3.476083209E0
2.508412917E-1,4.872760207E0,8.719233495E-1,-3.781626789E0,6.229345354E0
2.608432918E-1,3.490367330E0,8.242831600E-1,-4.047552310E0,5.407844906E0
2.708462917E-1,1.690073365E-1,5.748140430E-1,-2.646955881E0,2.713917850E0
2.808482917E-1,3.481853199E-1,4.969379014E-1,-1.384415722E0,1.511551251E0
2.908502917E-1,7.647807240E-1,1.390807021E-1,1.136804265E0,1.377155378E0
3.008522918E-1,1.407132447E-2,2.664891922E-1,2.012749622E0,2.030363399E0
3.108542917E-1,-2.385780931E-1,-2.378413439E-1,1.772594242E0,1.804322133E0
3.208572917E-1,1.330504686E-1,-3.740773755E-1,3.073279298E0,3.098819445E0
3.308592917E-1,8.430322570E-1,-1.843808359E-1,1.401951814E0,1.646258961E0
3.408612917E-1,1.475082940E-1,-7.776820207E-1,-2.741656216E0,2.853633969E0
3.508632918E-1,-9.104161549E-1,-7.989647162E-1,-2.624359901E0,2.890409501E0
3.608652917E-1,-8.882014132E-1,-4.063475740E-1,5.916692269E-1,1.141968728E0
3.708672917E-1,-5.510755169E-1,-1.843942845E-1,1.637889597E0,1.737920541E0
3.808702917E-1,-6.138389450E-1,-4.357731020E-1,1.018920889E0,1.266844989E0
3.908722918E-1,-8.597272271E-1,-4.622171348E-1,2.451924634E-1,1.006426812E0
4.008742917E-1,-1.827201097E0,-7.618840134E-1,3.822947600E-1,2.016254047E0
4.108762917E-1,-5.554029828E0,-1.853415334E0,-1.486650194E0,6.040904281E0
4.208782917E-1,-7.725112694E0,-2.689109336E0,-5.142675283E0,9.662079705E0
4.308802917E-1,-6.700913815E0,-1.624706172E0,-4.301494547E0,8.126793429E0
4.408832917E-1,-6.777135780E0,-8.943047369E-1,-3.959299115E0,7.899708844E0
4.508852917E-1,-5.548647466E0,-2.245542480E0,-2.420603146E0,6.456722800E0
4.608872917E-1,-2.991933711E0,-2.834952927E0,8.482582060E-1,4.208107343E0
4.708892917E-1,-1.752522798E0,-1.452495731E0,-1.487484884E-1,2.281053729E0
4.808912918E-1,-8.756384949E0,-5.579909019E0,1.172487893E1,1.566149571E1
4.908932917E-1,-4.051502981E0,-1.016013946E1,2.523793346E0,1.122553531E1
5.008962917E-1,-3.479399123E0,-8.151260694E0,-1.932744509E1,2.126262926E1
5.108982917E-1,-8.100951251E0,-9.745883526E0,8.678973661E0,1.536008596E1
5.209002917E-1,4.332775104E0,-5.359138622E0,-1.046918586E1,1.253384057E1
5.309022918E-1,1.094231331E1,-2.723451495E0,5.071072034E0,1.236394679E1
5.409042917E-1,1.407160046E1,6.600018355E0,6.212165524E0,1.673801608E1
5.509072917E-1,2.169886526E1,8.442338598E0,1.049101351E1,2.553772110E1
5.609092917E-1,1.228541875E1,5.059196924E0,8.498280079E0,1.577173902E1
5.709112918E-1,1.036996445E1,4.483622158E0,-6.240204093E0,1.290655560E1
5.809132917E-1,1.081981882E1,3.626700425E0,-8.338037134E0,1.413309232E1
5.909152917E-1,4.080855419E0,2.056370728E0,-6.960774604E0,8.326729527E0
6.009172917E-1,9.493071556E-1,1.807157865E0,-6.606725696E0,6.914898991E0
6.109202917E-1,1.702054895E0,1.674266587E0,-5.007844337E0,5.547852231E0
6.209222918E-1,-2.136249833E0,8.887597857E-2,-1.492725159E0,2.607621654E0
6.309242917E-1,-9.456257486E-1,8.052125758E-2,1.253080826E0,1.571910712E0
6.409262917E-1,1.358330415E0,-1.087162482E-1,2.600797960E0,2.936159187E0
6.509282917E-1,8.983223587E-1,-3.822658163E-1,2.226260409E0,2.430914565E0
6.609312918E-1,-2.182023007E-1,-3.560228547E-1,1.929192179E0,1.973865999E0
6.709332917E-1,-1.120856277E0,-1.690104209E0,1.675501811E0,2.630603990E0
6.809352917E-1,-1.337552335E0,-2.264226526E0,5.721784106E-1,2.691311231E0
6.909372917E-1,-1.984470733E0,-2.642167304E0,-4.789838795E-1,3.338951588E0
7.009392917E-1,-1.354606909E-1,-4.329067969E-1,-1.444675372E0,1.514214260E0
7.109412918E-1,3.162554294E-1,-6.938218385E-1,-2.404179195E-1,7.995042315E-1
7.209442917E-1,6.150545812E-1,-1.603462579E-1,-4.178996256E-1,7.606859781E-1
7.309462917E-1,5.762056804E-1,1.954641601E-1,-4.161770359E-1,7.371719943E-1
7.409482917E-1,7.435512382E-1,-1.250205969E-1,-1.051598346E-1,7.612865323E-1
7.509502918E-1,5.681938255E-1,-6.993239222E-1,9.239433959E-2,9.057786073E-1
7.609522917E-1,1.665234393E-1,-1.013435178E0,2.269234228E-1,1.051796157E0
7.709542917E-1,1.526532590E-2,-1.223062244E0,4.632044372E-1,1.307926846E0
7.809572917E-1,-1.972470492E-1,-1.516482396E0,-1.938351989E-1,1.541491920E0
7.909592917E-1,-7.497621506E-1,-1.575856486E0,-7.746861997E-1,1.909346918E0
8.009612918E-1,1.562221071E0,-1.657199149E0,3.330569358E0,4.034790694E0
8.109632917E-1,1.201502829E0,-9.676365687E-1,6.760188210E-1,1.684319157E0
8.209652917E-1,4.052129218E0,5.847723629E-1,2.186139154E0,4.641219055E0
8.309672917E-1,1.425543575E0,-1.278640614E-1,1.421572438E0,2.017273382E0
8.409702918E-1,-4.972337705E-1,5.076149172E-1,-2.037450015E0,2.157803719E0
8.509722917E-1,-1.060966170E0,3.278498733E-1,-1.399894179E0,1.786851551E0
8.609742917E-1,-3.809072742E0,-1.120066172E0,2.630177003E-1,3.979040299E0
8.709762917E-1,-2.016245087E0,3.646782687E-1,-1.847498537E0,2.758892048E0
8.809782501E-1,-5.616776884E-2,1.750942880E-1,-1.518204986E0,1.529300234E0
8.909812501E-1,2.244518632E0,5.039978296E-1,-3.901247665E-1,2.333254173E0
9.009832500E-1,1.174869931E0,1.650735491E-1,3.834604025E-3,1.186416173E0
9.109852500E-1,-1.486738780E0,1.911877989E0,-3.625039816E-2,2.422185735E0
9.209872501E-1,-1.716652468E0,1.876069494E0,-2.929630458E-1,2.559757760E0
9.309892501E-1,-1.711206957E0,7.920438056E-1,1.167750362E-1,1.889232396E0
9.409912501E-1,-6.126466978E-1,2.751690184E-1,9.629297063E-1,1.174004934E0
9.509942500E-1,4.428827316E-1,8.004233772E-1,1.791857310E0,2.011858672E0
9.609962500E-1,1.531377593E0,7.190404411E-1,9.119185969E-1,1.921908431E0
9.709982501E-1,1.331278857E0,2.649781986E-1,-1.586665356E-1,1.366635251E0
9.810002501E-1,1.772291064E-2,-5.531597570E-2,-5.415653130E-1,5.446714120E-1
9.910022500E-1,-1.391222758E0,4.205142081E-2,-5.648901486E-1,1.502121820E0
1.001004250E0,-1.480523774E0,5.333332374E-1,-6.712983638E-2,1.575087744E0
1.011007250E0,-7.527606028E-1,6.036364308E-1,4.088569066E-1,1.047945340E0
1.021009250E0,-9.361567676E-1,6.487522312E-2,2.360050258E-1,9.676242351E-1
1.031011250E0,-5.406107551E0,7.638524786E-2,-1.241505093E0,5.547356889E0
1.041013250E0,3.846988428E-1,1.722082485E0,1.591883411E0,2.376479346E0
1.051015250E0,2.194084643E0,8.107836932E-2,7.890475461E-1,2.333061755E0
1.061018250E0,2.903429085E-1,-1.190196653E0,-1.010343024E0,1.587973584E0
1.071020250E0,-1.484280610E-1,-8.845398867E-1,3.650299788E-2,8.976492463E-1
1.081022250E0,7.694514799E-1,3.246524696E-1,9.199132025E-1,1.242455273E0
1.091024250E0,1.396253117E0,-1.016851267E-1,1.066220771E0,1.759741278E0
1.101026250E0,8.205818725E-1,6.826577497E-1,2.381056380E-1,1.093650085E0
1.111028250E0,1.614866477E0,7.811483963E-1,5.872420076E-1,1.887548604E0
1.121031250E0,1.049975744E0,4.319246109E-1,-1.107530765E0,1.586074502E0
1.131033250E0,2.648291677E-1,4.370555426E-1,-2.015298423E-1,5.493326067E-1
1.141035250E0,6.350368559E-2,2.767142183E-1,-4.817988753E-1,5.592259230E-1
1.151037250E0,-1.039125066E0,-1.157196137E-1,-4.604252556E-1,1.142437459E0
1.161039250E0,-1.695180323E0,-5.508372429E-1,-2.242021286E-1,1.796475603E0
1.171041250E0,-6.550068516E-1,-9.111052492E-1,2.254917321E-1,1.144549375E0
1.181044250E0,1.018634668E0,-8.654595450E-1,6.950199330E-1,1.506548877E0
1.191046250E0,1.530105824E0,-6.468030618E-1,5.988791361E-1,1.765852274E0
1.201048250E0,1.829500807E0,-4.088567604E-1,4.965686497E-1,1.939282722E0
1.211050250E0,1.716124465E0,-2.075710393E-1,5.797803757E-1,1.823270194E0
1.221052250E0,1.520963117E0,2.046545944E-1,7.758857560E-1,1.719654330E0
1.231054250E0,1.428206981E0,5.355350795E-1,7.333285511E-1,1.692437227E0
1.241057250E0,-6.422581673E-2,1.095968188E0,-1.705384299E-1,1.111015113E0
1.251059250E0,-7.593983620E-1,1.577734611E0,-1.380360970E-1,1.756412918E0
1.261061250E0,-1.300175178E0,1.584568691E0,-1.433892814E0,2.501471973E0
1.271063250E0,-7.446598703E-1,1.473676100E0,-1.191747919E0,2.036296313E0
1.281065250E0,1.086038446E0,1.097960627E0,-2.608393201E-1,1.566216523E0
1.291068250E0,1.021634874E0,-9.245230012E-2,7.072789130E-1,1.246005098E0
1.301070250E0,-2.494918626E0,1.235800257E-1,-7.092573184E-1,2.596716565E0
1.311072250E0,-2.668185659E0,1.928991620E0,-7.418654859E-1,3.374994486E0
1.321074250E0,-1.450960252E0,3.046516299E-1,-1.126826284E0,1.862212593E0
1.331076250E0,1.410048453E0,3.935760856E-3,-7.946757835E-1,1.618567803E0
1.341078250E0,4.163374250E0,-1.207224988E0,6.370602849E-1,4.381429347E0
1.351081250E0,3.578706479E-1,-2.797286333E0,-1.983284917E0,3.447651562E0
1.361083250E0,2.530164472E0,-4.778618281E0,2.706527899E0,6.046670009E0
1.371085250E0,4.954248759E0,-7.807267828E0,3.099977392E-1,9.251708507E0
1.381087250E0,1.600478234E0,-1.241306113E1,4.776089945E0,1.339614319E1
1.391089250E0,-3.763691332E0,-1.097852629E1,1.048018447E1,1.563738080E1
1.401091250E0,-4.300945786E0,-4.575031096E-1,3.635491714E0,5.650154312E0
1.411094250E0,-3.567653487E0,2.227787409E0,1.731343013E-1,4.209651248E0
1.421096250E0,-1.178422115E0,5.572121698E0,-4.082779153E0,7.007589065E0
1.431098250E0,1.516855448E-1,7.354015644E0,-5.509855868E0,9.190379006E0
1.441100250E0,3.895713276E-1,6.925166230E0,-4.509304299E0,8.273059796E0
1.451102250E0,-4.308238433E0,2.815559467E0,-7.668360204E-2,5.147249157E0
1.461104250E0,-5.848661669E0,-9.248169699E-1,-6.182857525E-1,5.953520557E0
1.471107250E0,-3.650691551E0,-1.544495091E0,-6.208965343E-1,4.012296897E0
1.481109250E0,-2.118352091E0,-1.768185296E0,1.435076290E-1,2.763057954E0
1.491111250E0,-1.225770528E0,-2.700531871E0,8.286703259E-2,2.966859067E0
1.501113250E0,-1.508381664E0,-2.483460422E0,1.100576379E0,3.107098208E0
1.511115250E0,-2.781635091E0,-2.359070265E0,2.328878459E0,4.327398892E0
1.521118250E0,-4.038899893E-1,-2.187504040E0,2.029982536E0,3.011499651E0
1.531120250E0,9.313959646E-1,-2.035230558E0,8.030390561E-1,2.377926322E0
1.541122250E0,3.535821830E0,-2.514952649E0,3.512340581E-1,4.353204360E0
1.551124250E0,4.629316646E0,-2.846443291E0,7.151846409E-2,5.434880579E0
1.561126250E0,4.893820124E0,-2.717932016E0,-5.213412559E-1,5.622137187E0
1.571128250E0,4.343921651E0,-2.675317508E0,-3.758252545E-1,5.115488608E0
1.581130250E0,3.584644911E0,-2.410069095E0,-2.681322598E-1,4.327817821E0
1.591133250E0,2.389641847E0,-2.249495928E0,9.270775035E-2,3.283171457E0
1.601135250E0,1.363457839E0,-2.250336173E0,4.790426441E-1,2.674418072E0
1.611137250E0,7.152460366E-1,-2.227082528E0,5.674069364E-1,2.406953284E0
1.621139250E0,2.426840079E-1,-2.359208551E0,4.821861072E-1,2.420178497E0
1.631141250E0,-1.658182651E-1,-2.452482020E0,4.730140185E-1,2.503179182E0
1.641144250E0,-5.805940157E-1,-2.536407252E0,4.649471998E-1,2.643222855E0
1.651146250E0,-9.245494598E-1,-2.544164753E0,4.066960680E-1,2.737328568E0
1.661148250E0,-1.234092286E0,-2.438225485E0,4.844767539E-1,2.775363942E0
1.671150250E0,-1.434851173E0,-2.261004126E0,5.838000441E-1,2.740759026E0
1.681152250E0,-1.337856390E0,-2.137764116E0,7.966410327E-1,2.644717767E0
1.691154250E0,-1.187116340E0,-2.060364522E0,9.764041762E-1,2.570547079E0
1.701157250E0,-1.010274904E0,-1.947741740E0,1.153421906E0,2.478857672E0
1.711159250E0,-8.893959993E-1,-1.872293216E0,1.339786556E0,2.468103552E0
1.721161250E0,-6.870975405E-1,-1.729976665E0,1.532892899E0,2.411365367E0
1.731163250E0,-4.727865618E-1,-1.573887436E0,1.767329117E0,2.413317427E0
1.741165250E0,-2.939243281E-1,-1.396019667E0,2.045346680E0,2.493733238E0
1.751167250E0,-1.218436950E-1,-1.189079250E0,2.269323106E0,2.564874794E0
1.761170250E0,-7.180380821E-3,-9.968647532E-1,2.492592019E0,2.684549472E0
1.771172250E0,1.897608590E-1,-8.070078537E-1,2.654016101E0,2.780480593E0
1.781174250E0,2.988897836E-1,-6.689376967E-1,2.768218070E0,2.863536979E0
1.791176250E0,4.797716457E-1,-4.612855272E-1,2.882629369E0,2.958465354E0
1.801178250E0,6.521487325E-1,-2.159973156E-1,3.081572111E0,3.157220215E0
1.811180250E0,1.471095139E0,6.681009601E-1,3.717405943E0,4.053342663E0
1.821183250E0,2.096310427E0,1.179630296E0,4.352875493E0,4.973285644E0
1.831185250E0,1.160533728E0,2.025710122E0,4.589435712E0,5.149102852E0
1.841187250E0,-2.739011228E-1,1.698764374E0,5.217478128E0,5.493896635E0
1.851189250E0,-1.241505386E0,1.987402965E0,5.832444416E0,6.285579849E0
1.861191250E0,1.991851673E0,7.404109910E-1,5.375870429E0,5.780628374E0
1.871193250E0,-5.018396223E-1,3.308813623E-1,3.972514699E0,4.017735496E0
1.881196542E0,-1.217205527E0,-5.291205378E-1,4.497461933E0,4.689213332E0
1.891198542E0,-2.065568106E0,1.396963846E0,3.577247014E0,4.360593513E0
1.901200542E0,-1.946544523E0,2.493767894E0,5.196132867E0,6.083396310E0
1.911202542E0,-1.269794800E0,2.538005881E0,6.181986875E0,6.802265388E0
1.921204542E0,-1.163329282E0,2.923378615E0,5.743974289E0,6.549253254E0
1.931206542E0,-1.479137399E0,2.088801286E0,5.250260543E0,5.840905240E0
1.941208542E0,-1.449156386E0,1.159819929E0,4.216416682E0,4.606886816E0
1.951211542E0,-6.565043235E-1,-2.776024103E-2,3.241822658E0,3.307745864E0
1.961213542E0,5.891783130E-1,-1.034976101E0,2.151550827E0,2.459161966E0
1.971215542E0,1.702699258E0,-1.755371707E0,1.094162714E0,2.679124230E0
1.981217542E0,2.339395553E0,-2.282061557E0,2.665570199E-1,3.278967696E0
1.991219542E0,2.667412072E0,-2.155727493E0,-7.612443280E-1,3.513081427E0
2.001221542E0,2.767847942E0,-1.754229892E0,-1.400977083E0,3.563852063E0
2.011224542E0,2.615574751E0,-1.360098906E0,-8.940136917E-1,3.080642919E0
2.021226542E0,2.089471523E0,-1.087202335E0,-3.212537755E-1,2.377205113E0
2.031228542E0,1.557477810E0,-6.971573827E-1,-2.936617881E-3,1.706392150E0
2.041230542E0,1.333784974E0,-8.704482432E-1,1.443968444E-1,1.599222608E0
2.051232542E0,1.116345150E0,-7.298949929E-1,1.835604715E-1,1.346353461E0
2.061234542E0,9.047928876E-1,-5.357331174E-1,5.844911849E-1,1.203033702E0
2.071237542E0,4.520377171E-1,-5.869708429E-1,7.879655188E-1,1.081555605E0
2.081239542E0,4.902188659E-2,3.050271308E-2,9.187273872E-1,9.205398269E-1
2.091241542E0,-2.993867970E-1,6.894457092E-1,1.110212590E0,1.340723624E0
2.101243542E0,-4.971273512E-1,1.522284734E0,1.186018087E0,1.992768255E0
2.111245542E0,-5.237462157E-1,2.338068236E0,1.068748230E0,2.623565503E0
2.121247542E0,-9.257411224E-1,2.923811309E0,9.241278756E-1,3.203073763E0
2.131250542E0,-1.601147155E0,3.152097133E0,1.088754332E0,3.699293790E0
2.141252542E0,-1.971139081E0,3.831092187E0,1.338063381E0,4.511437713E0
2.151254542E0,-2.049325125E0,4.532760697E0,1.572707614E0,5.217189113E0
2.161256542E0,-2.349579649E0,4.946305316E0,1.440371237E0,5.662254861E0
2.171258542E0,-1.928438619E0,5.794332265E0,1.489134530E0,6.285752425E0
2.181260542E0,-1.851353606E0,5.866562335E0,1.298362103E0,6.287273491E0
2.191263542E0,-1.981562328E0,5.857355894E0,9.695714124E-1,6.259015582E0
2.201265542E0,-1.495770389E0,5.842268908E0,2.116731535E-1,6.034421312E0
2.211267542E0,-1.280677637E0,5.721391173E0,-7.099018277E-1,5.905794847E0
2.221269542E0,-1.848094953E0,3.874921454E0,-1.361068667E0,4.503662859E0
2.231271542E0,-2.353606626E0,2.536379478E0,-2.424967800E0,4.225299261E0
2.241273542E0,-2.296410332E0,2.126702646E0,-2.846492407E0,4.230707220E0
2.251275542E0,-1.768961660E0,2.222002028E0,-2.725508838E0,3.936358316E0
2.261278542E0,-2.122145180E0,2.344233394E0,-2.543149384E0,4.057898367E0
2.271280542E0,-3.309903544E0,2.522729738E0,-2.394023166E0,4.801142959E0
2.281282542E0,-3.994822412E0,2.862964891E0,-2.155056233E0,5.366511104E0
2.291284542E0,-4.354991600E0,3.267711790E0,-1.982010809E0,5.794157318E0
2.301286542E0,-5.155493549E0,3.386637724E0,-1.502039773E0,6.348586637E0
2.311288542E0,-4.977687907E0,3.421330424E0,-1.238745500E0,6.165822669E0
2.321291542E0,-4.703607860E0,3.147035491E0,-4.159943835E-1,5.674575809E0
2.331293542E0,-4.799540788E0,2.740744928E0,4.854585745E-1,5.548237969E0
2.341295542E0,-4.966248415E0,1.870321974E0,1.190337059E0,5.438623899E0
2.351297542E0,-4.665864083E0,3.209836341E-1,1.879252426E0,5.040328145E0
2.361299542E0,-3.723291165E0,-9.546202281E-1,1.439704946E0,4.104503285E0
2.371301542E0,-2.645332401E0,-1.633496583E0,8.954537147E-1,3.235418359E0
2.381303542E0,-1.301347545E0,-2.295930861E0,1.439693252E0,3.006246931E0
2.391306542E0,-1.174713811E0,-3.682950640E0,2.481988678E0,4.593946642E0
2.401308542E0,-1.088835170E0,-4.447623190E0,3.402544490E0,5.704754427E0
2.411310542E0,-9.234817582E-1,-3.556517757E0,3.941197597E0,5.388383395E0
2.421312542E0,4.537942207E-1,-2.427346740E0,4.185602440E0,4.859754025E0
2.431314542E0,2.860674829E0,-1.928778781E0,4.507807412E0,5.676616574E0
2.441316542E0,6.240218711E0,-4.154204427E-1,4.279329799E0,7.577965903E0
2.451319542E0,9.875281824E0,8.523310109E-1,3.405793203E0,1.048079609E1
2.461321542E0,9.704206327E0,2.614943179E-1,3.145623096E0,1.020465308E1
2.471323542E0,1.391626449E1,2.668953691E0,5.562163889E-1,1.418080068E1
2.481325542E0,1.779232528E1,2.368526236E0,-2.347063592E0,1.810208449E1
2.491327542E0,2.096012336E1,5.868055860E-1,-4.061109372E0,2.135798963E1
2.501329542E0,2.456096272E1,-1.426985352E0,-2.689611027E0,2.474896329E1
2.511332542E0,2.494176380E1,-2.986194961E0,-1.719774297E0,2.517869269E1
2.521334542E0,1.890158302E1,-4.931953325E0,3.621470675E0,1.986728603E1
2.531336542E0,1.287559226E1,-2.090612023E0,7.286424170E0,1.494133567E1
2.541338542E0,1.053838765E1,3.591981120E-2,8.231742355E0,1.337237775E1
2.551340542E0,7.375567312E0,1.830954717E0,7.949789616E0,1.099775174E1
2.561342542E0,5.921593405E0,2.974740558E0,6.710455302E0,9.431042371E0
2.571344542E0,5.725990008E0,2.269388595E0,5.088903118E0,7.989619585E0
2.581347542E0,6.520014412E0,2.588007615E-1,2.969672191E0,7.169136537E0
2.591349542E0,7.278740344E0,-1.577194913E0,1.211158336E0,7.545495962E0
2.601351542E0,6.716234690E0,-2.598834465E0,5.866447145E-1,7.225365113E0
2.611353542E0,5.081268994E0,-2.711056859E0,2.684221356E-1,5.765515963E0
2.621355542E0,3.822571625E0,-2.233956953E0,2.303848283E-1,4.433474333E0
2.631357542E0,2.326318840E0,-2.299100344E0,-3.064259675E-1,3.285044689E0
2.641360542E0,9.166112798E-1,-3.207160948E0,-1.486215015E0,3.651697229E0
2.651362542E0,4.033157927E-1,-3.547474746E0,-2.786583590E0,4.529049437E0
2.661364542E0,-1.761128730E0,-3.114166538E0,-3.493922437E0,5.000710112E0
2.671366542E0,-4.548209333E0,-2.673796062E0,-2.892086656E0,6.016606913E0
2.681368542E0,-6.019841831E0,-2.044365371E0,-2.761348469E0,6.931303687E0
2.691370542E0,-6.793400980E0,-1.592630832E0,-2.692834304E0,7.479179529E0
2.701372542E0,-8.402191615E0,-1.027891761E0,-2.399797437E0,8.798432426E0
2.711375542E0,-9.150286725E0,-8.834156133E-1,-2.256880085E0,9.465816288E0
2.721377542E0,-9.784082217E0,-7.975184805E-1,-1.633806340E0,9.951563882E0
2.731379542E0,-1.001828250E1,-5.333216526E-1,-2.112820771E0,1.025253275E1
2.741381542E0,-1.009007929E1,-3.632272091E-1,-2.730074344E0,1.045920360E1
2.751383542E0,-1.023956453E1,9.792646341E-2,-2.191980084E0,1.047201261E1
2.761385542E0,-1.020587989E1,6.510398812E-1,-1.895248654E0,1.040075981E1
2.771387542E0,-1.019861531E1,1.223578261E0,-1.093294256E0,1.032977203E1
2.781390542E0,-1.003377294E1,1.768453390E0,-1.046179147E0,1.024199774E1
2.791392542E0,-9.639313928E0,2.228597541E0,-1.422164469E0,9.995277474E0
2.801394542E0,-9.727284703E0,2.913049801E0,-2.570873373E0,1.047450795E1
2.811396542E0,-1.024834705E1,3.973317229E0,-3.884646835E0,1.165788780E1
2.821398542E0,-1.023016221E1,2.547210860E0,-6.495092994E-1,1.056249801E1
2.831400542E0,-1.059171894E1,1.696624293E0,-1.428943731E0,1.082150286E1
2.841403542E0,-1.045947363E1,8.904569766E-1,-1.317206948E0,1.057962837E1
2.851405542E0,-1.001012446E1,3.601743047E-1,-1.236703652E0,1.009265838E1
2.861407542E0,-9.690180026E0,4.622452015E-1,-1.099246137E0,9.763278222E0
2.871409542E0,-1.037087077E1,-1.642806813E0,-1.430112004E0,1.059712202E1
2.881411500E0,-1.069796519E1,-3.671362043E0,-2.152593970E-1,1.131245751E1
2.891413500E0,-9.004136739E0,-4.262316155E-1,1.399764955E-2,9.014230291E0
2.901415500E0,-9.523495789E0,-3.438592282E0,-1.946245913E-1,1.012713028E1
2.911418500E0,-7.985483360E0,1.156421381E-1,5.644077168E-1,8.006239671E0
2.921420500E0,-8.011502885E0,3.207262105E0,-3.414949723E-1,8.636395515E0
2.931422500E0,-8.442324564E0,4.438984514E0,-1.090086401E0,9.600297700E0
2.941424500E0,-8.403117229E0,4.811593946E0,-7.505122753E-1,9.712213144E0
2.951426500E0,-7.815171509E0,5.297771509E0,-3.655006796E-1,9.448644317E0
2.961428500E0,-7.247219759E0,5.560162972E0,1.950666225E-1,9.136501382E0
2.971430500E0,-5.210963745E0,8.833011541E0,-4.859545280E-1,1.026705351E1
2.981433500E0,-2.634755373E0,1.227104746E1,1.095042574E0,1.259839910E1
2.991435500E0,-2.613991910E0,1.070782125E1,1.473885430E0,1.112037445E1
3.001437500E0,-1.310296124E0,7.833666837E0,5.101058310E0,9.439491932E0
3.011439500E0,-9.039853871E-2,7.037743258E0,2.930156708E0,7.623897979E0
3.021441500E0,1.549734927E0,9.420416393E0,3.321748248E0,1.010840911E1
3.031443500E0,5.040885783E0,1.143265614E1,4.921252336E0,1.342888232E1
3.041445500E0,1.180501385E1,1.229303416E1,6.476958439E0,1.823260901E1
3.051448500E0,1.364775684E1,6.393386525E0,5.396604656E0,1.600812294E1
3.061450500E0,1.479285217E1,5.541739565E-1,3.730658072E0,1.526608639E1
3.071452500E0,1.902936573E1,-4.071531157E0,4.380019437E0,1.994689691E1
3.081454500E0,2.641801502E1,-7.531973898E0,2.562816494E0,2.759003763E1
3.091456500E0,3.135421108E1,-1.164355585E1,5.026804519E-1,3.345013652E1
3.101458500E0,3.286703312E1,-1.260503106E1,4.656830427E0,3.550795325E1
3.111461500E0,2.335099370E1,-1.078808598E1,2.143616448E0,2.581175696E1
3.121463500E0,1.367046977E1,-7.483939022E0,-5.643685770E0,1.657535146E1
3.131465500E0,8.690106175E0,-7.232644404E0,-3.228774011E0,1.175814918E1
3.141467500E0,4.918646232E0,-6.813491428E0,1.493472433E-1,8.404704087E0
3.151469500E0,1.136323916E0,-4.744458555E0,8.565480959E-1,4.953260912E0
3.161471500E0,-1.140654949E0,-1.825431437E0,2.125849829E0,3.025315048E0
3.171473500E0,-3.242285172E0,-5.646662003E-1,2.578364241E0,4.180816094E0
3.181476500E0,-4.288129274E0,-5.182013011E-1,2.702782465E0,5.095254489E0
3.191478500E0,-4.215812665E0,-5.623404703E-1,2.574958237E0,4.971892311E0
3.201480500E0,-3.933488043E0,-7.889750406E-1,1.328930177E0,4.226211686E0
3.211482500E0,-3.887910166E0,-1.852348217E-1,2.427603725E0,4.587310459E0
3.221484500E0,-5.105225621E0,-3.189814013E-1,8.090242660E-1,5.178764142E0
3.231486500E0,-5.325038829E0,-1.154657569E0,4.536819541E-1,5.467641169E0
3.241488500E0,-4.317788690E0,-1.281189854E0,9.349069253E-2,4.504829311E0
3.251491500E0,-3.298811960E0,-1.319825331E0,-3.443154864E-1,3.569685197E0
3.261493500E0,-2.694516256E0,-1.569637679E0,-1.188638224E0,3.337220569E0
3.271495500E0,-2.342261859E0,-1.307948759E0,-1.691799463E0,3.171609370E0
3.281497500E0,-2.168105464E0,-1.043865404E0,-1.917202756E0,3.076686967E0
3.291499500E0,-2.430293444E0,-1.002038808E0,-2.354926489E0,3.529318173E0
3.301501500E0,-2.120665834E0,-9.817147636E-1,-1.922261182E0,3.025900776E0
3.311503500E0,-2.284894826E0,-9.153392181E-1,-1.832851408E0,3.068865349E0
3.321506500E0,-2.314265975E0,-9.157330281E-1,-1.558717420E0,2.936663749E0
3.331508500E0,-2.363573790E0,-6.785655758E-1,-7.943154489E-1,2.584157374E0
3.341510500E0,-2.540828624E0,-5.662203902E-1,-4.433885157E-1,2.640645566E0
3.351512500E0,-2.306476314E0,-5.142301646E-1,1.381182504E-1,2.367137998E0
3.361514500E0,-2.048656204E0,-4.104602131E-1,6.156550902E-1,2.178187553E0
3.371516500E0,-1.863431030E0,-3.190077138E-1,9.317918211E-1,2.107694741E0
3.381518500E0,-1.552658535E0,-2.712783542E-1,1.204410650E0,1.983669701E0
3.391521500E0,-1.133529532E0,-3.445425045E-1,1.419909052E0,1.849254026E0
3.401523500E0,-6.494233453E-1,-3.226107681E-1,1.660408101E0,1.811845317E0
3.411525500E0,-8.494542539E-2,-3.160808900E-1,1.721119156E0,1.751962901E0
3.421527500E0,4.597917098E-1,-3.397565585E-1,1.756525363E0,1.847220692E0
3.431529500E0,9.383962512E-1,-2.059833741E-1,1.659805838E0,1.917803977E0
3.441531500E0,1.172977188E0,9.364462048E-2,1.256555534E0,1.721504170E0
3.451534500E0,1.156650592E0,5.320323050E-1,7.957214119E-1,1.501356564E0
3.461536500E0,8.856210369E-1,8.839361617E-1,2.388907729E-1,1.273866775E0
3.471538500E0,4.694542336E-1,1.044362417E0,-2.497269791E-1,1.171940143E0
3.481540500E0,-3.012836337E-2,1.042925756E0,-5.161185229E-1,1.164036159E0
3.491542500E0,-5.954798573E-1,9.234770805E-1,-8.478070933E-1,1.387869967E0
3.501544500E0,-1.096316682E0,8.186680788E-1,-1.111397821E0,1.762762833E0
3.511546500E0,-1.479386491E0,7.242998654E-1,-1.241458023E0,2.062622774E0
3.521549500E0,-1.938901627E0,6.886523151E-1,-1.420168229E0,2.500091864E0
3.531551500E0,-2.289161539E0,6.418196261E-1,-1.638176402E0,2.887181136E0
3.541553500E0,-2.540151517E0,6.077154484E-1,-1.830730476E0,3.189555121E0
3.551555500E0,-2.812351685E0,6.106492889E-1,-1.991291071E0,3.499636364E0
3.561557500E0,-3.181411564E0,5.979146379E-1,-2.129349680E0,3.874662762E0
3.571559500E0,-3.409856433E0,6.289832336E-1,-2.116441367E0,4.062273361E0
3.581561500E0,-3.862519217E0,8.460380182E-1,-1.926817771E0,4.398574969E0
3.591564500E0,-4.479824392E0,1.284330978E0,-1.474463866E0,4.887982849E0
3.601566500E0,-5.254694486E0,1.807624911E0,-9.018383626E-1,5.629621159E0
3.611568500E0,-6.035679014E0,2.454184583E0,-3.415358663E-1,6.524499205E0
3.621570500E0,-6.809038188E0,2.949181793E0,1.541057805E-1,7.421888095E0
3.631572500E0,-7.172246175E0,3.295611487E0,1.081594563E0,7.966932726E0
3.641574500E0,-7.245640426E0,3.503675300E0,2.013497481E0,8.296337619E0
3.651576500E0,-6.677081149E0,3.636608532E0,3.047537223E0,8.191203661E0
3.661578500E0,-5.431328346E0,3.641542705E0,4.245380280E0,7.796371887E0
3.671581500E0,-3.940130480E0,3.227643744E0,5.530226398E0,7.518358621E0
3.681583500E0,-2.382093092E0,2.086788821E0,6.694401771E0,7.405678237E0
3.691585500E0,4.238365960E-1,3.866714010E-1,9.237133664E0,9.254933310E0
3.701587500E0,3.641706719E0,-1.570466522E0,1.115073147E1,1.183499916E1
3.711589500E0,7.796487316E0,-2.490386449E0,1.213349522E1,1.463587870E1
3.721591500E0,1.329450783E1,-3.339101907E0,9.591247476E0,1.672978088E1
3.731594500E0,2.188746837E1,-8.262240263E0,8.222073984E-1,2.340944063E1
3.741596500E0,2.956164655E1,-1.125343430E1,2.190979479E0,3.170695699E1
3.751598500E0,3.295238376E1,-9.515592692E0,2.122983670E-1,3.429943396E1
3.761600500E0,2.877976623E1,-1.018362422E1,-1.336755944E0,3.055761874E1
3.771602500E0,2.497308851E1,-9.611265419E0,3.163681637E0,2.694513786E1
3.781604500E0,1.942657411E1,-7.781260582E0,5.250789131E0,2.157569429E1
3.791606500E0,1.449724735E1,-6.244771938E0,5.806584520E0,1.681914924E1
3.801609500E0,1.138522469E1,-5.091264224E0,5.134310256E0,1.348723302E1
3.811611500E0,8.605277694E0,-3.992906571E0,3.309514411E0,1.004723806E1
3.821613500E0,6.160117119E0,-2.742242399E0,1.489851252E0,6.905547991E0
3.831615500E0,3.664873388E0,-1.230444208E0,-3.391078100E-1,3.880758174E0
3.841617500E0,1.618758969E0,-1.002089971E-1,-1.666183688E0,2.325207631E0
3.851619500E0,-3.525952899E-1,4.891163734E-1,-2.693286586E0,2.759954873E0
3.861621500E0,-2.116645873E0,1.423712227E0,-3.502870723E0,4.333272385E0
3.871624500E0,-4.016674041E0,1.523986420E0,-3.941085038E0,5.829953365E0
3.881627125E0,-4.026521922E0,1.291891428E0,-4.774004243E0,6.377537045E0
3.891629125E0,-5.962566599E0,2.229287805E0,-4.024370731E0,7.531101138E0
3.901631125E0,-6.769575915E0,2.910822597E0,-3.656462460E0,8.226163382E0
3.911633125E0,-7.213030504E0,2.954887506E0,-3.339688675E0,8.480135003E0
3.921635125E0,-7.589948457E0,3.230765573E0,-3.710392792E0,9.045008482E0
3.931637125E0,-7.686494758E0,3.274458892E0,-3.858141114E0,9.202691756E0
3.941640125E0,-7.866331138E0,3.513033184E0,-3.873270200E0,9.445781586E0
3.951642125E0,-7.935487327E0,3.652813506E0,-4.263888179E0,9.720892347E0
3.961644125E0,-7.725379327E0,3.574483328E0,-4.355592694E0,9.561882896E0
3.971646125E0,-7.336566383E0,3.503419777E0,-4.552361441E0,9.317894135E0
3.981648125E0,-6.969658864E0,3.236172785E0,-4.813086740E0,9.067235683E0
3.991650125E0,-6.843215164E0,2.987235473E0,-5.115966371E0,9.051313798E0
4.001652125E0,-6.948193735E0,2.874572491E0,-5.423766142E0,9.271343071E0
4.011655125E0,-7.220294500E0,2.814894054E0,-5.322933247E0,9.401590267E0
4.021657125E0,-7.806907640E0,2.623083453E0,-4.774016522E0,9.519433147E0
4.031659125E0,-7.758346514E0,2.332218681E0,-4.509366279E0,9.271761906E0
4.041661125E0,-8.498732069E0,2.587936133E0,-3.452301956E0,9.531224948E0
4.051663125E0,-9.015280947E0,2.819430031E0,-2.980881888E0,9.905055936E0
4.061665125E0,-9.246973944E0,2.982362111E0,-2.628498852E0,1.006528773E1
4.071667125E0,-9.550444436E0,3.270051553E0,-1.950948061E0,1.028155749E1
4.081670125E0,-9.572625264E0,3.631139924E0,-1.809970522E0,1.039693825E1
4.091672125E0,-9.689246226E0,3.822123143E0,-1.433758328E0,1.051407536E1
4.101674125E0,-9.685407529E0,3.925861812E0,-9.452433407E-1,1.049347392E1
4.111676125E0,-1.016636674E1,3.988787793E0,-7.489494608E-1,1.094652302E1
4.121678125E0,-1.029975109E1,4.231799537E0,-7.732873265E-1,1.116203266E1
4.131680125E0,-1.021186042E1,4.500377647E0,-3.624794233E-1,1.116543253E1
4.141682125E0,-1.018930654E1,4.779071732E0,1.856561136E-1,1.125593011E1
4.151684125E0,-1.025746870E1,4.972386822E0,1.992718669E-1,1.140087734E1
4.161687125E0,-1.015681707E1,5.018287464E0,1.409634324E-1,1.132978432E1
4.171689125E0,-9.906953852E0,4.872152974E0,2.299721245E-1,1.104257653E1
4.181691125E0,-9.584310924E0,4.381588245E0,3.900969923E-2,1.053844643E1
4.191693125E0,-9.186782121E0,4.085758602E0,9.096100431E-2,1.005478309E1
4.201695125E0,-8.871395588E0,4.062954168E0,2.224508876E-1,9.760058435E0
4.211697125E0,-8.701955557E0,3.951127338E0,7.383918744E-2,9.557242803E0
4.221699125E0,-8.499108045E0,3.977465537E0,5.666244328E-2,9.383937355E0
4.231702125E0,-8.339876668E0,4.031595551E0,1.226687372E-1,9.264035468E0
4.241704125E0,-8.148303173E0,3.893593952E0,3.801170011E-1,9.038772449E0
4.251706125E0,-7.453142322E0,3.888757136E0,8.711591184E-1,8.451667335E0
4.261708125E0,-5.404396071E0,4.261106659E0,2.019828261E0,7.172463527E0
4.271710125E0,-8.508219177E-1,6.162222701E0,4.190170285E0,7.500294233E0
4.281712125E0,-1.509428315E0,5.419857863E0,4.773953957E0,7.378608912E0
4.291714125E0,8.212811995E-1,6.513997042E0,5.338178108E0,8.461844112E0
4.301717125E0,2.259638713E1,3.068139303E-1,1.315594870E1,2.614899296E1
4.311719125E0,5.760524365E1,-1.217354631E1,1.292207411E1,6.027884642E1
4.321721125E0,7.994288916E1,-2.038244885E1,1.380398392E1,8.364723379E1
4.331723125E0,5.974531055E1,-1.777754469E1,2.370022977E0,6.237916508E1
4.341725125E0,2.522237168E1,-1.455778007E1,1.422612950E-1,2.912245237E1
4.351727125E0,1.456625619E1,-7.027409474E0,2.657122727E0,1.638964931E1
4.361729125E0,4.888810229E0,-2.982268848E0,3.320132663E0,6.619491962E0
4.371732125E0,-2.263821461E0,-5.346202826E-1,6.427627820E-1,2.413265515E0
4.381734125E0,-4.678097627E0,2.736841911E-1,6.361313378E0,7.901000464E0
4.391736125E0,-4.471808444E0,-1.737862659E-1,6.163975112E0,7.617208255E0
4.401738125E0,-4.975215120E0,3.175245675E-1,5.995525015E0,7.797429547E0
4.411740125E0,-5.468520146E0,1.815405509E-1,5.496561053E0,7.755633628E0
4.421742125E0,-5.094129360E0,1.846875224E-1,5.612725933E0,7.582015287E0
4.431744125E0,-4.199203064E0,4.713674426E-2,6.292585205E0,7.565193772E0
4.441747125E0,-3.501986332E0,-1.022438282E-1,5.705936982E0,6.695676136E0
4.451749125E0,-3.257448757E0,-2.393455401E-1,4.004921138E0,5.167944660E0
4.461751125E0,-2.799625804E0,-1.859867737E-1,2.430483771E0,3.712108173E0
4.471753125E0,-2.145169761E0,-2.824298716E-1,6.563403091E-1,2.261040145E0
4.481755125E0,-1.514487326E0,-4.932176104E-1,-1.113819445E0,1.943586692E0
4.491757125E0,-9.622441202E-1,-9.944701722E-1,-2.809023742E0,3.131373349E0
4.501759125E0,-8.126816994E-1,-1.090403393E0,-3.620275505E0,3.867276281E0
4.511762125E0,-1.180760416E0,-8.543226457E-1,-3.704944649E0,3.981290896E0
4.521764125E0,-1.791990919E0,-3.596218890E-1,-3.742509209E0,4.164965130E0
4.531766125E0,-2.210200739E0,1.038579521E-1,-3.550257144E0,4.183312033E0
4.541768125E0,-2.382387207E0,4.401962283E-1,-3.136689428E0,3.963377611E0
4.551770125E0,-2.554790606E0,6.360197729E-1,-2.360052889E0,3.535721402E0
4.561772125E0,-2.565800913E0,9.106213921E-1,-1.947930605E0,3.347685661E0
4.571774125E0,-2.629681744E0,1.179649738E0,-1.393089481E0,3.201171330E0
4.581777125E0,-2.468825426E0,1.436842442E0,-7.447759375E-1,2.952000404E0
4.591779125E0,-2.281038002E0,1.552857048E0,-4.969636291E-2,2.759885705E0
4.601781125E0,-1.925717910E0,1.838195324E0,4.618546075E-1,2.701973574E0
4.611783125E0,-1.511522788E0,1.780705792E0,7.410723111E-1,2.450469838E0
4.621785125E0,-8.116490811E-1,1.648041825E0,9.163341218E-1,2.052920921E0
4.631787125E0,-2.050419724E-1,1.387806230E0,9.410444552E-1,1.689264043E0
4.641789125E0,3.414814872E-1,1.156290696E0,9.551856539E-1,1.538179903E0
4.651792125E0,8.422721189E-1,8.804541448E-1,1.017420494E0,1.587377171E0
4.661794125E0,1.325619922E0,6.554567948E-1,1.070356506E0,1.825528646E0
4.671796125E0,1.710012370E0,3.795038840E-1,1.204024733E0,2.125521363E0
4.681798125E0,1.951074361E0,1.023549253E-1,1.284177781E0,2.338007755E0
4.691800125E0,2.064008653E0,-1.014386666E-1,1.323756414E0,2.454129696E0
4.701802125E0,1.862338185E0,-2.772112316E-1,1.368166894E0,2.327451446E0
4.711804125E0,1.357437546E0,-2.610027498E-1,1.378628440E0,1.952274443E0
4.721806125E0,7.879789674E-1,-1.231718901E-1,1.286918663E0,1.514015130E0
4.731809125E0,2.514244258E-1,6.037747175E-2,1.180439112E0,1.208427150E0
4.741811125E0,-1.732436442E-1,1.578356463E-1,1.109211547E0,1.133700008E0
4.751813125E0,-5.069746470E-1,1.764286226E-1,1.154017299E0,1.272755388E0
4.761815125E0,-7.828620690E-1,1.704831737E-1,1.194665388E0,1.438458522E0
4.771817125E0,-9.545158553E-1,1.257955357E-1,1.010223448E0,1.395520136E0
4.781819125E0,-1.073662814E0,8.827921540E-2,6.054043365E-1,1.235742477E0
4.791821125E0,-1.217850475E0,9.146097779E-2,8.696359187E-2,1.224372311E0
4.801824125E0,-1.327959977E0,7.454322875E-2,-4.607532844E-1,1.407596527E0
4.811826125E0,-1.337138352E0,6.036665440E-3,-1.019542741E0,1.681500167E0
4.821828125E0,-1.351762238E0,-1.515320554E-1,-1.582346164E0,2.086634251E0
4.831830125E0,-1.377352577E0,-3.551502308E-1,-2.177551933E0,2.600954485E0
4.841832125E0,-1.400301145E0,-5.577197081E-1,-2.720377614E0,3.110040021E0
4.851834125E0,-1.384976762E0,-7.272863308E-1,-3.316290750E0,3.666727475E0
4.861836125E0,-1.476357633E0,-8.724262100E-1,-3.767538216E0,4.139456916E0
4.871839125E0,-1.702691072E0,-9.012904054E-1,-4.041051083E0,4.476781784E0
4.881840750E0,-2.122184356E0,-7.707703194E-1,-4.180755683E0,4.751470447E0
4.891842750E0,-2.701096128E0,-4.653418869E-1,-3.983236738E0,4.835146148E0
4.901844750E0,-3.343239689E0,8.381311208E-2,-3.547230917E0,4.875153684E0
4.911846750E0,-3.946342562E0,5.972582880E-1,-2.921001722E0,4.945966856E0
4.921848750E0,-4.404119321E0,1.096243007E0,-2.406570267E0,5.137080511E0
4.931850750E0,-4.779070855E0,1.564339810E0,-2.066845722E0,5.436775563E0
4.941852750E0,-4.979957796E0,2.035541191E0,-1.732214833E0,5.651900196E0
4.951855750E0,-5.268351243E0,2.388952168E0,-1.232584143E0,5.914548246E0
4.961857750E0,-5.756718881E0,2.734670840E0,-5.307997119E-1,6.395309626E0
4.971859750E0,-6.385993305E0,3.070082040E0,4.837190279E-1,7.102133365E0
4.981861750E0,-6.775794429E0,3.301859821E0,1.909378304E0,7.775563898E0
4.991863750E0,-6.494591888E0,3.344361185E0,3.749084988E0,8.210975202E0
5.001865750E0,-5.617420662E0,3.111371569E0,5.461930334E0,8.430227216E0
5.011867750E0,-3.989811348E0,2.720323234E0,7.706855348E0,9.094744221E0
5.021870750E0,-1.721833686E0,1.959113697E0,1.074923123E1,1.106113963E1
5.031872750E0,1.040057697E0,8.048554936E-1,1.364808429E1,1.371129888E1
5.041874750E0,4.979231572E0,-5.605693486E-1,1.586106245E1,1.663370936E1
5.051876750E0,9.459430186E0,-9.924359259E-1,1.600492384E1,1.861782306E1
5.061878750E0,1.462201992E1,-1.907168203E0,1.261455150E1,1.940535149E1
5.071880750E0,2.044965909E1,-5.496314886E0,3.954746765E0,2.154154257E1
5.081882750E0,2.744548775E1,-1.172747041E1,-2.250566992E0,2.993081041E1
5.091885750E0,3.084446719E1,-1.227498147E1,-9.711546922E-1,3.321143580E1
5.101887750E0,2.767113882E1,-1.260232965E1,-1.086663221E0,3.042517828E1
5.111889750E0,2.556826022E1,-1.255372175E1,3.212387774E0,2.866446049E1
5.121891750E0,2.067950378E1,-9.847967141E0,5.041973366E0,2.345305585E1
5.131893750E0,1.439479244E1,-6.761787423E0,5.645198445E0,1.687602098E1
5.141895750E0,9.897332844E0,-4.513456114E0,6.477814472E0,1.266059098E1
5.151897750E0,6.089169343E0,-3.154790361E0,5.948988195E0,9.078609258E0
5.161900750E0,3.250063139E0,-2.295568333E0,4.770609642E0,6.212186470E0
5.171902750E0,1.500473889E0,-1.865690394E0,3.266140350E0,4.049678423E0
5.181904750E0,4.552916926E-1,-1.372589436E0,1.070197170E0,1.799059273E0
5.191906750E0,-1.538835132E-1,-1.194509852E0,-1.131825069E0,1.652743751E0
5.201908750E0,-5.537272292E-1,-4.445231679E-1,-3.215356405E0,3.292830318E0
5.211910750E0,-1.709056351E0,7.798870057E-2,-4.531668144E0,4.843859207E0
5.221912750E0,-2.922983344E0,8.579669228E-1,-5.262788202E0,6.080861660E0
5.231914750E0,-3.304016567E0,1.819625444E0,-5.578189938E0,6.733777930E0
5.241917750E0,-3.624105431E0,2.300767677E0,-5.417143586E0,6.911809944E0
5.251919750E0,-3.732981756E0,2.347931027E0,-6.349582694E0,7.730791245E0
5.261921750E0,-3.347519267E0,1.925761472E0,-7.519469628E0,8.453216309E0
5.271923750E0,-2.544731056E0,9.689836210E-1,-8.953018041E0,9.357944082E0
5.281925750E0,-1.699324245E0,-1.047861975E-1,-9.950462984E0,1.009506794E1
5.291927750E0,-1.486327136E0,-2.584872776E-1,-1.014197450E1,1.025356673E1
5.301929750E0,-2.428182015E0,1.509686762E-1,-9.019791489E0,9.342135620E0
5.311932750E0,-4.355205608E0,1.030119477E0,-8.013591510E0,9.178595258E0
5.321934750E0,-5.383650734E0,1.880247622E0,-7.276836491E0,9.245073048E0
5.331936750E0,-5.528913698E0,2.224674352E0,-6.788370620E0,9.033273954E0
5.341938750E0,-6.524733700E0,2.719032462E0,-5.477360551E0,8.942413879E0
5.351940750E0,-7.243392756E0,3.128965548E0,-4.605038422E0,9.135838379E0
5.361942750E0,-7.705984113E0,3.608034943E0,-3.675767920E0,9.268839037E0
5.371944750E0,-7.723383088E0,4.076697464E0,-2.772700546E0,9.162858552E0
5.381947750E0,-7.809761665E0,4.417316487E0,-1.627732691E0,9.118913089E0
5.391949750E0,-7.833813018E0,4.795880431E0,-1.258601621E0,9.271093438E0
5.401951750E0,-7.885514683E0,5.109252014E0,-1.154503495E0,9.466714122E0
5.411953750E0,-8.315503135E0,5.611078187E0,-1.181542189E0,1.010088277E1
5.421955750E0,-8.406334952E0,5.733304875E0,-8.379315846E-1,1.020976892E1
5.431957750E0,-8.792884439E0,5.882462668E0,-2.969084546E-1,1.058330470E1
5.441959750E0,-8.730207549E0,6.144686902E0,-7.865674496E-3,1.067584951E1
5.451961750E0,-8.799358476E0,6.552642460E0,4.530556443E-1,1.098048688E1
5.461964750E0,-8.873883578E0,6.846258640E0,7.372176804E-2,1.120814445E1
5.471966750E0,-8.698806832E0,6.938625936E0,2.963070685E-1,1.113110812E1
5.481968750E0,-8.442947293E0,6.962501287E0,6.944042943E-1,1.096549044E1
5.491970750E0,-8.503734947E0,6.766113194E0,4.023621484E-1,1.087454326E1
5.501972750E0,-8.361599075E0,6.209292203E0,2.767364377E-1,1.041864827E1
5.511974750E0,-8.091744225E0,6.321690305E0,6.574550807E-1,1.028942856E1
5.521976750E0,-8.032527718E0,6.215099657E0,5.139983225E-1,1.016922610E1
5.531979750E0,-7.912603664E0,6.151241046E0,5.413200223E-1,1.003693631E1
5.541981750E0,-7.812113416E0,6.117476884E0,6.092740238E-1,9.941018774E0
5.551983750E0,-7.693803193E0,6.005553575E0,6.945591724E-1,9.784870656E0
5.561985750E0,-7.451656544E0,6.055034468E0,8.624689865E-1,9.640253130E0
5.571987750E0,-7.225213178E0,6.163122003E0,1.041251113E0,9.553637117E0
5.581989750E0,-7.029406298E0,6.193256798E0,1.057394106E0,9.427993687E0
5.591991750E0,-6.714315634E0,6.238653411E0,1.184382693E0,9.241514658E0
5.601993750E0,-6.298645259E0,6.339292763E0,1.443952364E0,9.052323639E0
5.611996750E0,-5.838958799E0,6.595254044E0,1.676919469E0,8.966765006E0
5.621998750E0,-4.960513465E0,6.878489662E0,2.545434476E0,8.854352068E0
5.632000750E0,-3.500290639E0,7.040705457E0,3.934238241E0,8.792144132E0
5.642002750E0,-2.580273356E0,6.971886068E0,5.855344452E0,9.463089590E0
5.652004750E0,-2.728904901E0,8.591157838E0,6.388545030E0,1.104845793E1
5.662006750E0,-9.440610337E-1,9.364695936E0,7.291555102E0,1.190611427E1
5.672008750E0,1.152554618E0,2.821894925E0,1.512368295E1,1.542780798E1
5.682011750E0,8.400705253E0,-5.143161771E0,2.629903587E1,2.808314886E1
5.692013750E0,2.825421147E1,-2.746355565E1,3.709699780E1,5.411778451E1
5.702015750E0,4.871697066E1,-3.405800336E1,2.643590750E1,6.505496160E1
5.712017750E0,7.644217518E1,-4.281328494E1,-2.892268855E1,9.226540753E1
5.722019750E0,7.028203526E1,-4.291645321E1,-2.364560449E1,8.567672407E1
5.732021750E0,2.046590499E1,-1.052229495E1,-7.484239569E0,2.419888014E1
5.742023750E0,5.522408085E0,-1.338052272E0,-2.212581433E0,6.097777590E0
5.752025750E0,3.362395168E0,6.341159195E-2,7.315697086E-1,3.441644452E0
5.762028750E0,1.255887782E0,5.583862907E-1,4.693403884E0,4.890510135E0
5.772030750E0,-3.599662900E-1,1.722421916E0,5.479926310E0,5.755510867E0
5.782032750E0,-2.489892359E0,2.660635149E0,4.639413618E0,5.899381500E0
5.792034750E0,-3.465480410E0,3.923200452E0,5.124651825E0,7.325511081E0
5.802036750E0,-4.017855179E0,4.507160125E0,4.694381538E0,7.648193947E0
5.812038750E0,-4.888718428E0,4.693454754E0,5.233681347E0,8.562680996E0
5.822040750E0,-5.104650840E0,5.502650344E0,4.692025110E0,8.851650729E0
5.832043750E0,-5.151644912E0,5.746320192E0,4.133233607E0,8.754613704E0
5.842045750E0,-4.639722936E0,5.172499591E0,3.467406483E0,7.765609355E0
5.852047750E0,-3.978335018E0,4.200198845E0,2.621085752E0,6.351292023E0
5.862049750E0,-3.351534550E0,3.279033753E0,1.709748661E0,4.990800204E0
5.872051750E0,-2.578863008E0,2.512484246E0,2.896562992E-1,3.612064821E0
5.882053875E0,-1.780823906E0,1.825653339E0,-1.126220074E0,2.787959030E0
5.892055875E0,-1.340095289E0,1.305238282E0,-2.453631436E0,3.085418866E0
5.902057875E0,-1.021661187E0,3.394858325E-1,-2.940226783E0,3.131130107E0
5.912060875E0,-8.851327944E-1,2.288120735E-1,-3.684048747E0,3.795791116E0
5.922062875E0,-1.018319503E0,-1.739698684E-1,-4.266177072E0,4.389476841E0
5.932064875E0,-1.201226256E0,-2.394779795E-1,-4.010153226E0,4.193044612E0
5.942066875E0,-1.819786243E0,8.244340181E-2,-3.488687425E0,3.935652275E0
5.952068875E0,-2.385957516E0,4.938991034E-1,-2.705127198E0,3.640665152E0
5.962070875E0,-2.551574053E0,8.011030430E-1,-1.665447232E0,3.150557207E0
5.972072875E0,-2.451901245E0,1.067664156E0,-7.694789618E-1,2.782772779E0
5.982075875E0,-2.207092944E0,1.110770414E0,8.770765007E-2,2.472400212E0
5.992077875E0,-1.860595130E0,9.456742805E-1,6.961461067E-1,2.200166695E0
6.002079875E0,-1.495405523E0,5.627822274E-1,1.075938697E0,1.926293226E0
6.012081875E0,-9.954434413E-1,7.822814405E-2,1.353003748E0,1.681560713E0
6.022083875E0,-3.816425031E-1,-6.498706573E-1,1.264734619E0,1.472255592E0
6.032085875E0,2.298131168E-1,-1.239224387E0,9.553949842E-1,1.581540618E0
6.042087875E0,6.144862318E-1,-1.807773138E0,6.616606906E-1,2.020750335E0
6.052089875E0,9.650800198E-1,-2.219824086E0,3.677448410E-1,2.448312620E0
6.062092875E0,1.049407979E0,-2.530152778E0,-1.099142057E-1,2.741352097E0
6.072094875E0,8.456079555E-1,-2.719807802E0,-8.181671186E-1,2.963410996E0
6.082096875E0,5.603807759E-1,-2.767090727E0,-1.650815744E0,3.270475550E0
6.092098875E0,6.314934433E-2,-2.577410560E0,-2.418084458E0,3.534708684E0
6.102100875E0,-4.686098957E-1,-2.188780634E0,-2.941178125E0,3.696063400E0
6.112102875E0,-9.277642590E-1,-1.588945770E0,-3.188964413E0,3.681710093E0
6.122104875E0,-1.415235518E0,-8.640073889E-1,-3.069337397E0,3.488586017E0
6.132107875E0,-1.976495715E0,-7.240197837E-2,-2.765359367E0,3.399851436E0
6.142109875E0,-2.578847805E0,6.724865180E-1,-2.389659535E0,3.579548409E0
6.152111875E0,-3.091238143E0,1.156576917E0,-1.992117721E0,3.855120808E0
6.162113875E0,-3.543895665E0,1.816162723E0,-1.775634502E0,4.360105665E0
6.172115875E0,-4.122476485E0,2.517361994E0,-1.420967544E0,5.034984860E0
6.182117875E0,-4.561711723E0,3.161870170E0,-1.004848103E0,5.640598951E0
6.192119875E0,-4.905782357E0,3.676806970E0,-6.036367232E-1,6.160356104E0
6.202121875E0,-5.199312583E0,4.183343076E0,-2.908896232E-1,6.679657731E0
6.212124875E0,-5.482909559E0,4.680837632E0,1.697932388E-1,7.211197398E0
6.222126875E0,-5.734057412E0,5.037648180E0,7.826451373E-1,7.672668831E0
6.232128875E0,-5.905832235E0,5.345978293E0,1.512480562E0,8.108386754E0
6.242130875E0,-5.856684633E0,5.296737136E0,2.576745147E0,8.306370732E0
6.252132875E0,-5.801484579E0,5.731360676E0,3.938606111E0,9.056397551E0
6.262134875E0,-5.411033830E0,6.693102520E0,4.788048670E0,9.848975506E0
6.272136875E0,-5.131408868E0,5.947431666E0,5.862986763E0,9.801934206E0
6.282138875E0,-4.124724739E0,4.290466990E0,7.460779955E0,9.543830400E0
6.292141875E0,-2.860085430E0,2.563719889E0,8.945116698E0,9.734878586E0
6.302143875E0,-4.485709029E-1,3.040189612E-1,1.101343650E1,1.102675959E1
6.312145875E0,2.577801738E0,-2.184219221E0,1.215453701E1,1.261541301E1
6.322147875E0,5.900179732E0,-3.285885521E0,1.162777305E1,1.344671969E1
6.332149875E0,1.209933228E1,-7.892590984E0,8.705605389E0,1.686636888E1
6.342151875E0,1.890599650E1,-1.321791048E1,1.731252527E0,2.313324656E1
6.352153875E0,2.537501208E1,-1.879697867E1,-2.381010333E0,3.166838890E1
6.362156875E0,3.007939645E1,-2.073835718E1,-4.967561114E0,3.687175359E1
6.372158875E0,2.880105711E1,-1.785513022E1,-4.620551670E0,3.420023485E1
6.382160875E0,2.309126272E1,-1.083765166E1,-1.186107695E-3,2.550805969E1
6.392162875E0,1.813809219E1,-6.055405766E0,4.001587640E0,1.953640271E1
6.402164875E0,1.459726982E1,-3.634735084E0,6.338862408E0,1.632399345E1
6.412166875E0,1.113309977E1,-1.951075238E0,6.156469041E0,1.287069214E1
6.422168875E0,8.892485325E0,-1.199626750E0,6.122588519E0,1.086284906E1
6.432171875E0,8.092580962E0,-9.945160729E-1,5.810676402E0,1.001213709E1
6.442173875E0,7.743751863E0,-9.108342308E-1,5.121973801E0,9.328983199E0
6.452175875E0,7.332150566E0,-1.495400845E0,3.547478839E0,8.281380424E0
6.462177875E0,6.507998968E0,-2.175750698E0,1.262958235E0,6.977320774E0
6.472179875E0,4.987563270E0,-2.586233716E0,-8.631870246E-1,5.684143211E0
6.482181875E0,2.850696555E0,-2.307169501E0,-2.760421101E0,4.590144509E0
6.492183875E0,7.023195970E-1,-1.691917577E0,-3.688333879E0,4.118208919E0
6.502185875E0,-1.503529644E0,-2.995171899E-1,-4.548264881E0,4.799690133E0
6.512188875E0,-3.530916601E0,8.338164604E-1,-5.024192567E0,6.197187498E0
6.522190875E0,-4.856307896E0,1.912646459E0,-4.640393026E0,6.983923704E0
6.532192875E0,-5.732585667E0,2.590617958E0,-4.370390242E0,7.659905398E0
6.542194875E0,-6.151916399E0,2.677218145E0,-4.490164315E0,8.073112656E0
6.552196875E0,-6.349555796E0,3.052957300E0,-4.575852045E0,8.400942151E0
6.562198875E0,-6.617551231E0,3.279381663E0,-4.714158283E0,8.761827247E0
6.572200875E0,-6.901944598E0,3.180832982E0,-5.042134749E0,9.120178755E0
6.582202875E0,-6.885370665E0,3.241649288E0,-5.445578595E0,9.357934897E0
6.592205875E0,-6.425979490E0,2.948594148E0,-5.730446756E0,9.100848305E0
6.602207875E0,-6.306233776E0,1.974839784E0,-5.763315125E0,8.768373728E0
6.612209875E0,-7.335315079E0,9.434523386E-1,-6.393419269E0,9.776132138E0
6.622211875E0,-6.783329151E0,1.884838856E0,-7.710954831E0,1.044150354E1
6.632213875E0,-7.025143093E0,2.241935332E0,-7.457373367E0,1.048767501E1
6.642215875E0,-8.083532980E0,2.562130031E0,-6.698277891E0,1.080624553E1
6.652217875E0,-8.401375929E0,2.942230039E0,-5.812015999E0,1.063105663E1
6.662220875E0,-8.363088945E0,3.445611572E0,-4.571799340E0,1.013483325E1
6.672222875E0,-8.945979747E0,3.838643866E0,-3.519396417E0,1.035141978E1
6.682224875E0,-9.136106642E0,4.500066867E0,-2.242006084E0,1.042811765E1
6.692226875E0,-8.987946383E0,5.239986985E0,-1.703281056E0,1.054238162E1
6.702228875E0,-8.977314976E0,5.809769499E0,-1.668655745E0,1.082266223E1
6.712230875E0,-8.668582574E0,6.149959921E0,-1.630499447E0,1.075290004E1
6.722232875E0,-8.460017070E0,5.905507130E0,-1.317595203E0,1.040110381E1
6.732234875E0,-8.567074910E0,6.045264355E0,-1.056512419E0,1.053832113E1
6.742237875E0,-8.686131822E0,6.424196674E0,-9.900822023E-1,1.084893781E1
6.752239875E0,-8.261922759E0,6.669525962E0,-1.012899865E0,1.066620412E1
6.762241875E0,-7.946142708E0,6.465151157E0,-8.254865170E-1,1.027719764E1
6.772243875E0,-7.958748136E0,5.731384065E0,-3.075759687E-2,9.807720490E0
6.782245875E0,-7.722816492E0,5.633152011E0,3.050463170E-1,9.563856409E0
6.792247875E0,-7.801436400E0,5.643416798E0,4.215308927E-2,9.628724731E0
6.802249875E0,-8.020514029E0,5.772806910E0,-3.302840692E-1,9.887519025E0
6.812251875E0,-8.089239863E0,5.910186657E0,1.215267029E-1,1.001902573E1
6.822254875E0,-7.956344930E0,5.849713583E0,5.888625634E-1,9.892893043E0
6.832256875E0,-7.952798009E0,5.593216113E0,-7.670326330E-2,9.723011161E0
6.842258875E0,-8.161103312E0,5.437300692E0,-6.163199917E-1,9.825868736E0
6.852260875E0,-8.269173306E0,5.543704230E0,-3.649879519E-1,9.962183494E0
6.862262875E0,-8.136885899E0,5.613853860E0,-1.224266990E-1,9.886316584E0
6.872264875E0,-7.969208804E0,5.576029392E0,-2.962176061E-1,9.730782991E0
6.882267125E0,-7.795864588E0,5.483917619E0,-3.051158988E-1,9.536349031E0
6.892269125E0,-7.537398360E0,5.374852429E0,-3.131219431E-1,9.262799686E0
6.902272125E0,-7.204582447E0,5.329586794E0,-1.888971887E-1,8.963603392E0
6.912274125E0,-6.718390558E0,5.372328186E0,1.053271381E-1,8.602893446E0
6.922276125E0,-5.681141864E0,5.700803127E0,3.967651570E-1,8.058036470E0
6.932278125E0,-5.795892302E0,5.512039803E0,1.423508744E0,8.124120106E0
6.942280125E0,-4.662159871E0,5.365302756E0,2.921294668E0,7.684801290E0
6.952282125E0,-2.870701634E0,6.126994396E0,1.461991609E0,6.922312307E0
6.962284125E0,1.472959231E0,6.228962821E0,-2.501214908E0,6.872093039E0
6.972287125E0,1.713959475E1,4.106195205E0,-1.362344178E1,2.227610184E1
6.982289125E0,5.432570412E1,-1.856165631E1,-2.800922132E0,5.747749453E1
6.992291125E0,6.998578257E1,-1.846842830E1,3.489963287E1,8.035593929E1
7.002293125E0,4.521051238E1,-2.757949190E1,5.974708927E0,5.329461464E1
7.012295125E0,2.451260156E1,-2.660058614E1,-1.458549353E0,3.620201907E1
7.022297125E0,1.968734121E1,-1.765585360E1,5.333865201E-1,2.645004861E1
7.032299125E0,6.697285033E0,-8.248655427E0,5.624152561E0,1.202185656E1
7.042301125E0,-1.140706989E0,-2.885952635E0,5.021943144E0,5.903375982E0
7.052304125E0,-3.213902203E0,-1.135576642E0,4.276095119E0,5.468426752E0
7.062306125E0,-2.914820631E0,-9.613860413E-1,5.438542056E0,6.244852450E0
7.072308125E0,-2.115391061E0,-1.919758720E0,8.299401657E0,8.777267271E0
7.082310125E0,-2.529179217E0,-1.377510160E0,6.872007439E0,7.451091731E0
7.092312125E0,-1.708070510E0,-1.111304850E0,5.331641505E0,5.707793311E0
7.102314125E0,9.868948120E-1,-1.355586902E0,4.732095494E0,5.020388928E0
7.112316125E0,3.857782388E0,-2.302634109E0,2.635109714E0,5.208494216E0
7.122319125E0,6.288237215E0,-3.738444225E0,8.060339999E-1,7.359862995E0
7.132321125E0,6.930020589E0,-3.609620124E0,3.148196456E-1,7.820080192E0
7.142323125E0,6.421857203E0,-2.537523193E0,-4.389650971E-2,6.905157550E0
7.152325125E0,4.641634390E0,-1.132213616E0,-1.299628463E-1,4.779494516E0
7.162327125E0,2.819593461E0,1.432149759E-1,1.844333147E-1,2.829246094E0
7.172329125E0,1.374136024E0,9.582218206E-1,3.942969011E-1,1.721019732E0
7.182331125E0,3.712783134E-1,1.479446132E0,5.225621545E-1,1.612352210E0
7.192333125E0,-3.912629271E-1,1.962129107E0,6.090034439E-1,2.091392480E0
7.202336125E0,-1.150026281E0,2.246451429E0,5.285340621E-1,2.578459371E0
7.212338125E0,-1.897301027E0,2.357093613E0,4.110404031E-1,3.053620098E0
7.222340125E0,-2.589464595E0,2.532333205E0,2.729882263E-1,3.632156511E0
7.232342125E0,-3.354884419E0,2.610686479E0,8.010334611E-2,4.251746689E0
7.242344125E0,-3.960459495E0,2.818281054E0,-1.033162075E-1,4.861956576E0
7.252346125E0,-4.317662975E0,2.894574646E0,-4.115160741E-1,5.214414773E0
7.262348125E0,-4.552962534E0,2.869999968E0,-6.341292219E-1,5.419270018E0
7.272350125E0,-4.608238603E0,2.874760479E0,-9.371496248E-1,5.511656761E0
7.282353125E0,-4.724428625E0,2.915926339E0,-1.143939476E0,5.668460970E0
7.292355125E0,-4.667942183E0,2.757765003E0,-1.133906093E0,5.539015712E0
7.302357125E0,-4.531617858E0,2.563036642E0,-1.186338660E0,5.339673834E0
7.312359125E0,-4.213691295E0,2.189833133E0,-1.124157761E0,4.879989154E0
7.322361125E0,-3.660232453E0,1.672120659E0,-1.009433489E0,4.148764283E0
7.332363125E0,-2.973824884E0,1.052750248E0,-9.549141969E-1,3.296024673E0
7.342365125E0,-2.283769822E0,4.176101884E-1,-8.129394154E-1,2.459852305E0
7.352367125E0,-1.710377821E0,-1.748817417E-1,-5.924042219E-1,1.818493519E0
7.362370125E0,-1.023376760E0,-7.221179768E-1,-4.660610944E-1,1.336400879E0
7.372372125E0,-3.300548583E-1,-1.167475542E0,-4.330560471E-1,1.288205299E0
7.382374125E0,3.528262550E-1,-1.548623371E0,-5.258460970E-1,1.673091399E0
7.392376125E0,1.086375831E0,-1.664623651E0,-7.586167355E-1,2.127600455E0
7.402378125E0,1.388262312E0,-1.595952781E0,-1.067829632E0,2.369514223E0
7.412380125E0,1.176649824E0,-1.246589832E0,-1.412308987E0,2.221060038E0
7.422382125E0,2.789291435E-1,-6.689144540E-1,-1.370029086E0,1.549912162E0
7.432384125E0,-9.074258888E-1,5.786053777E-2,-8.525047463E-1,1.246408411E0
7.442387125E0,-1.629382190E0,6.614890748E-1,-3.467398882E-1,1.792395790E0
7.452389125E0,-1.966536738E0,1.093928679E0,4.923004746E-2,2.250859901E0
7.462391125E0,-2.228732319E0,1.341089315E0,3.586225267E-1,2.625714840E0
7.472393125E0,-2.441453440E0,1.322367116E0,4.274181618E-1,2.809276771E0
7.482395125E0,-2.601353738E0,1.023868511E0,1.179336619E-1,2.798080833E0
7.492397125E0,-2.719355228E0,6.442497289E-1,-4.986914814E-1,2.838775046E0
7.502399125E0,-3.009941965E0,4.570639837E-1,-1.026963515E0,3.212991158E0
7.512402125E0,-3.449505817E0,5.130855721E-1,-1.231250539E0,3.698421971E0
7.522404125E0,-3.952050029E0,8.565434182E-1,-1.035741282E0,4.174341393E0
7.532406125E0,-4.449083240E0,1.465998121E0,-4.966836206E-1,4.710646111E0
7.542408125E0,-4.948593916E0,1.984091833E0,1.307963304E-1,5.333133210E0
7.552410125E0,-5.368184264E0,2.443642053E0,7.992635089E-1,5.952109789E0
7.562412125E0,-5.729067982E0,2.837561370E0,1.439956377E0,6.553430311E0
7.572414125E0,-6.003747954E0,3.145844121E0,2.050025622E0,7.081237871E0
7.582416125E0,-6.042592762E0,3.265138430E0,2.704467632E0,7.381612387E0
7.592419125E0,-5.991260056E0,3.123829939E0,3.334772336E0,7.534866759E0
7.602421125E0,-5.637652028E0,2.686164093E0,3.937915555E0,7.382802777E0
7.612423125E0,-4.617828037E0,1.860793936E0,4.672518799E0,6.827834340E0
7.622425125E0,-2.581867892E0,3.997261870E-1,5.023250581E0,5.662055213E0
7.632427125E0,7.249436438E-2,-1.518533015E0,5.012781141E0,5.238241377E0
7.642429125E0,3.458314063E0,-3.780532483E0,4.780237375E0,7.007355519E0
7.652431125E0,7.281326568E0,-6.035597738E0,4.439604319E0,1.044778652E1
7.662433125E0,1.121925148E1,-8.055794958E0,3.771297975E0,1.431747619E1
7.672436125E0,1.566358210E1,-9.729858647E0,3.024683965E0,1.868600189E1
7.682438125E0,1.916025097E1,-1.068322786E1,1.282089155E0,2.197476570E1
7.692440125E0,2.000481930E1,-9.813084991E0,7.262656993E-1,2.229387570E1
7.702442125E0,1.796903164E1,-7.301452099E0,2.059781555E0,1.950487121E1
7.712444125E0,1.540377394E1,-5.025574265E0,4.468445710E0,1.680772606E1
7.722446125E0,1.339960335E1,-4.021182537E0,5.998648013E0,1.522179546E1
7.732448125E0,1.186545067E1,-3.853905099E0,5.658121961E0,1.369875353E1
7.742450125E0,1.064850710E1,-3.926904078E0,5.372425250E0,1.255684005E1
7.752453125E0,1.016474823E1,-3.959548206E0,5.269578574E0,1.211480858E1
7.762455125E0,1.047896591E1,-4.402393515E0,5.054829054E0,1.243949726E1
7.772457125E0,1.118563233E1,-5.153326571E0,3.860333236E0,1.290648356E1
7.782459125E0,1.116546879E1,-5.379418520E0,1.898837382E0,1.253839784E1
7.792461125E0,1.044894864E1,-5.016646736E0,-8.012936622E-2,1.159110404E1
7.802463125E0,9.019635369E0,-4.233381209E0,-1.571697069E0,1.008690093E1
7.812465125E0,7.117875255E0,-3.089816978E0,-2.929773715E0,8.294256514E0
7.822468125E0,4.524846783E0,-1.497792941E0,-3.766448879E0,6.074846439E0
7.832470125E0,1.472461633E0,-8.768367648E-2,-3.952225153E0,4.218520517E0
7.842472125E0,-1.396565943E0,1.146456264E0,-4.060336370E0,4.444219823E0
7.852474125E0,-3.512190893E0,2.180768779E0,-3.995042267E0,5.749052100E0
7.862476125E0,-4.954313078E0,2.981798439E0,-4.248313828E0,7.175270754E0
7.872478125E0,-5.605449657E0,3.498432102E0,-3.973599065E0,7.710355541E0
7.882479500E0,-6.193200665E0,4.127474100E0,-3.654703618E0,8.291479691E0
7.892481500E0,-6.210930008E0,4.057817974E0,-3.795322138E0,8.333427170E0
7.902484500E0,-6.303288533E0,4.004605388E0,-4.046117403E0,8.493490253E0
7.912486500E0,-6.334910860E0,4.093864889E0,-4.170335653E0,8.618731043E0
7.922488500E0,-6.294552208E0,4.449163932E0,-4.566314067E0,8.959222698E0
7.932490500E0,-6.139361842E0,4.492703761E0,-4.900114944E0,9.049158932E0
7.942492500E0,-5.919273230E0,4.331430537E0,-5.140067425E0,8.956527184E0
7.952494500E0,-5.626417188E0,4.054580371E0,-5.480031559E0,8.838944408E0
7.962496500E0,-5.366197965E0,3.836414323E0,-6.042312680E0,8.945596570E0
7.972498500E0,-5.339437013E0,3.622198361E0,-6.232406246E0,8.970663086E0
7.982501500E0,-5.661492296E0,3.548304466E0,-6.061613170E0,9.021425266E0
7.992503500E0,-6.091270832E0,3.640389926E0,-5.842867663E0,9.192122807E0
8.002505500E0,-6.374556152E0,3.827204958E0,-5.530525775E0,9.266562430E0
8.012507500E0,-6.675021760E0,4.143408640E0,-4.960414647E0,9.291365030E0
8.022509500E0,-8.307540981E0,4.296962078E0,-2.840745764E0,9.774914667E0
8.032511500E0,-8.532908460E0,4.475034937E0,-3.215656952E0,1.015760376E1
8.042513500E0,-8.722031972E0,4.656903809E0,-2.627934596E0,1.023067129E1
8.052515500E0,-8.711970668E0,4.893729492E0,-1.894680451E0,1.017039012E1
8.062518500E0,-8.679339697E0,5.171038957E0,-1.658083248E0,1.023815518E1
8.072520500E0,-8.897825003E0,5.159625192E0,-1.679550716E0,1.042179987E1
8.082522500E0,-9.361409217E0,5.241650518E0,-1.562276620E0,1.084212114E1
8.092524500E0,-9.699884065E0,5.513272396E0,-1.265801151E0,1.122881009E1
8.102526500E0,-9.512558572E0,5.642505802E0,-1.017118558E0,1.110680748E1
8.112528500E0,-9.380081715E0,5.491324287E0,-9.165503957E-1,1.090782472E1
8.122530500E0,-9.466407668E0,5.727192780E0,-8.648499727E-1,1.109781856E1
8.132532500E0,-9.223408495E0,6.000853583E0,-6.905712982E-1,1.102535245E1
8.142535500E0,-8.887323403E0,6.186395676E0,-3.983731413E-1,1.083580684E1
8.152537500E0,-8.796291611E0,6.333878826E0,-1.922803511E-1,1.084111336E1
8.162539500E0,-8.524978466E0,6.417953017E0,-3.592302717E-2,1.067083264E1
8.172541500E0,-8.518216746E0,6.476037503E0,-1.112252245E-1,1.070100226E1
8.182543500E0,-8.512175987E0,6.435621548E0,-3.500705353E-1,1.067693374E1
8.192545500E0,-8.244645406E0,6.515046033E0,-9.858931839E-2,1.050855473E1
8.202547500E0,-8.066903499E0,6.166625655E0,-7.240431726E-2,1.015418369E1
8.212549500E0,-8.025862477E0,5.656299384E0,-3.257262377E-1,9.824168606E0
8.222552500E0,-7.643915918E0,5.478534088E0,-4.002449081E-1,9.412968836E0
8.232554500E0,-7.236343938E0,5.426654667E0,-7.353850899E-1,9.074912985E0
8.242556500E0,-7.190615203E0,5.690847657E0,-1.172554434E0,9.244759486E0
8.252558500E0,-6.739696643E0,5.725729222E0,-2.076733364E0,9.084068881E0
8.262560500E0,-4.874201546E0,5.284684855E0,-1.614862384E0,7.368413347E0
8.272562500E0,-2.934890614E0,3.508632277E0,-5.267799851E0,6.976660995E0
8.282564500E0,1.019907022E0,5.691901910E-1,-1.552880378E1,1.557266627E1
8.292567500E0,1.377029226E1,-3.834202906E0,-1.740184120E1,2.251990538E1
8.302569500E0,2.400656247E1,-1.545565979E1,4.181212935E0,2.885610859E1
8.312571500E0,3.745216938E1,-2.114413991E1,2.440049641E1,4.944819378E1
8.322573500E0,4.289986583E1,-1.482305421E1,2.742928863E1,5.303288884E1
8.332575500E0,4.523223128E1,-2.530894322E1,2.964043194E1,5.970806109E1
8.342577500E0,4.055286364E1,-2.623742727E1,2.856132419E0,4.838486159E1
8.352579500E0,2.340839699E1,-1.699796700E1,2.143669073E0,2.900826173E1
8.362581500E0,7.239455826E0,-5.377278439E0,2.233686081E0,9.290543448E0
8.372584500E0,-1.275274810E0,-1.362931005E0,-2.325735873E-1,1.880956469E0
8.382586500E0,-5.127633321E0,-1.958378702E-1,5.830336495E0,7.766839743E0
8.392588500E0,-5.277836012E0,1.325285461E0,6.016967340E0,8.112695636E0
8.402590500E0,-5.220569551E0,3.562755275E-1,4.526179363E0,6.918639918E0
8.412592500E0,-5.390722357E0,5.855384213E-1,4.082793186E0,6.787631618E0
8.422594500E0,-4.095053628E0,4.537620610E-1,4.205097642E0,5.887122421E0
8.432596500E0,-9.358848721E-1,-5.160220438E-1,5.169994059E0,5.279298989E0
8.442598500E0,2.161989861E0,-9.154862756E-1,4.375643381E0,4.965739651E0
8.452601500E0,4.957974604E0,-2.135561616E0,2.623851778E0,6.002227399E0
8.462603500E0,7.068975576E0,-3.534665835E0,1.324379143E0,8.013629538E0
8.472605500E0,7.210889254E0,-2.681236060E0,4.993025154E-1,7.709426285E0
8.482607500E0,5.761304267E0,-1.705643916E0,-7.874420469E-1,6.059860807E0
8.492609500E0,3.633413029E0,-9.424717605E-1,-1.152557541E0,3.926618411E0
8.502611500E0,1.730442542E0,2.303569078E-2,-1.094340323E0,2.047569969E0
8.512613500E0,3.615058619E-1,7.298740160E-1,-1.136475505E0,1.398205687E0
8.522616500E0,-6.409478062E-1,1.091789768E0,-8.942790091E-1,1.550017398E0
8.532618500E0,-1.467989683E0,1.747218204E0,-9.258381861E-1,2.462710195E0
8.542620500E0,-2.461015885E0,2.211017010E0,-9.422188684E-1,3.439908691E0
8.552622500E0,-3.517960340E0,2.656314642E0,-1.043443381E0,4.529991890E0
8.562624500E0,-4.270610431E0,2.853507312E0,-1.099134455E0,5.252495976E0
8.572626500E0,-4.639838126E0,3.098029100E0,-1.152556956E0,5.696864899E0
8.582628500E0,-5.048515815E0,3.284629539E0,-1.367066740E0,6.176177994E0
8.592630500E0,-5.241064627E0,3.218171840E0,-1.442014158E0,6.317024081E0
8.602633500E0,-5.299547308E0,3.164728873E0,-1.565405026E0,6.367982680E0
8.612635500E0,-5.138894473E0,2.957215868E0,-1.742900181E0,6.179891839E0
8.622637500E0,-4.662614785E0,2.602246608E0,-1.824353649E0,5.642688214E0
8.632639500E0,-4.114043630E0,2.143772276E0,-1.773082339E0,4.966380528E0
8.642641500E0,-3.387758635E0,1.614427351E0,-1.597026768E0,4.078452984E0
8.652643500E0,-2.379123291E0,8.865595150E-1,-1.225061846E0,2.819040960E0
8.662645500E0,-1.341794490E0,-3.071425438E-2,-7.711473186E-1,1.547909560E0
8.672647500E0,-2.793267542E-1,-1.006784701E0,-3.370886202E-1,1.097846805E0
8.682650500E0,7.146963984E-1,-1.926759299E0,-2.104857302E-1,2.065791998E0
8.692652500E0,1.588572133E0,-2.675675358E0,-2.999143620E-1,3.126139579E0
8.702654500E0,2.138116264E0,-3.093883424E0,-5.329074870E-1,3.798374151E0
8.712656500E0,2.009515527E0,-2.997455821E0,-8.517827614E-1,3.707887259E0
8.722658500E0,8.892065495E-1,-2.193988749E0,-1.099618020E0,2.610255679E0
8.732660500E0,-8.732313716E-1,-9.302136576E-1,-9.196186490E-1,1.572745668E0
8.742662500E0,-2.247686654E0,2.584954637E-1,-7.679031372E-1,2.389265667E0
8.752664500E0,-3.135486948E0,1.166460466E0,-8.510546368E-1,3.451985286E0
8.762667500E0,-3.860282657E0,1.959179186E0,-7.970835207E-1,4.401761854E0
8.772669500E0,-4.490614259E0,2.791642016E0,-5.176866730E-1,5.312897614E0
8.782671500E0,-5.023326010E0,3.420285527E0,-1.135868418E-1,6.078244751E0
8.792673500E0,-5.521372544E0,3.865684900E0,8.277552366E-2,6.740617649E0
8.802675500E0,-5.841117591E0,4.020692832E0,3.351477466E-1,7.099080897E0
8.812677500E0,-6.018765358E0,4.101939894E0,6.239394253E-1,7.310317896E0
8.822679500E0,-6.003329878E0,4.138382081E0,9.745004690E-1,7.356346039E0
8.832681500E0,-5.943609926E0,4.091434786E0,1.431666194E0,7.356358179E0
8.842684500E0,-5.990380050E0,3.790103205E0,1.883111004E0,7.334551282E0
8.852686500E0,-5.672648783E0,3.120339151E0,2.285573103E0,6.865806948E0
8.862688500E0,-4.800911375E0,2.122133485E0,2.555126236E0,5.837882377E0
8.872690500E0,-3.359813622E0,9.879449719E-1,2.579993860E0,4.349798979E0
8.882693125E0,-1.800661755E0,-3.431228006E-1,2.720642200E0,3.280550257E0
8.892695125E0,-1.384421861E-1,-1.878329735E0,2.979807170E0,3.525129729E0
8.902697125E0,1.574078640E0,-3.424427694E0,3.465973915E0,5.120293329E0
8.912699125E0,3.434065660E0,-4.753719082E0,4.125111825E0,7.169881424E0
8.922702125E0,5.290478277E0,-5.521768400E0,4.787584401E0,9.022197685E0
8.932704125E0,7.075685256E0,-6.385575230E0,4.971708544E0,1.074982691E1
8.942706125E0,8.923722321E0,-6.665584939E0,4.740294460E0,1.210509125E1
8.952708125E0,1.040087985E1,-6.511852868E0,4.068830035E0,1.292818268E1
8.962710125E0,1.162361568E1,-5.600675991E0,3.857919797E0,1.346698029E1
8.972712125E0,1.235849725E1,-5.035771809E0,2.886259906E0,1.365364230E1
8.982714125E0,1.275917653E1,-4.191143262E0,2.826107259E0,1.372403548E1
8.992716125E0,1.287893219E1,-4.249374805E0,4.052447891E0,1.415437792E1
9.002719125E0,1.253517087E1,-4.790905327E0,3.844044355E0,1.395922489E1
9.012721125E0,1.254167180E1,-4.967408502E0,4.102809375E0,1.409970651E1
9.022723125E0,1.234013114E1,-4.761942899E0,4.421831707E0,1.394659573E1
9.032725125E0,1.115904855E1,-4.171150754E0,4.112740286E0,1.260307485E1
9.042727125E0,9.960047740E0,-3.733542796E0,3.809839605E0,1.129852958E1
9.052729125E0,9.464902010E0,-3.791019464E0,4.019582446E0,1.095961868E1
9.062731125E0,9.608513719E0,-4.312011057E0,4.024835877E0,1.127458554E1
9.072734125E0,9.619769610E0,-4.479058699E0,3.178405218E0,1.107719251E1
9.082736125E0,9.072085478E0,-4.132931306E0,1.762428273E0,1.012373496E1
9.092738125E0,8.083887321E0,-3.564754438E0,2.722115698E-1,8.839163284E0
9.102740125E0,6.726955560E0,-2.789372419E0,-1.242196819E0,7.387528852E0
9.112742125E0,4.878228523E0,-1.819180179E0,-2.695132845E0,5.862616404E0
9.122744125E0,2.620718547E0,-7.396993849E-1,-3.503817388E0,4.437573342E0
9.132746125E0,1.939626682E-1,3.712104857E-1,-4.007777210E0,4.029602574E0
9.142748125E0,-2.172411938E0,1.544803385E0,-4.113781090E0,4.901936963E0
9.152751125E0,-3.895506869E0,2.177920015E0,-4.259469146E0,6.169391118E0
9.162753125E0,-4.973849795E0,2.719568944E0,-4.220641003E0,7.067464007E0
9.172755125E0,-5.467048402E0,3.465236874E0,-4.190730156E0,7.710947027E0
9.182757125E0,-5.870180592E0,3.758334698E0,-4.159927316E0,8.117209814E0
9.192759125E0,-6.138090658E0,3.685491255E0,-4.373842438E0,8.389845075E0
9.202761125E0,-6.091404149E0,3.865138477E0,-4.761697901E0,8.643972863E0
9.212763125E0,-5.903129067E0,3.966821558E0,-5.237904791E0,8.832794159E0
9.222765125E0,-5.780286083E0,3.875822802E0,-5.577481256E0,8.918632561E0
9.232768125E0,-5.534596606E0,3.671093656E0,-6.020818900E0,8.964315281E0
9.242770125E0,-5.426158238E0,3.345424502E0,-6.464618475E0,9.078895877E0
9.252772125E0,-5.563836778E0,3.031000420E0,-6.732942524E0,9.245310069E0
9.262774125E0,-6.057407268E0,2.833694314E0,-6.616007566E0,9.407101700E0
9.272776125E0,-6.648920374E0,3.033388131E0,-6.055556624E0,9.491014262E0
9.282778125E0,-7.098566580E0,3.171573332E0,-5.612176294E0,9.588798029E0
9.292780125E0,-7.453237631E0,3.334103123E0,-5.102613670E0,9.628274045E0
9.302782125E0,-7.232286555E0,3.605200213E0,-4.985820215E0,9.495358898E0
9.312785125E0,-8.716150258E0,3.916824648E0,-2.481303384E0,9.872672239E0
9.322787125E0,-8.887525132E0,4.154737035E0,-2.830498518E0,1.021086013E1
9.332789125E0,-8.731654735E0,4.383092734E0,-2.521340439E0,1.009011665E1
9.342791125E0,-9.118431678E0,4.454203354E0,-2.323281650E0,1.041073299E1
9.352793125E0,-8.995061275E0,4.668404990E0,-1.958558797E0,1.032187411E1
9.362795125E0,-9.267204140E0,4.927089611E0,-2.034450101E0,1.069094345E1
9.372797125E0,-9.293958076E0,4.909767820E0,-1.702844269E0,1.064815267E1
9.382799125E0,-9.472829665E0,4.966199883E0,-1.704014735E0,1.083057290E1
9.392802125E0,-9.569540858E0,5.167551677E0,-1.568662802E0,1.098819392E1
9.402804125E0,-9.329030260E0,5.358270895E0,-1.332992822E0,1.084060618E1
9.412806125E0,-9.200383329E0,5.516125252E0,-1.101164755E0,1.078365685E1
9.422808125E0,-8.975849664E0,5.879790491E0,-8.325734885E-1,1.076248076E1
9.432810125E0,-8.799343858E0,6.054244509E0,-9.625671789E-1,1.072421859E1
9.442812125E0,-8.731492767E0,6.000938952E0,-8.933985646E-1,1.063242189E1
9.452814125E0,-8.661232624E0,5.975594780E0,-7.679734500E-1,1.055056713E1
9.462816125E0,-8.611631863E0,5.738866162E0,-7.876678956E-1,1.037859378E1
9.472819125E0,-8.466025668E0,5.186205465E0,-7.013167995E-1,9.952997689E0
9.482821125E0,-8.191401245E0,5.027528989E0,-7.405492777E-1,9.639684399E0
9.492823125E0,-8.015113540E0,4.935521296E0,-8.733383757E-1,9.453260572E0
9.502825125E0,-7.685383787E0,4.761440331E0,-9.667587554E-1,9.092362755E0
9.512827125E0,-7.503147125E0,4.943942456E0,-1.129554010E0,9.056250662E0
9.522829125E0,-7.687546672E0,5.000475676E0,-1.828358846E0,9.351258038E0
9.532831125E0,-7.444480841E0,4.834427615E0,-2.910115376E0,9.341346630E0
9.542833125E0,-6.639486476E0,4.638420176E0,-2.881683290E0,8.596616833E0
9.552836125E0,-4.744720218E0,4.392392730E0,-3.089154781E0,7.165777076E0
9.562838125E0,-1.850934361E0,3.050315235E0,-4.209912239E0,5.518490926E0
9.572840125E0,3.120988777E0,1.903595847E0,-1.141633188E1,1.198736342E1
9.582842125E0,1.349387684E1,-1.379065812E-3,-1.156943187E1,1.777460176E1
9.592844125E0,2.383636172E1,-1.100338163E1,1.009357826E1,2.812697761E1
9.602846125E0,3.998354598E1,-1.481195853E1,2.300951397E1,4.845116921E1
9.612848125E0,5.038759034E1,-1.449804140E1,2.958375838E1,6.020216960E1
9.622851125E0,4.588664698E1,-1.984031607E1,1.428076355E1,5.199194861E1
9.632853125E0,3.573105548E1,-1.656711257E1,1.418132814E0,3.941051440E1
9.642855125E0,1.654853363E1,-8.512807487E0,5.847367680E0,1.950675692E1
9.652857125E0,7.139969544E0,-2.379240527E0,4.830273753E0,8.942678297E0
9.662859125E0,-3.651153481E-1,5.732931823E-2,2.970486708E0,2.993390578E0
9.672861125E0,-3.679420091E0,9.298537615E-1,6.190782841E0,7.261442860E0
9.682863125E0,-4.201619718E0,3.420717636E-1,7.465741902E0,8.573676195E0
9.692865125E0,-4.551477926E0,-8.449010271E-1,6.744619998E0,8.180446686E0
9.702868125E0,-4.632311005E0,-1.066518686E0,5.413487322E0,7.204277364E0
9.712870125E0,-3.520312675E0,-9.524883333E-1,5.578727297E0,6.664985642E0
9.722872125E0,-1.505305443E0,-1.170421077E0,5.071450349E0,5.418065948E0
9.732874125E0,8.258315027E-1,-2.026541449E0,3.183139124E0,3.862802428E0
9.742876125E0,3.364438185E0,-3.257615987E0,1.398955116E0,4.887594668E0
9.752878125E0,5.443733214E0,-4.592658989E0,3.555358547E-1,7.131139715E0
9.762880125E0,6.249408780E0,-4.652114355E0,-2.395095545E-1,7.794526470E0
9.772882125E0,5.338901993E0,-3.509931821E0,-1.124454653E0,6.487518335E0
9.782885125E0,3.258237546E0,-2.110275916E0,-1.356963921E0,4.112265487E0
9.792887125E0,1.554832529E0,-1.063282545E0,-9.908264798E-1,2.128335283E0
9.802889125E0,4.760668498E-1,-4.797810012E-1,-5.668115437E-1,8.821024774E-1
9.812891125E0,-3.040242237E-1,-5.816400826E-2,-2.954881659E-1,4.279334488E-1
9.822893125E0,-9.200927120E-1,3.189428097E-1,-2.688155070E-1,1.010226159E0
9.832895125E0,-1.337675711E0,5.760744104E-1,-2.938401282E-1,1.485792736E0
9.842897125E0,-1.653784960E0,1.246426987E0,-5.352283931E-1,2.138937671E0
9.852899125E0,-2.279708346E0,1.769917095E0,-8.838241875E-1,3.018413798E0
9.862902125E0,-2.961611804E0,1.927724382E0,-1.190777574E0,3.728969965E0
9.872904125E0,-3.364456896E0,2.074210875E0,-1.487474944E0,4.223091601E0
9.882905750E0,-3.706757578E0,2.177398736E0,-1.592057074E0,4.584295227E0
9.892907750E0,-3.951362981E0,2.249836675E0,-1.905078700E0,4.929945165E0
9.902909750E0,-4.238262464E0,2.236403574E0,-1.908304609E0,5.158100052E0
9.912911750E0,-4.324857974E0,2.174795263E0,-1.961278044E0,5.223097022E0
9.922913750E0,-4.328298476E0,2.060294209E0,-2.032730727E0,5.206819964E0
9.932915750E0,-4.194860922E0,1.917623609E0,-1.922762142E0,4.997114439E0
9.942918750E0,-3.910804939E0,1.755650766E0,-1.904525408E0,4.690833818E0
9.952920750E0,-3.337215888E0,1.522854399E0,-1.722664576E0,4.052612570E0
9.962922750E0,-2.660930434E0,1.057313707E0,-1.521711123E0,3.242540330E0
9.972924750E0,-1.947676544E0,5.809410480E-1,-1.348432249E0,2.439099414E0
9.982926750E0,-1.225679896E0,1.174512666E-1,-1.186382660E0,1.709850820E0
9.992928750E0,-5.910324651E-1,-3.486326319E-1,-1.024595904E0,1.233150783E0
1.000293075E1,5.282082260E-2,-5.270104238E-1,-9.120907974E-1,1.054722546E0
1.001293375E1,4.709324098E-1,-4.328187963E-1,-7.710729128E-1,1.001829767E0
1.002293575E1,5.377877194E-1,-1.836543193E-1,-7.411252284E-1,9.339224509E-1
1.003293775E1,3.254992926E-1,2.313483033E-1,-4.825420564E-1,6.263534650E-1
1.004293975E1,-2.415052092E-1,6.214517274E-1,-2.470191336E-1,7.110172065E-1
1.005294175E1,-9.167118520E-1,7.359732467E-1,-1.874213880E-1,1.190438581E0
1.006294375E1,-1.494161235E0,6.563236445E-1,-2.971975994E-1,1.658796231E0
1.007294575E1,-2.053057403E0,5.382247987E-1,-5.010941023E-1,2.180785623E0
1.008294775E1,-2.596351445E0,5.445921242E-1,-5.798234989E-1,2.715477251E0
1.009295075E1,-3.067366301E0,6.769239700E-1,-4.483675660E-1,3.173010488E0
1.010295275E1,-3.450020957E0,9.447548059E-1,-2.232812653E-1,3.584000666E0
1.011295475E1,-3.771769845E0,1.259848686E0,7.522844933E-2,3.977326464E0
1.012295675E1,-4.028136338E0,1.628712684E0,3.684967198E-1,4.360547809E0
1.013295875E1,-4.192132611E0,2.115805044E0,7.907552254E-1,4.761921948E0
1.014296075E1,-4.391422677E0,2.637772536E0,1.358601726E0,5.299833557E0
1.015296275E1,-4.685791394E0,3.021011329E0,2.002822804E0,5.924056855E0
1.016296475E1,-4.806978446E0,3.310528026E0,2.641903594E0,6.406738031E0
1.017296775E1,-4.792866191E0,3.288354215E0,3.345825328E0,6.706667347E0
1.018296975E1,-4.578190346E0,2.922463526E0,4.009476119E0,6.751038339E0
1.019297175E1,-4.096568642E0,2.246698474E0,4.489506211E0,6.479598343E0
1.020297375E1,-3.070213310E0,1.267605017E0,4.780471264E0,5.821162921E0
1.021297575E1,-1.413367333E0,-9.490089476E-2,4.906711480E0,5.107096136E0
1.022297775E1,6.280266291E-1,-1.899962094E0,4.835509935E0,5.233204538E0
1.023297975E1,3.337541578E0,-4.009809410E0,4.463732854E0,6.866051724E0
1.024298175E1,6.384981737E0,-6.493109618E0,4.155038459E0,1.000963580E1
1.025298475E1,9.860350374E0,-8.696872573E0,3.859593855E0,1.370250221E1
1.026298675E1,1.424859567E1,-1.031699219E1,4.143221236E0,1.807288269E1
1.027298875E1,1.711858219E1,-1.133046903E1,3.355801848E0,2.080112475E1
1.028299075E1,1.863676028E1,-1.054891732E1,3.306089990E0,2.166884218E1
1.029299275E1,1.882250995E1,-8.648852899E0,4.639180899E0,2.122761260E1
1.030299475E1,1.744057667E1,-7.180962619E0,5.508652511E0,1.964905064E1
1.031299675E1,1.512007990E1,-5.891114793E0,5.498100625E0,1.713333476E1
1.032299975E1,1.336135788E1,-5.313792880E0,5.240016221E0,1.530424938E1
1.033300175E1,1.202282731E1,-4.994751837E0,4.833466918E0,1.388734405E1
1.034300375E1,1.092819813E1,-4.638851116E0,4.358123953E0,1.264664772E1
1.035300575E1,1.026833283E1,-4.543330416E0,3.306561860E0,1.170529204E1
1.036300775E1,9.778477660E0,-4.409797552E0,1.876131767E0,1.088966529E1
1.037300975E1,9.039395449E0,-4.313831002E0,3.313739902E-1,1.002145781E1
1.038301175E1,8.025004106E0,-4.071058409E0,-1.302385133E0,9.092327232E0
1.039301375E1,6.427015032E0,-3.367539256E0,-2.653800047E0,7.725897847E0
1.040301675E1,4.168280649E0,-2.181957518E0,-3.687840959E0,5.977932177E0
1.041301875E1,1.712606780E0,-7.865121934E-1,-4.098669839E0,4.511176993E0
1.042302075E1,-7.882105172E-1,4.482519373E-1,-4.133673026E0,4.231956793E0
1.043302275E1,-2.821271612E0,1.621612118E0,-4.469323085E0,5.528476119E0
1.044302475E1,-4.488888745E0,2.445553215E0,-4.446799610E0,6.775313976E0
1.045302675E1,-5.381431716E0,3.318477901E0,-4.294257740E0,7.642823590E0
1.046302875E1,-5.771291311E0,3.756008383E0,-4.055580829E0,7.991441562E0
1.047303175E1,-6.030483763E0,4.034573830E0,-3.789113272E0,8.185468820E0
1.048303375E1,-6.373118321E0,4.475702689E0,-3.833204201E0,8.679977313E0
1.049303575E1,-6.616761857E0,4.633690363E0,-4.195568435E0,9.102495171E0
1.050303775E1,-6.732875866E0,4.679834250E0,-4.709271180E0,9.455670314E0
1.051303975E1,-6.789912531E0,4.701340894E0,-5.182503592E0,9.750069839E0
1.052304175E1,-6.755965936E0,4.790637817E0,-5.245316722E0,9.803399101E0
1.053304375E1,-6.603564692E0,4.761003836E0,-5.264707843E0,9.694914793E0
1.054304575E1,-6.425462596E0,4.598917849E0,-5.250043611E0,9.486810469E0
1.055304875E1,-6.430030441E0,4.392606153E0,-5.289902911E0,9.413997721E0
1.056305075E1,-6.476031656E0,3.998580125E0,-5.383050225E0,9.322277552E0
1.057305275E1,-6.573089004E0,3.872512401E0,-5.485669445E0,9.396511087E0
1.058305475E1,-6.619106006E0,4.027390526E0,-5.541941879E0,9.526046323E0
1.059305675E1,-6.639074247E0,4.321920333E0,-5.524334743E0,9.657876401E0
1.060305875E1,-7.902498506E0,4.479524722E0,-3.883218653E0,9.879018750E0
1.061306075E1,-8.475367765E0,4.716293394E0,-3.836855788E0,1.043056779E1
1.062306275E1,-8.582537287E0,4.838013420E0,-3.671290707E0,1.051402376E1
1.063306575E1,-8.688893462E0,4.910152566E0,-2.745719739E0,1.035110838E1
1.064306775E1,-9.082903996E0,4.838246432E0,-2.257890630E0,1.053593108E1
1.065306975E1,-9.544758604E0,4.728754395E0,-2.390101438E0,1.091678157E1
1.066307175E1,-9.847359030E0,5.071074373E0,-1.914742101E0,1.124066335E1
1.067307375E1,-9.630723199E0,5.248898141E0,-1.636739157E0,1.108966528E1
1.068307575E1,-9.387902951E0,5.304190582E0,-1.517976944E0,1.088905017E1
1.069307775E1,-9.392709362E0,5.550932558E0,-1.404218194E0,1.100034864E1
1.070307975E1,-9.413784481E0,5.716442674E0,-1.167009008E0,1.107515080E1
1.071308275E1,-9.483700808E0,5.836231073E0,-1.129022206E0,1.119271483E1
1.072308475E1,-9.086229892E0,5.909706016E0,-8.989333928E-1,1.087622545E1
1.073308675E1,-8.529010121E0,5.936910186E0,-9.767773747E-1,1.043767265E1
1.074308875E1,-8.385738135E0,5.899032508E0,-1.155999212E0,1.031772857E1
1.075309075E1,-8.264234163E0,5.829552968E0,-1.128329165E0,1.017616729E1
1.076309275E1,-8.307033443E0,5.313510459E0,-9.097026484E-1,9.902916587E0
1.077309475E1,-8.093041137E0,5.127615779E0,-8.790470123E-1,9.620939771E0
1.078309675E1,-7.967334187E0,5.028904254E0,-9.929320621E-1,9.473869649E0
1.079309975E1,-7.860100930E0,4.998413948E0,-1.135540243E0,9.383750863E0
1.080310175E1,-7.768717720E0,4.909774836E0,-1.041185040E0,9.248942115E0
1.081310375E1,-7.594272473E0,4.892977540E0,-6.308892797E-1,9.056060119E0
1.082310575E1,-7.815423524E0,4.990200364E0,-9.640352686E-1,9.322677112E0
1.083310775E1,-7.693988550E0,4.805281584E0,-1.904456849E0,9.269042388E0
1.084310975E1,-6.621849520E0,4.593989523E0,-1.899165119E0,8.280124332E0
1.085311175E1,-5.133162448E0,4.054894366E0,-1.465974878E0,6.703775606E0
1.086311475E1,-3.042311566E0,3.022934479E0,-6.457152750E0,7.751684602E0
1.087311675E1,2.690481092E0,2.016236901E-1,-2.047667323E1,2.065365554E1
1.088311892E1,1.416830171E1,-9.948146317E0,-2.242463570E1,2.832967834E1
1.089312092E1,2.440785922E1,-3.143305494E1,7.325881181E0,4.046540584E1
1.090312292E1,3.119629416E1,-2.226802855E1,2.375238167E1,4.509156795E1
1.091312492E1,3.317235835E1,-1.341968269E1,2.653997858E1,4.455180922E1
1.092312692E1,4.137466407E1,-1.843729655E1,3.379412787E1,5.651406736E1
1.093312892E1,3.986626486E1,-8.654616500E0,1.525796660E1,4.355487350E1
1.094313192E1,3.197660275E1,-7.875714750E0,7.743583463E0,3.383035754E1
1.095313392E1,1.487236027E1,-1.415946247E0,8.954133689E-1,1.496642138E1
1.096313592E1,3.855204350E0,9.521822315E-1,1.251360283E0,4.163550665E0
1.097313792E1,-9.365181255E-1,1.668700038E0,2.529811593E0,3.171998221E0
1.098313992E1,-2.716887703E0,2.057377034E0,2.186317787E0,4.048983145E0
1.099314192E1,-4.279449667E0,5.234980014E-1,2.935528837E0,5.215847885E0
1.100314392E1,-4.511280073E0,3.239959735E-1,3.242759089E0,5.565259005E0
1.101314692E1,-3.131306189E0,7.925397956E-1,4.558337003E0,5.586737331E0
1.102314892E1,-2.875941324E-1,2.393320915E-1,6.296516873E0,6.307623559E0
1.103315092E1,2.276114062E0,-2.334392676E-1,6.338247281E0,6.738587961E0
1.104315292E1,5.153894920E0,-1.301860638E0,4.708686459E0,7.101352134E0
1.105315492E1,6.739582622E0,-2.127218516E0,2.428596582E0,7.472958845E0
1.106315692E1,6.208408688E0,-2.529626236E0,3.149789822E-1,6.711375351E0
1.107315892E1,4.624299735E0,-2.737155614E0,-5.823894033E-1,5.405122229E0
1.108316192E1,2.389519055E0,-2.476156957E0,-6.617665252E-1,3.504153183E0
1.109316392E1,3.393764895E-1,-1.795068016E0,-3.562495074E-1,1.861278940E0
1.110316592E1,-1.257032082E0,-9.431912604E-1,2.675393522E-3,1.571542735E0
1.111316792E1,-2.410861977E0,-3.671528104E-1,2.640944651E-1,2.452917150E0
1.112316992E1,-3.124793560E0,1.383120856E-1,2.315371683E-1,3.136411084E0
1.113317192E1,-3.646258192E0,8.427863815E-1,2.722919691E-1,3.752283385E0
1.114317392E1,-4.256433856E0,9.030928096E-1,-5.059771121E-2,4.351478591E0
1.115317592E1,-4.564398519E0,1.433864163E0,-1.621584928E-1,4.787065453E0
1.116317892E1,-4.790394573E0,1.789704072E0,-4.065127578E-1,5.129929186E0
1.117318092E1,-4.802034625E0,2.070855158E0,-5.938060918E-1,5.263134361E0
1.118318292E1,-4.665016821E0,2.293962688E0,-8.928598899E-1,5.274641745E0
1.119318492E1,-4.445115319E0,2.535621094E0,-1.185893102E0,5.253072147E0
1.120318692E1,-4.110240017E0,2.506720938E0,-1.410337013E0,5.016649614E0
1.121318892E1,-3.739877377E0,2.632944490E0,-1.739591388E0,4.893389182E0
1.122319092E1,-3.354811914E0,2.614120841E0,-1.791837721E0,4.615091892E0
1.123319392E1,-3.013674243E0,2.567879891E0,-1.764581218E0,4.334741797E0
1.124319592E1,-2.566590287E0,2.440651787E0,-1.556650575E0,3.868763092E0
1.125319792E1,-2.060095112E0,2.251457231E0,-1.406416748E0,3.360217195E0
1.126319992E1,-1.417969092E0,1.943070692E0,-1.218896542E0,2.696640287E0
1.127320192E1,-8.088833481E-1,1.560393816E0,-9.812366076E-1,2.012944712E0
1.128320392E1,-3.343057841E-1,1.166621557E0,-8.556699903E-1,1.484903144E0
1.129320592E1,-9.370630860E-2,8.299166599E-1,-8.985872376E-1,1.226785050E0
1.130320792E1,-7.626581848E-2,5.544838589E-1,-1.101119585E0,1.235205718E0
1.131321092E1,-3.521813071E-1,4.299089295E-1,-1.291756942E0,1.406232327E0
1.132321292E1,-9.387067384E-1,4.982041159E-1,-1.519086307E0,1.853915017E0
1.133321492E1,-1.662615425E0,7.974029249E-1,-1.526536245E0,2.393836749E0
1.134321692E1,-2.486529626E0,1.239710875E0,-1.319554020E0,3.075863366E0
1.135321892E1,-3.200902088E0,1.671675101E0,-1.038914566E0,3.757607656E0
1.136322092E1,-3.682347207E0,1.989735273E0,-6.571868397E-1,4.236817432E0
1.137322292E1,-4.034140844E0,2.128802819E0,-3.160998935E-1,4.572309365E0
1.138322592E1,-4.157400150E0,2.146687405E0,-9.632059872E-2,4.679906033E0
1.139322792E1,-4.012828912E0,2.094014810E0,1.964180602E-1,4.530593113E0
1.140322992E1,-3.783141510E0,2.059834034E0,4.628362819E-1,4.332354251E0
1.141323192E1,-3.322793146E0,1.891991755E0,6.001277360E-1,3.870496143E0
1.142323392E1,-2.579465271E0,1.487731344E0,6.438690021E-1,3.046564119E0
1.143323592E1,-1.740146581E0,1.068904935E0,8.362174002E-1,2.206791205E0
1.144323792E1,-9.997779822E-1,7.492364860E-1,1.202560591E0,1.734088608E0
1.145323992E1,-4.829227102E-1,5.385344088E-1,1.614997455E0,1.769590470E0
1.146324292E1,-7.854155481E-2,4.001796386E-1,2.214084460E0,2.251329055E0
1.147324492E1,3.569947350E-1,2.267842591E-1,3.024441891E0,3.053870510E0
1.148324692E1,9.036094111E-1,-1.875728309E-1,3.906086821E0,4.013627759E0
1.149324892E1,1.646865365E0,-7.745198464E-1,4.828327800E0,5.159922080E0
1.150325092E1,2.385886765E0,-1.688809197E0,5.834022580E0,6.525362183E0
1.151325292E1,3.478277627E0,-2.844000909E0,6.418734789E0,7.834980071E0
1.152325492E1,5.220632701E0,-4.170893769E0,6.273941358E0,9.165898799E0
1.153325692E1,7.081278117E0,-5.693000017E0,5.496851660E0,1.061932800E1
1.154325992E1,9.010446469E0,-6.889653166E0,4.766040920E0,1.230327649E1
1.155326192E1,1.053721470E1,-7.783236941E0,4.116254463E0,1.373154113E1
1.156326392E1,1.183850436E1,-8.306579114E0,3.940602350E0,1.498925578E1
1.157326592E1,1.284544518E1,-8.921479329E0,4.367131004E0,1.623792131E1
1.158326792E1,1.330576256E1,-8.866954043E0,4.823520219E0,1.670127356E1
1.159326992E1,1.324857562E1,-8.057574266E0,4.845110478E0,1.624574881E1
1.160327192E1,1.267596714E1,-6.723260704E0,4.604651921E0,1.506934626E1
1.161327492E1,1.154176050E1,-5.213899047E0,3.965135513E0,1.327099388E1
1.162327692E1,1.014871517E1,-3.793662698E0,3.027471626E0,1.124961691E1
1.163327892E1,8.996043023E0,-2.719801663E0,2.694672377E0,9.776879378E0
1.164328092E1,8.428604073E0,-2.485036831E0,3.196397686E0,9.350600667E0
1.165328292E1,8.860696937E0,-2.981358436E0,3.742595455E0,1.007012756E1
1.166328492E1,9.304690640E0,-3.940991775E0,3.054126450E0,1.055634276E1
1.167328692E1,9.133335062E0,-4.408974557E0,1.144054812E0,1.020616125E1
1.168328992E1,7.426202445E0,-4.047723341E0,-9.725857982E-1,8.513428812E0
1.169329192E1,4.617414638E0,-2.998486100E0,-2.705240926E0,6.134310500E0
1.170329392E1,1.830824617E0,-1.697298185E0,-3.800347527E0,4.547018939E0
1.171329592E1,-6.618451703E-1,-3.865500712E-1,-4.615174862E0,4.678386367E0
1.172329792E1,-2.749299404E0,7.386252514E-1,-4.832498911E0,5.608677224E0
1.173329992E1,-4.158131636E0,1.673292441E0,-5.530642719E0,7.118846479E0
1.174330192E1,-5.012877620E0,2.172237691E0,-5.571462132E0,7.803124304E0
1.175330392E1,-5.093782035E0,2.706142275E0,-5.341683514E0,7.861514116E0
1.176330692E1,-5.184332017E0,3.076789674E0,-5.553711154E0,8.196806741E0
1.177330892E1,-4.969215292E0,3.113756940E0,-6.060215685E0,8.432958974E0
1.178331092E1,-4.626858476E0,2.950736276E0,-6.851667899E0,8.778383503E0
1.179331292E1,-3.929443524E0,2.817806552E0,-8.021964723E0,9.366561706E0
1.180331492E1,-3.209175898E0,2.681851187E0,-8.758011060E0,9.705353855E0
1.181331692E1,-2.880161260E0,2.379935469E0,-8.979032303E0,9.725350524E0
1.182331892E1,-3.316816707E0,2.716637150E0,-8.444486865E0,9.470519990E0
1.183332192E1,-4.682756689E0,3.483020888E0,-7.278365538E0,9.329214844E0
1.184332392E1,-5.851635563E0,4.078337316E0,-6.628869102E0,9.737370261E0
1.185332592E1,-6.861062620E0,4.479608922E0,-4.963635879E0,9.580123042E0
1.186332792E1,-7.739752368E0,4.806070958E0,-2.238288278E0,9.381472123E0
1.187332992E1,-8.234647252E0,4.910549008E0,-2.725978954E0,9.967641054E0
1.188333200E1,-8.747595999E0,4.641068380E0,-2.442317951E0,1.019925823E1
1.189333400E1,-9.147992862E0,4.693132280E0,-2.007230581E0,1.047569752E1
1.190333600E1,-9.401797104E0,4.831545815E0,-1.293494734E0,1.064944845E1
1.191333900E1,-9.443397120E0,4.891233900E0,-8.341414194E-1,1.066760096E1
1.192334100E1,-9.477503929E0,5.074409040E0,-5.826171523E-1,1.076625053E1
1.193334300E1,-9.437757481E0,5.121335869E0,-3.924704502E-1,1.074492347E1
1.194334500E1,-9.341894134E0,4.935485044E0,-4.740271948E-2,1.056561620E1
1.195334700E1,-9.140317222E0,4.979540305E0,-4.657248064E-1,1.041912281E1
1.196334900E1,-9.104238147E0,4.705819861E0,-5.317188212E-1,1.026229106E1
1.197335100E1,-9.012842073E0,4.966506277E0,-1.306186116E-1,1.029148036E1
1.198335400E1,-8.942481943E0,5.262238564E0,2.740742735E-1,1.037951129E1
1.199335600E1,-9.003666623E0,5.977936590E0,2.849430048E-1,1.081124096E1
1.200335800E1,-8.838214393E0,6.974512637E0,1.015003035E0,1.130433949E1
1.201336000E1,-8.523770431E0,5.927931202E0,1.082794996E0,1.043874876E1
1.202336200E1,-8.089959655E0,5.173068525E0,1.382251813E-1,9.603498914E0
1.203336400E1,-7.846963990E0,5.220523943E0,3.415937537E-1,9.431086915E0
1.204336600E1,-7.657822351E0,5.318466559E0,8.104744486E-1,9.358696412E0
1.205336800E1,-7.762372321E0,5.259343023E0,4.870935291E-1,9.388949526E0
1.206337100E1,-7.696596408E0,5.199529515E0,4.712657741E-1,9.300257785E0
1.207337300E1,-7.526351801E0,5.180744165E0,4.054330695E-1,9.146062404E0
1.208337500E1,-7.338817561E0,5.117671419E0,4.657172781E-1,8.959112486E0
1.209337700E1,-7.152061002E0,5.096886907E0,3.594605058E-1,8.789735182E0
1.210337900E1,-7.049986743E0,5.200752752E0,4.868666571E-1,8.774233950E0
1.211338100E1,-7.098616281E0,5.251858002E0,6.913379413E-1,8.857218171E0
1.212338300E1,-7.036560951E0,5.391385431E0,8.392227960E-1,8.904185633E0
1.213338600E1,-6.571702629E0,5.616230169E0,1.114036084E0,8.716099652E0
1.214338800E1,-5.886068062E0,5.819496927E0,1.673509957E0,8.444701136E0
1.215339000E1,-5.495065920E0,5.800865943E0,2.076911704E0,8.255868058E0
1.216339200E1,-4.376505845E0,5.149292577E0,3.603841320E0,7.658765548E0
1.217339400E1,-4.974452058E0,4.071359541E0,5.491723213E-1,6.451568184E0
1.218339600E1,1.863879511E0,3.465121684E0,-6.394782255E0,7.508285770E0
1.219339800E1,2.649967723E1,-8.752336337E0,-8.355818517E0,2.913170074E1
1.220340100E1,6.584993467E1,-3.935533048E1,1.429461560E1,7.803455624E1
1.221340300E1,6.986441308E1,-2.682107763E1,1.700794118E1,7.674422769E1
1.222340500E1,3.975228158E1,-1.789533918E1,-4.489583102E0,4.382514588E1
1.223340700E1,2.661276004E1,-1.228253022E1,-2.577301801E0,2.942349453E1
1.224340900E1,1.225131545E1,-5.084917656E0,7.667922247E0,1.532149305E1
1.225341100E1,4.904472581E0,-5.871367577E-1,5.809330373E0,7.625411481E0
1.226341300E1,-8.827178943E-1,6.548372823E-1,3.395469943E0,3.568924051E0
1.227341500E1,-3.988267098E0,8.237957945E-1,5.190669814E0,6.597572817E0
1.228341800E1,-4.568053029E0,3.784937775E-1,6.261880306E0,7.760251992E0
1.229342000E1,-6.190476447E0,-7.762842438E-1,5.832490609E0,8.540641813E0
1.230342200E1,-6.924758095E0,-1.045280722E0,4.080858927E0,8.105448540E0
1.231342400E1,-6.103820127E0,-9.881034315E-1,3.111503423E0,6.922024421E0
1.232342600E1,-3.297237890E0,-1.698098668E0,3.376208630E0,5.015386476E0
1.233342800E1,9.214744091E-2,-2.996961731E0,2.187935711E0,3.711783055E0
1.234343000E1,2.961035269E0,-4.313553260E0,1.029953562E0,5.332473716E0
1.235343300E1,4.988086596E0,-4.891764827E0,8.035610662E-1,7.032501788E0
1.236343500E1,5.793928807E0,-5.099214098E0,7.279467738E-1,7.752515846E0
1.237343700E1,5.376979646E0,-3.932273576E0,-9.684202418E-2,6.662136592E0
1.238343900E1,3.333406427E0,-2.685947454E0,-2.711523467E-1,4.289456344E0
1.239344100E1,1.367131060E0,-1.364398656E0,1.758303063E-1,1.939470887E0
1.240344300E1,-1.010007101E-1,-3.859440073E-1,5.347078447E-1,6.671329698E-1
1.241344500E1,-1.224430931E0,4.101801315E-1,5.601246679E-1,1.407557633E0
1.242344700E1,-2.011300682E0,9.779488644E-1,4.590321565E-1,2.283073572E0
1.243345000E1,-2.466626288E0,1.518552895E0,3.853151393E-1,2.922108126E0
1.244345200E1,-2.865637361E0,2.074200058E0,3.055117553E-1,3.550707084E0
1.245345400E1,-3.066374613E0,2.549086062E0,8.928259760E-3,3.987552223E0
1.246345600E1,-3.436731990E0,2.667809391E0,-1.462167902E-1,4.353126815E0
1.247345800E1,-3.524397540E0,2.954851838E0,-5.801398332E-1,4.635632603E0
1.248346000E1,-3.594467064E0,2.948618999E0,-1.004349189E0,4.756391991E0
1.249346200E1,-3.569524012E0,2.964388062E0,-1.331383522E0,4.827181407E0
1.250346500E1,-3.369494857E0,2.986549594E0,-1.538474359E0,4.758138021E0
1.251346700E1,-3.077049290E0,2.895191528E0,-1.695502505E0,4.552482296E0
1.252346900E1,-2.550443201E0,2.611820254E0,-1.706374233E0,4.029649933E0
1.253347100E1,-2.024982582E0,2.322362030E0,-1.648553018E0,3.494516691E0
1.254347300E1,-1.655978835E0,1.953876931E0,-1.462289817E0,2.949269820E0
1.255347500E1,-1.545902077E0,1.660009321E0,-1.206475374E0,2.569246389E0
1.256347700E1,-1.615950551E0,1.559782782E0,-8.990672940E-1,2.419202453E0
1.257347900E1,-1.909007737E0,1.519508330E0,-6.027923852E-1,2.513279683E0
1.258348200E1,-2.237631197E0,1.507941368E0,-3.749958269E-1,2.724243457E0
1.259348400E1,-2.486446595E0,1.493470679E0,-2.994534552E-1,2.915912158E0
1.260348600E1,-2.804745626E0,1.361645787E0,-4.455677730E-1,3.149477404E0
1.261348800E1,-3.226821626E0,1.274083148E0,-5.699661165E-1,3.515754122E0
1.262349000E1,-3.727336854E0,1.236159276E0,-4.894616514E-1,3.957360545E0
1.263349200E1,-4.193026650E0,1.253602690E0,-1.783307219E-1,4.380044981E0
1.264349400E1,-4.646900393E0,1.217298498E0,2.265274932E-1,4.809034581E0
1.265349700E1,-5.007152027E0,1.147215525E0,6.359116725E-1,5.176104572E0
1.266349900E1,-5.158052875E0,1.033990041E0,1.072008052E0,5.368784419E0
1.267350100E1,-5.137516285E0,8.975651443E-1,1.426267460E0,5.406841558E0
1.268350300E1,-4.811319419E0,6.976997119E-1,1.800784546E0,5.184438680E0
1.269350500E1,-4.006182382E0,4.068749928E-1,2.376595539E0,4.675815533E0
1.270350700E1,-3.089033743E0,-8.264922380E-2,2.875205745E0,4.220872947E0
1.271350900E1,-1.972003300E0,-7.045988417E-1,3.175207669E0,3.803577300E0
1.272351100E1,-5.398640656E-1,-1.446055607E0,3.247202681E0,3.595393619E0
1.273351400E1,9.730386651E-1,-2.471936730E0,3.068820503E0,4.058932707E0
1.274351600E1,2.583629074E0,-3.484782654E0,2.715045245E0,5.117647899E0
1.275351800E1,3.874751008E0,-4.251432148E0,2.403827777E0,6.234321027E0
1.276352000E1,4.877623336E0,-4.627744330E0,2.378719833E0,7.132007784E0
1.277352200E1,5.748322864E0,-4.510038124E0,2.375530761E0,7.682890473E0
1.278352400E1,7.020536072E0,-4.371018818E0,3.359033604E0,8.926188380E0
1.279352600E1,8.887967182E0,-4.278426989E0,3.606343344E0,1.050269539E1
1.280352900E1,1.065699258E1,-4.370905967E0,3.414593262E0,1.201398172E1
1.281353100E1,1.186696627E1,-5.024894818E0,2.685200764E0,1.316376692E1
1.282353300E1,1.230265868E1,-5.629184675E0,1.747487760E0,1.364173171E1
1.283353500E1,1.173092378E1,-5.799843265E0,1.828375072E0,1.321346699E1
1.284353700E1,1.091579502E1,-5.521119944E0,3.015854670E0,1.259891764E1
1.285353900E1,1.066592946E1,-5.322711053E0,3.916291382E0,1.254713682E1
1.286354100E1,1.049399559E1,-5.618024679E0,3.984012664E0,1.255223095E1
1.287354400E1,1.019725992E1,-5.606189330E0,3.699357342E0,1.221059841E1
1.288354642E1,9.574523855E0,-5.115190446E0,3.131703215E0,1.129797528E1
1.289354842E1,8.843921860E0,-4.227109193E0,2.579675186E0,1.013598195E1
1.290355042E1,8.215303493E0,-3.758513038E0,1.819115275E0,9.215574433E0
1.291355242E1,8.054179373E0,-3.293661148E0,1.099338523E0,8.770778433E0
1.292355442E1,7.935324190E0,-2.706958254E0,8.688501991E-1,8.429228532E0
1.293355642E1,7.806865540E0,-2.186581788E0,6.470663327E-1,8.133079633E0
1.294355842E1,7.512190429E0,-1.773481850E0,-1.664272526E-1,7.720488388E0
1.295356142E1,6.721077939E0,-1.510350713E0,-1.587313520E0,7.069201663E0
1.296356342E1,5.408343526E0,-1.134812411E0,-3.077987183E0,6.325502668E0
1.297356542E1,3.575978753E0,-6.109837496E-1,-4.050631161E0,5.437696018E0
1.298356742E1,1.326952502E0,1.184178114E-2,-4.568642136E0,4.757460891E0
1.299356942E1,-1.034404609E0,5.489026916E-1,-4.689269610E0,4.833273894E0
1.300357142E1,-2.958022199E0,1.324331488E0,-4.682165827E0,5.694420607E0
1.301357342E1,-4.572295768E0,1.694687403E0,-4.930927139E0,6.934832113E0
1.302357642E1,-5.472693889E0,1.881682821E0,-4.734369769E0,7.476989083E0
1.303357842E1,-6.125740169E0,2.345724287E0,-4.466843280E0,7.935981599E0
1.304358042E1,-6.786127628E0,2.787641644E0,-4.351888775E0,8.530029896E0
1.305358242E1,-7.076554152E0,2.897213787E0,-4.382864985E0,8.813680949E0
1.306358442E1,-7.304948149E0,2.850208313E0,-4.366568795E0,8.975125510E0
1.307358642E1,-7.360100257E0,2.889919678E0,-4.427928599E0,9.062519694E0
1.308358842E1,-7.451672332E0,2.789196418E0,-4.479762119E0,9.131007931E0
1.309359042E1,-7.536903101E0,2.796342593E0,-4.491050169E0,9.208364234E0
1.310359342E1,-7.658657919E0,2.996536639E0,-4.457721624E0,9.354440390E0
1.311359542E1,-7.645190611E0,3.249973676E0,-4.212555766E0,9.314338112E0
1.312359742E1,-7.590719120E0,3.435809299E0,-4.102287219E0,9.287225782E0
1.313359942E1,-7.597287882E0,3.539040138E0,-4.081241335E0,9.322023337E0
1.314360142E1,-7.620030627E0,3.754853851E0,-3.971452260E0,9.377431805E0
1.315360342E1,-7.692151355E0,4.067951199E0,-3.819352148E0,9.502887469E0
1.316360542E1,-7.749968623E0,4.384571494E0,-3.616560184E0,9.610722575E0
1.317360842E1,-7.860458779E0,4.533493645E0,-3.446134897E0,9.706452626E0
1.318361042E1,-7.842472159E0,4.683034431E0,-3.188803614E0,9.674897909E0
1.319361242E1,-7.716350057E0,4.738098246E0,-3.013331596E0,9.543154640E0
1.320361442E1,-7.287812884E0,4.782808396E0,-3.121312712E0,9.259053182E0
1.321361642E1,-7.743394014E0,4.853593911E0,-1.352678643E0,9.238358307E0
1.322361842E1,-8.863318829E0,4.992852076E0,-6.597033352E-1,1.019422390E1
1.323362042E1,-8.860889311E0,5.142550153E0,-1.261093558E0,1.032238046E1
1.324362342E1,-9.013823236E0,5.197542046E0,-9.404094476E-1,1.044738353E1
1.325362542E1,-9.193480107E0,5.228156898E0,-8.664947214E-1,1.061152742E1
1.326362742E1,-9.191613091E0,5.370344810E0,-4.111960852E-1,1.065342371E1
1.327362942E1,-9.340010161E0,5.353853323E0,-4.942025739E-1,1.077700197E1
1.328363142E1,-9.324434933E0,5.281350773E0,-3.765332792E-1,1.072285084E1
1.329363342E1,-9.261482640E0,5.188787010E0,-3.282012910E-1,1.062103043E1
1.330363542E1,-9.110541446E0,5.086223924E0,-3.079605693E-1,1.043870102E1
1.331363742E1,-8.972382849E0,5.053567225E0,2.082011499E-1,1.029978366E1
1.332364042E1,-8.872344591E0,4.829893684E0,5.639814913E-2,1.010195784E1
1.333364242E1,-8.767672999E0,4.727170969E0,1.265647370E-1,9.961639113E0
1.334364442E1,-8.662542985E0,4.703799064E0,2.246055865E-1,9.859808531E0
1.335364642E1,-8.488374311E0,4.616990715E0,3.500897946E-1,9.669108779E0
1.336364842E1,-8.261603501E0,4.621714973E0,3.952998447E-1,9.474735018E0
1.337365042E1,-8.075051009E0,4.720014270E0,3.836896133E-1,9.361207252E0
1.338365242E1,-7.398377300E0,5.141260257E0,6.078894031E-1,9.029843477E0
1.339365542E1,-6.201593174E0,5.599576714E0,1.108080111E0,8.428692591E0
1.340365742E1,-5.261840369E0,5.787019737E0,1.736559314E0,8.012003479E0
1.341365942E1,-5.314275275E0,5.256177925E0,1.243444907E0,7.577274135E0
1.342366142E1,-2.439806864E0,5.312681324E0,-2.362489716E0,6.305441939E0
1.343366342E1,7.114273371E0,5.957797610E0,-1.291031185E1,1.589919464E1
1.344366542E1,2.377778899E1,4.233378578E0,-1.459519757E1,2.821922280E1
1.345366742E1,4.417784264E1,-9.922503937E0,1.798645752E1,4.872012437E1
1.346366942E1,6.202536914E1,-2.144998203E1,3.300389773E1,7.346091078E1
1.347367242E1,4.285315360E1,-3.034645984E1,1.553915101E0,5.253299011E1
1.348367442E1,3.415923971E1,-2.498640145E1,-9.926116347E-1,4.233390123E1
1.349367642E1,1.609008854E1,-1.095303827E1,5.888705741E0,2.033560552E1
1.350367842E1,5.720268508E0,-3.648709637E0,8.058013977E0,1.053404685E1
1.351368042E1,-3.359383267E-1,-1.746159858E0,2.397234895E0,2.984738506E0
1.352368242E1,-4.099499266E0,-2.565397455E0,6.321574531E0,7.959237582E0
1.353368442E1,-5.004876291E0,-2.840399024E0,6.561653604E0,8.727654399E0
1.354368742E1,-4.784867785E0,-3.375627125E0,3.900149851E0,7.035693787E0
1.355368942E1,-5.206652008E0,-3.822099754E0,2.236405621E0,6.835143142E0
1.356369142E1,-4.738446740E0,-4.536933270E0,2.636077136E0,7.070045521E0
1.357369342E1,-1.823803280E0,-4.505700367E0,3.142382862E0,5.788105411E0
1.358369542E1,1.024192446E0,-4.212382688E0,3.415928766E0,5.519212572E0
1.359369742E1,3.222288864E0,-4.246724555E0,2.203797453E0,5.768408635E0
1.360369942E1,5.226071196E0,-4.553412770E0,1.830559738E0,7.169123862E0
1.361370242E1,6.076982576E0,-3.626263930E0,1.508423764E0,7.235665109E0
1.362370442E1,5.519439454E0,-2.200627970E0,6.403189382E-1,5.976368771E0
1.363370642E1,4.096922398E0,-8.638892752E-1,1.022148845E-1,4.188260462E0
1.364370842E1,2.585420076E0,-5.809471875E-2,-1.701791185E-1,2.591666046E0
1.365371042E1,1.500041780E0,6.444289461E-1,-1.047440976E-1,1.635966177E0
1.366371242E1,4.338943917E-1,1.097996295E0,2.305890423E-1,1.202926229E0
1.367371442E1,-2.129596871E-1,1.515396276E0,4.455385369E-1,1.593826305E0
1.368371642E1,-8.543150443E-1,1.736795834E0,4.553986967E-1,1.988391797E0
1.369371942E1,-1.322927279E0,2.145917035E0,2.996743338E-1,2.538680998E0
1.370372142E1,-1.878811546E0,2.615626499E0,1.532892899E-1,3.224117308E0
1.371372342E1,-2.353565696E0,2.967337398E0,-2.058570743E-1,3.792985612E0
1.372372542E1,-2.814105849E0,3.074592875E0,-5.888075995E-1,4.209395142E0
1.373372742E1,-3.103593895E0,2.969712537E0,-9.656205949E-1,4.402716292E0
1.374372942E1,-3.329910961E0,3.406235837E0,-1.246879854E0,4.923967806E0
1.375373142E1,-3.650670501E0,3.485174125E0,-1.420141917E0,5.243151424E0
1.376373442E1,-3.809618872E0,3.320437887E0,-1.489846575E0,5.268600054E0
1.377373642E1,-3.872468255E0,3.162432087E0,-1.497354838E0,5.219105153E0
1.378373842E1,-3.757197999E0,2.938263580E0,-1.520232946E0,5.006100067E0
1.379374042E1,-3.514156727E0,2.628276658E0,-1.410433785E0,4.609388154E0
1.380374242E1,-3.018442063E0,2.254827858E0,-1.160830182E0,3.942431720E0
1.381374442E1,-2.265490841E0,1.722268719E0,-8.362604503E-1,2.966140562E0
1.382374642E1,-1.658183820E0,1.078516588E0,-6.638782471E-1,2.086505677E0
1.383374842E1,-1.050455800E0,5.135837549E-1,-5.602122299E-1,1.296558292E0
1.384375142E1,-5.265382612E-1,-1.014374971E-2,-5.333151841E-1,7.495135234E-1
1.385375342E1,-1.141125065E-1,-4.321700478E-1,-5.687709457E-1,7.233899384E-1
1.386375542E1,7.985074639E-2,-6.436644226E-1,-5.614280123E-1,8.578353243E-1
1.387375742E1,8.164642632E-2,-5.917040178E-1,-4.373910266E-1,7.403314756E-1
1.388375942E1,-1.226892024E-1,-3.488048324E-1,-3.319575423E-1,4.969036742E-1
1.389376075E1,-5.470181340E-1,8.061848581E-2,-2.218796146E-1,5.957841409E-1
1.390376275E1,-1.146964095E0,5.336546150E-1,-1.089872758E-1,1.269721272E0
1.391376575E1,-1.737853888E0,8.541659403E-1,-1.672474708E-1,1.943632503E0
1.392376775E1,-2.264571074E0,1.100912594E0,-1.621159543E-1,2.523206743E0
1.393376975E1,-2.754833209E0,1.300597347E0,-1.086009941E-1,3.048352611E0
1.394377175E1,-3.185415153E0,1.390914609E0,-1.164948814E-1,3.477798758E0
1.395377375E1,-3.506620250E0,1.412734079E0,-1.522328442E-1,3.783566835E0
1.396377575E1,-3.737785828E0,1.362076142E0,-2.436202202E-1,3.985680008E0
1.397377775E1,-3.910869259E0,1.295569911E0,-3.253443414E-1,4.132704767E0
1.398378075E1,-4.061424537E0,1.231791406E0,-4.338991425E-1,4.266233444E0
1.399378275E1,-4.228099419E0,1.217091506E0,-4.652272815E-1,4.424316089E0
1.400378475E1,-4.472762125E0,1.208049079E0,-3.369504797E-1,4.645268477E0
1.401378675E1,-4.719433933E0,1.269725803E0,-1.200625601E-1,4.888729414E0
1.402378875E1,-4.878750095E0,1.471757628E0,2.889273707E-1,5.104091695E0
1.403379075E1,-4.998271860E0,1.703980090E0,8.809081811E-1,5.353715435E0
1.404379275E1,-4.960975395E0,1.907203579E0,1.628712684E0,5.558903432E0
1.405379475E1,-4.648823542E0,2.121094142E0,2.467279422E0,5.674334184E0
1.406379775E1,-4.076187587E0,2.167164062E0,3.434035254E0,5.753651314E0
1.407379975E1,-3.142811755E0,2.032277860E0,4.120129412E0,5.566227215E0
1.408380175E1,-1.499260592E0,1.657751126E0,4.555599044E0,5.074387034E0
1.409380375E1,7.049619538E-1,1.075318746E0,4.643245883E0,4.817988594E0
1.410380575E1,3.078632716E0,4.204031110E-1,4.488518032E0,5.459076140E0
1.411380775E1,5.687647476E0,5.984391332E-2,4.084094777E0,7.002338556E0
1.412380975E1,7.747624474E0,-8.634022021E-1,3.267871419E0,8.452817990E0
1.413381275E1,1.021814033E1,-1.319809251E0,3.066909049E0,1.074980090E1
1.414381475E1,1.257840167E1,-2.591507027E0,2.522699332E0,1.308801395E1
1.415381675E1,1.476624734E1,-4.421632024E0,2.583071249E0,1.562898420E1
1.416381875E1,1.623532519E1,-5.701804170E0,3.747893910E0,1.761087912E1
1.417382075E1,1.656974616E1,-7.453872054E0,4.570018862E0,1.873504120E1
1.418382275E1,1.633175396E1,-8.800632584E0,5.331727459E0,1.930296969E1
1.419382475E1,1.549997467E1,-9.438380794E0,5.454935310E0,1.894963234E1
1.420382775E1,1.425721213E1,-9.347915597E0,5.035574173E0,1.777663160E1
1.421382975E1,1.221434233E1,-9.294909418E0,3.754055121E0,1.580121608E1
1.422383175E1,1.030190988E1,-9.145186783E0,2.719190629E0,1.404128862E1
1.423383375E1,9.129993378E0,-8.694868147E0,2.649291551E0,1.288317728E1
1.424383575E1,8.529711202E0,-7.926948638E0,3.009399344E0,1.202701012E1
1.425383775E1,8.645814101E0,-7.454885377E0,2.947676135E0,1.179042883E1
1.426383975E1,9.588624415E0,-7.201511489E0,2.113879848E0,1.217669799E1
1.427384175E1,9.864346361E0,-6.553400259E0,9.031009957E-1,1.187720403E1
1.428384475E1,8.877156850E0,-5.194964594E0,-4.646755967E-1,1.029599409E1
1.429384675E1,6.856816957E0,-3.438299336E0,-2.001581732E0,7.927431522E0
1.430384875E1,4.337081578E0,-1.528877032E0,-3.268396791E0,5.641822328E0
1.431385075E1,1.521305180E0,1.951625168E-1,-3.881126227E0,4.173200049E0
1.432385275E1,-1.024850258E0,1.545731631E0,-4.109676345E0,4.508774111E0
1.433385475E1,-2.822639861E0,2.340361513E0,-4.640413199E0,5.914222050E0
1.434385675E1,-4.361835181E0,3.203436272E0,-4.701394688E0,7.168732253E0
1.435385975E1,-5.357657522E0,3.853700154E0,-4.727009294E0,8.117888633E0
1.436386175E1,-5.774347066E0,4.244163474E0,-4.713416272E0,8.577429719E0
1.437386375E1,-6.010086336E0,4.548470119E0,-4.893749080E0,8.986573220E0
1.438386575E1,-6.113006687E0,4.448073134E0,-5.157707305E0,9.151838613E0
1.439386775E1,-6.132738701E0,4.502069539E0,-5.404298422E0,9.331964185E0
1.440386975E1,-6.006103213E0,4.533952359E0,-5.670777674E0,9.422723557E0
1.441387175E1,-5.906055599E0,4.470503345E0,-5.884196953E0,9.459950670E0
1.442387375E1,-5.640157560E0,4.292750036E0,-6.138202339E0,9.376385665E0
1.443387675E1,-5.300690439E0,3.990451325E0,-6.220763855E0,9.094994439E0
1.444387875E1,-5.509520822E0,3.750156198E0,-5.996575760E0,8.965345060E0
1.445388075E1,-6.016329993E0,3.888346953E0,-5.352341233E0,8.942204722E0
1.446388275E1,-6.637569174E0,4.346295621E0,-4.659478923E0,9.200997446E0
1.447388475E1,-7.217694828E0,4.527313138E0,-4.048161590E0,9.432883713E0
1.448388675E1,-7.698439450E0,4.500922900E0,-3.531013080E0,9.591263227E0
1.449388875E1,-7.993926154E0,4.393800740E0,-3.095984328E0,9.632936170E0
1.450389175E1,-8.290962371E0,4.326639621E0,-2.559477149E0,9.695916188E0
1.451389375E1,-8.250488529E0,4.309363437E0,-1.991624216E0,9.518809863E0
1.452389575E1,-8.136314626E0,4.222435221E0,-1.989053342E0,9.380027084E0
1.453389775E1,-8.103907603E0,4.425113164E0,-1.868694109E0,9.420560632E0
1.454389975E1,-9.552580424E0,4.682059700E0,2.367186785E-2,1.063832864E1
1.455390175E1,-9.659580377E0,4.807915170E0,-3.313605416E-1,1.079506096E1
1.456390375E1,-9.485819255E0,4.943178810E0,-4.891173235E-1,1.070770841E1
1.457390575E1,-9.494972486E0,5.226767015E0,-3.285211337E-1,1.084350138E1
1.458390875E1,-9.411113473E0,5.294387140E0,4.872192442E-2,1.079823901E1
1.459391075E1,-9.465101985E0,5.387584741E0,-1.392163575E-1,1.089190553E1
1.460391275E1,-9.508294782E0,5.636472645E0,-1.425427654E-1,1.105431192E1
1.461391475E1,-9.224854512E0,6.003804672E0,-1.213852733E-1,1.100719518E1
1.462391675E1,-8.932297263E0,6.384966534E0,2.397475362E-1,1.098231355E1
1.463391875E1,-8.910942062E0,6.539148256E0,3.472462571E-1,1.105829681E1
1.464392075E1,-8.770290213E0,6.798606171E0,-1.882452607E-2,1.109681894E1
1.465392375E1,-8.523560516E0,6.661117081E0,2.146103561E-1,1.081977921E1
1.466392575E1,-8.528267525E0,5.809501112E0,-1.983322559E-1,1.032090044E1
1.467392775E1,-8.084823461E0,5.483613564E0,-7.201021492E-2,9.769317969E0
1.468392975E1,-7.846437156E0,5.343393824E0,-5.641861439E-2,9.493240578E0
1.469393175E1,-7.800701405E0,5.245376948E0,-1.801538837E-1,9.401987936E0
1.470393375E1,-7.756178366E0,5.210014157E0,-1.391485206E-1,9.344619450E0
1.471393575E1,-7.746516427E0,5.288472097E0,7.604889134E-2,9.379884717E0
1.472393775E1,-7.665510271E0,5.349535155E0,1.318383408E-1,9.348526912E0
1.473394075E1,-7.498738909E0,5.486600906E0,1.959343493E-1,9.293668006E0
1.474394275E1,-7.190818101E0,5.681283367E0,5.203204234E-2,9.164472325E0
1.475394475E1,-6.201342913E0,5.290306368E0,1.819290984E-1,8.153348612E0
1.476394675E1,-5.388089356E0,4.691383086E0,2.257723399E0,7.492522747E0
1.477394875E1,-4.813393427E0,4.622457862E0,-2.191846329E0,7.024248237E0
1.478395075E1,8.928230524E-2,4.388796692E0,-1.611449364E1,1.670168893E1
1.479395275E1,1.908286308E1,-1.309635388E0,-2.957328251E1,3.522002054E1
1.480395575E1,3.616294252E1,-1.437784487E1,-4.796166945E0,3.921076450E1
1.481395775E1,4.289000977E1,-1.963161959E1,2.993243721E1,5.586505368E1
1.482395975E1,4.487755789E1,-1.510218391E1,2.762743673E1,5.482103995E1
1.483396175E1,3.915844771E1,-2.604601750E1,1.565247941E1,4.956590730E1
1.484396375E1,3.958149611E1,-2.627033306E1,8.829941168E0,4.831969675E1
1.485396575E1,1.884858269E1,-1.251322978E1,9.240648426E0,2.443848547E1
1.486396775E1,7.095091580E0,-4.196030072E0,3.241086493E0,8.857292732E0
1.487397075E1,-1.241354527E0,-1.497846150E0,-1.362668903E0,2.375156983E0
1.488397275E1,-4.156151184E0,-1.417723801E0,5.669003044E0,7.170852736E0
1.489397500E1,-4.610673383E0,-1.781105157E0,4.451431482E0,6.651758179E0
1.490397700E1,-4.070782421E0,-2.153605831E0,2.327573507E0,5.160124613E0
1.491397900E1,-3.924410825E0,-1.724508203E0,2.798144120E0,5.119036959E0
1.492398100E1,-1.459881933E0,-1.028333445E0,3.466978467E0,3.899828794E0
1.493398300E1,1.897221504E0,-8.331884694E-1,3.029272860E0,3.670169822E0
1.494398500E1,4.898864517E0,-1.497805805E0,1.752083526E0,5.414064320E0
1.495398800E1,7.361664972E0,-1.891667527E0,1.757678726E0,7.801407033E0
1.496399000E1,7.908029387E0,-1.494115919E0,1.412685986E0,8.170984816E0
1.497399200E1,6.511344745E0,-7.768160480E-1,4.465967368E-1,6.572708894E0
1.498399400E1,3.893805329E0,-2.363988358E-1,2.640032485E-1,3.909897961E0
1.499399600E1,1.761420506E0,3.008421689E-1,3.055692042E-1,1.812865342E0
1.500399800E1,2.661980009E-1,3.880197689E-1,2.428057761E-1,5.295048269E-1
1.501400000E1,-6.954245603E-1,7.785614419E-1,5.091974661E-2,1.045163173E0
1.502400300E1,-1.347503126E0,1.160008356E0,1.646736726E-2,1.778104394E0
1.503400500E1,-1.958028454E0,1.752141851E0,2.068569481E-2,2.627604307E0
1.504400700E1,-2.671956528E0,2.119182688E0,-4.800622523E-2,3.410658522E0
1.505400900E1,-3.272935107E0,2.295424492E0,-1.952588497E-1,4.002399759E0
1.506401100E1,-3.535796102E0,2.777275407E0,-7.666037397E-1,4.561008009E0
1.507401300E1,-3.863336658E0,2.859412707E0,-8.376493102E-1,4.878859245E0
1.508401500E1,-4.177713377E0,2.978492424E0,-1.030687095E0,5.233261131E0
1.509401700E1,-4.374364010E0,2.922954985E0,-1.167849033E0,5.389118453E0
1.510402000E1,-4.590435001E0,3.202850088E0,-1.238609114E0,5.732756293E0
1.511402200E1,-4.695263883E0,3.138255020E0,-1.246784690E0,5.783478154E0
1.512402400E1,-4.664120443E0,2.934636844E0,-1.232466175E0,5.646688037E0
1.513402600E1,-4.390007066E0,2.651037822E0,-1.275480047E0,5.284601492E0
1.514402800E1,-3.861614068E0,2.111641826E0,-1.320110675E0,4.594974059E0
1.515403000E1,-3.135150733E0,1.575546583E0,-1.486748720E0,3.810766184E0
1.516403200E1,-2.195900204E0,9.770662272E-1,-1.296403139E0,2.730805232E0
1.517403500E1,-1.263721297E0,5.222551757E-1,-1.140135205E0,1.780351165E0
1.518403700E1,-3.264687610E-1,9.475734562E-2,-1.013444168E0,1.068938673E0
1.519403900E1,4.658020627E-1,-3.031202441E-1,-9.000116193E-1,1.057768575E0
1.520404100E1,7.543545538E-1,-5.007476547E-1,-1.122275396E0,1.441978180E0
1.521404300E1,5.329216665E-1,-4.026962802E-1,-1.326189440E0,1.484906808E0
1.522404500E1,-3.581501448E-1,3.045756161E-2,-1.357895383E0,1.404663326E0
1.523404700E1,-1.562862511E0,6.953096625E-1,-1.116587882E0,2.042734259E0
1.524404900E1,-2.542039583E0,1.328161999E0,-9.307065779E-1,3.015326561E0
1.525405200E1,-3.235072047E0,1.918136702E0,-9.107552934E-1,3.869678897E0
1.526405400E1,-3.697035413E0,2.387683030E0,-7.261826688E-1,4.460542833E0
1.527405600E1,-4.174321407E0,2.778796560E0,-4.494444770E-1,5.034746257E0
1.528405800E1,-4.635377285E0,3.147165592E0,-3.323851565E-2,5.602899128E0
1.529406000E1,-4.966619128E0,3.555633951E0,5.110027939E-1,6.129515659E0
1.530406200E1,-5.289074360E0,3.880117874E0,1.125864417E0,6.655613645E0
1.531406400E1,-5.594239960E0,4.049223152E0,1.604506381E0,7.089863863E0
1.532406700E1,-5.711159130E0,4.179026077E0,2.058947303E0,7.370268758E0
1.533406900E1,-5.761159256E0,4.235181566E0,2.578094684E0,7.600940144E0
1.534407100E1,-5.815502694E0,4.159634078E0,2.963664762E0,7.739892510E0
1.535407300E1,-5.699998550E0,3.834285936E0,3.675918778E0,7.791284296E0
1.536407500E1,-5.078028467E0,3.218172424E0,4.583403139E0,7.559801003E0
1.537407700E1,-3.693265713E0,2.262583313E0,5.459956314E0,6.969262359E0
1.538407900E1,-1.303632637E0,6.216902938E-1,5.890910726E0,6.065376002E0
1.539408100E1,2.155921036E0,-1.520002128E0,5.153643490E0,5.789511482E0
1.540408400E1,6.695092328E0,-4.239001552E0,4.232812275E0,8.983879740E0
1.541408600E1,1.147760252E1,-7.747815678E0,2.968096951E0,1.416240117E1
1.542408800E1,1.581391752E1,-1.116960394E1,1.219283189E0,1.939914150E1
1.543409000E1,1.880928121E1,-1.345622896E1,3.047773451E-1,2.312903039E1
1.544409200E1,1.845325594E1,-1.288737089E1,1.657841904E0,2.256890390E1
1.545409400E1,1.655455159E1,-1.070921055E1,3.835144892E0,2.008603259E1
1.546409600E1,1.647292796E1,-9.891199114E0,5.305289274E0,1.993337076E1
1.547409900E1,1.583503182E1,-9.852261336E0,5.272106325E0,1.938067056E1
1.548410100E1,1.441774159E1,-9.588640788E0,5.109872988E0,1.805336829E1
1.549410300E1,1.323467679E1,-8.714147587E0,4.692031542E0,1.652598553E1
1.550410500E1,1.233671754E1,-7.551262109E0,3.867968822E0,1.497255295E1
1.551410700E1,1.190862066E1,-6.834206944E0,2.874478643E0,1.402798125E1
1.552410900E1,1.182300222E1,-6.678704921E0,1.911272217E0,1.371282037E1
1.553411100E1,1.147355858E1,-6.409658741E0,8.891428149E-1,1.317257935E1
1.554411300E1,1.021182300E1,-5.550478229E0,-4.565973759E-2,1.162287496E1
1.555411600E1,8.314820180E0,-4.286481821E0,-9.023966986E-1,9.398110492E0
1.556411800E1,5.968150105E0,-2.906831287E0,-1.890063928E0,6.902233368E0
1.557412000E1,3.301483553E0,-1.567209623E0,-2.531390049E0,4.445658020E0
1.558412200E1,8.912571681E-1,-2.609618193E-1,-3.057828907E0,3.195740609E0
1.559412400E1,-1.458952226E0,6.488102648E-1,-3.003083474E0,3.401177253E0
1.560412600E1,-3.079930798E0,1.309428982E0,-3.766363802E0,5.038459513E0
1.561412800E1,-4.864201638E0,2.252877812E0,-3.425883358E0,6.361807353E0
1.562413100E1,-5.921640183E0,3.375881478E0,-3.210282484E0,7.534474888E0
1.563413300E1,-6.609572706E0,4.193457882E0,-2.893237973E0,8.345200197E0
1.564413500E1,-6.829901639E0,4.412886344E0,-2.842221601E0,8.613904220E0
1.565413700E1,-6.959101131E0,4.610228703E0,-2.975282010E0,8.862031386E0
1.566413900E1,-7.119434708E0,4.835470466E0,-3.092090667E0,9.144897478E0
1.567414100E1,-7.188969212E0,4.812445593E0,-3.268640912E0,9.247968659E0
1.568414300E1,-7.226331750E0,4.858933881E0,-3.128075894E0,9.252781626E0
1.569414500E1,-7.365922914E0,4.945912968E0,-3.054498918E0,9.383434292E0
1.570414800E1,-7.489283377E0,4.869361513E0,-2.951845200E0,9.408158009E0
1.571415000E1,-7.710699892E0,4.569789944E0,-2.947304837E0,9.435278415E0
1.572415200E1,-8.560519597E0,3.718618363E0,-3.215518373E0,9.871685606E0
1.573415400E1,-8.645046946E0,3.565616902E0,-3.835776976E0,1.010760336E1
1.574415600E1,-8.534920487E0,3.768798290E0,-4.225228436E0,1.024213179E1
1.575415800E1,-8.437230470E0,3.869867121E0,-4.435324742E0,1.028760590E1
1.576416000E1,-8.350899255E0,3.987370428E0,-4.152324767E0,1.014290108E1
1.577416300E1,-8.540934933E0,4.059302875E0,-4.512923725E0,1.047816730E1
1.578416500E1,-9.275627055E0,3.829572203E0,-1.088134673E0,1.009390497E1
1.579416700E1,-9.771590225E0,3.744544625E0,-1.688663601E0,1.059986673E1
1.580416900E1,-9.612075258E0,4.189380619E0,-1.851866992E0,1.064764350E1
1.581417100E1,-9.515868096E0,4.587548523E0,-5.224130871E-1,1.057687395E1
1.582417300E1,-9.546817993E0,4.923725123E0,-4.127392020E-1,1.074965844E1
1.583417500E1,-9.407740799E0,5.209211919E0,-2.195846190E-1,1.075591433E1
1.584417700E1,-9.328625633E0,5.458891536E0,-1.588987066E-1,1.080962542E1
1.585418000E1,-9.197676069E0,5.693492938E0,-2.597766618E-1,1.082037850E1
1.586418200E1,-8.609884130E0,5.693283023E0,-3.517900553E-1,1.032798783E1
1.587418400E1,-8.587800951E0,4.684955242E0,-1.696533807E-1,9.784064240E0
1.588418600E1,-8.531304569E0,4.154721248E0,-2.521272977E-1,9.492546258E0
1.589418788E1,-8.619972332E0,4.400226830E0,-4.231513389E-1,9.687361674E0
1.590418988E1,-8.777961175E0,4.693508549E0,-2.634521850E-1,9.957461119E0
1.591419188E1,-8.799409931E0,4.837412034E0,1.775390089E-2,1.004143842E1
1.592419488E1,-8.801545334E0,5.134223717E0,3.716700768E-1,1.019635190E1
1.593419688E1,-9.008322760E0,4.896720343E0,4.507601005E-1,1.026308598E1
1.594419887E1,-8.978470970E0,4.454652713E0,-1.472065959E-1,1.002389852E1
1.595420088E1,-8.982217281E0,4.838633225E0,-4.807241571E-1,1.021389713E1
1.596420288E1,-8.851080022E0,5.066814677E0,-3.923657119E-2,1.019881209E1
1.597420488E1,-8.566092578E0,5.111166392E0,2.075434113E-1,9.977225978E0
1.598420688E1,-7.956311016E0,5.185607879E0,-5.922925401E-1,9.515472900E0
1.599420887E1,-7.138259819E0,4.773242936E0,-1.609581764E0,8.736667260E0
1.600421188E1,-7.282097231E0,4.220508271E0,-2.103896019E0,8.675713723E0
1.601421388E1,-6.397894728E0,4.483354940E0,-3.089605601E0,8.401142258E0
1.602421588E1,-2.767924540E0,4.622562527E0,-6.391104941E0,8.359169393E0
1.603421787E1,4.846121462E0,2.305500414E0,-3.064890590E1,3.111519979E1
1.604421988E1,1.625254524E1,-1.206844378E1,-3.413985035E1,3.969032557E1
1.605422188E1,2.159442697E1,-1.657735456E1,-1.202739048E1,2.976215856E1
1.606422388E1,1.226662813E1,-3.446065316E0,6.729179256E0,1.440928122E1
1.607422688E1,1.459316508E1,-3.243187398E-2,8.852710226E0,1.706845034E1
1.608422887E1,1.328547506E1,-7.029472956E-1,1.573806159E1,2.060787629E1
1.609423088E1,2.541889894E1,-4.701702837E0,2.847579989E1,3.845903811E1
1.610423288E1,3.422510275E1,-6.869917059E0,2.444330738E1,4.261488818E1
1.611423488E1,3.321236734E1,-1.225745736E1,2.443659244E1,4.301689965E1
1.612423688E1,3.398090198E1,-1.177892591E1,1.622179239E1,3.945366071E1
1.613423888E1,2.089632088E1,-6.640727840E0,-3.130741348E0,2.214852216E1
1.614424088E1,7.944165180E0,-2.404760993E0,-1.090734228E1,1.370630335E1
1.615424388E1,-2.947856230E-1,-7.579719338E-1,-7.191365401E0,7.237206391E0
1.616424588E1,-1.603261508E0,-2.148895606E-1,2.632938643E0,3.090144153E0
1.617424787E1,-3.381810263E0,-6.998763379E-1,2.597580530E0,4.321329905E0
1.618424988E1,-3.768221755E0,-2.061798113E0,1.563984738E-1,4.298251637E0
1.619425188E1,-4.010185971E0,-1.295585991E0,2.464620109E0,4.882057646E0
1.620425388E1,-3.930396035E0,-3.515424988E-1,3.116162485E0,5.028127261E0
1.621425588E1,-9.705202693E-1,-9.350010654E-1,3.554834052E0,3.801707737E0
1.622425888E1,2.736622640E0,-2.009845602E0,3.705675259E0,5.025993627E0
1.623426088E1,4.616572055E0,-2.545992008E0,3.126905574E0,6.129628970E0
1.624426288E1,5.114461883E0,-2.456693331E0,2.210220181E0,6.089181860E0
1.625426488E1,4.031934105E0,-2.023610240E0,1.324105054E0,4.701568379E0
1.626426687E1,2.311578010E0,-1.836309890E0,2.176984169E-1,2.960205991E0
1.627426888E1,9.167405033E-1,-1.550447995E0,-4.467559272E-1,1.855772883E0
1.628427088E1,-2.538901967E-1,-1.087384475E0,-5.936566955E-1,1.264631765E0
1.629427288E1,-1.196308748E0,-5.278904298E-1,-2.710482663E-1,1.335398850E0
1.630427588E1,-2.129705629E0,-9.616740167E-2,3.142717615E-2,2.132107386E0
1.631427788E1,-2.775948674E0,3.232215098E-1,1.876874363E-1,2.800997993E0
1.632427988E1,-3.122942331E0,7.872334474E-1,2.415951832E-1,3.229686291E0
1.633428188E1,-3.376309787E0,1.129039163E0,2.269514894E-1,3.567310498E0
1.634428388E1,-3.492126172E0,1.414672724E0,-2.230435029E-2,3.767856367E0
1.635428587E1,-3.432983925E0,1.658356898E0,-3.984984179E-1,3.833318043E0
1.636428788E1,-3.291305305E0,1.801612512E0,-6.660588200E-1,3.810791598E0
1.637429088E1,-3.158357162E0,2.109130155E0,-1.058727418E0,3.942658205E0
1.638429288E1,-3.042321507E0,2.227499726E0,-1.158232410E0,3.944486975E0
1.639429488E1,-3.006212611E0,2.417498567E0,-1.328071805E0,4.079876016E0
1.640429688E1,-3.048313149E0,2.691429218E0,-1.442243223E0,4.314634376E0
1.641429888E1,-3.015864610E0,2.707954619E0,-1.483472525E0,4.316149708E0
1.642430088E1,-2.803454561E0,2.650583786E0,-1.318947225E0,4.077324327E0
1.643430288E1,-2.489247996E0,2.439386449E0,-1.111551456E0,3.658211103E0
1.644430488E1,-2.055760571E0,2.028157912E0,-9.332910472E-1,3.034898387E0
1.645430788E1,-1.479064894E0,1.543635404E0,-7.867687400E-1,2.278036055E0
1.646430988E1,-9.084023738E-1,1.040586285E0,-6.417974067E-1,1.523127900E0
1.647431188E1,-3.229399663E-1,5.268171734E-1,-5.116763932E-1,8.022713302E-1
1.648431388E1,3.086049324E-1,1.282797253E-1,-3.753719491E-1,5.025900839E-1
1.649431587E1,8.447501689E-1,-2.284045225E-1,-2.542900001E-1,9.112819969E-1
1.650431788E1,1.279519889E0,-5.951769716E-1,-2.151675957E-1,1.427481652E0
1.651431988E1,1.507185323E0,-8.664085481E-1,-7.040866256E-2,1.739893316E0
1.652432288E1,1.450908796E0,-9.511165765E-1,1.420733070E-1,1.740673405E0
1.653432487E1,1.079547452E0,-9.125796247E-1,3.766308546E-1,1.462899543E0
1.654432688E1,5.952085465E-1,-8.414891768E-1,3.430668135E-1,1.086311229E0
1.655432888E1,3.745843291E-2,-7.607198328E-1,1.421884972E-1,7.748002110E-1
