"Time (s)","Linear Acceleration x (m/s^2)","Linear Acceleration y (m/s^2)","Linear Acceleration z (m/s^2)","Absolute acceleration (m/s^2)"
5.154041690E-3,-1.694098296E0,1.054899684E0,-1.765164478E0,2.664317551E0
1.515704161E-2,-1.598053393E0,1.679086447E0,-1.499903201E0,2.760944685E0
2.515904163E-2,-1.654738641E0,2.049853129E0,-1.547351017E0,3.055217339E0
3.516204166E-2,-1.292609173E0,1.896738524E0,-1.501664382E0,2.742891070E0
4.516404169E-2,-1.749486923E-1,1.792725914E0,-1.604794648E0,2.412434270E0
5.516704160E-2,1.399343078E0,1.071346732E0,-2.310512062E0,2.905926851E0
6.516904163E-2,1.895370568E0,-6.341556805E-1,-2.335162754E0,3.073689657E0
7.517204166E-2,2.199829533E0,-3.054153348E0,-3.313163366E0,5.014394693E0
8.517404168E-2,1.692527880E0,-3.754100729E0,-2.959644216E0,5.071234248E0
9.517604159E-2,2.857310049E0,-2.956267742E0,-3.635105798E0,5.487962631E0
1.051790416E-1,4.376802299E0,-1.541716640E0,-4.960008266E0,6.792272857E0
1.151810416E-1,5.582212822E0,1.768040431E0,3.494030610E0,6.818747456E0
1.251840417E-1,3.408411001E0,2.781207660E0,5.390441691E0,6.957675130E0
1.351860416E-1,1.489240803E0,-2.572304186E-1,-7.761576515E-1,1.698948604E0
1.451890416E-1,1.308530118E-2,-1.936956843E0,1.554116830E0,2.483395289E0
1.551910416E-1,8.168932296E-1,-1.183244606E0,2.301698554E0,2.713889935E0
1.651930417E-1,2.158049715E0,-1.704824428E0,2.922843595E0,4.013305319E0
1.751960416E-1,3.017507678E0,-3.085566929E0,2.729765026E0,5.106632252E0
1.851980416E-1,3.059450925E0,-1.694299148E0,1.267439541E0,3.719851147E0
1.952010416E-1,4.340115699E0,4.055707714E-1,1.408770837E0,4.581018140E0
2.052030417E-1,5.359471328E0,3.332904151E-1,3.106818634E-1,5.378804573E0
2.152060416E-1,4.044538363E0,-2.732431356E0,-1.440080922E0,5.089037703E0
2.252080416E-1,3.869536753E0,-5.895797244E0,-2.154793693E0,7.374067784E0
2.352110416E-1,-4.536783581E0,-6.891874523E0,-1.500503125E0,8.386408608E0
2.452130417E-1,-1.130809758E1,-4.479443446E0,2.232496172E-1,1.216504521E1
2.552150417E-1,-1.665694715E0,-4.267584497E0,-3.093215087E0,5.527639270E0
2.652180416E-1,2.076061373E0,-2.161119503E0,-9.553076268E0,1.001207943E1
2.752200416E-1,2.424333231E0,5.510527128E-1,-9.121020241E0,9.453785535E0
2.852230417E-1,3.213591423E0,-2.659962720E-1,-5.466322762E0,6.346543027E0
2.952250417E-1,3.136409346E0,-3.365854965E0,-4.208675553E0,6.235302170E0
3.052280416E-1,2.291088781E0,-5.802607244E0,-4.410013899E0,7.639866571E0
3.152300416E-1,1.198413160E-1,-6.609140596E0,-5.962172497E0,8.901831398E0
3.252330417E-1,-7.984098154E-1,-6.686246075E0,-6.983192829E0,9.700944639E0
3.352350417E-1,-1.294410993E0,-6.446579815E0,-6.579770617E0,9.302003682E0
3.452370416E-1,-1.597713670E0,-7.115263889E0,-5.519269300E0,9.145600187E0
3.552400416E-1,-2.370430820E0,-8.779043494E0,-4.109168222E0,9.978767981E0
3.652420416E-1,-1.952372442E0,-9.787132709E0,-3.768735725E0,1.066785329E1
3.752450417E-1,-2.479366786E0,-9.845906582E0,-2.842892861E0,1.054377427E1
3.852470416E-1,-3.710567624E0,-9.697108392E0,-1.948339033E0,1.056400721E1
3.952500416E-1,-4.257427298E0,-1.042112291E1,-2.533299165E0,1.153876487E1
4.052520416E-1,-3.871339157E0,-1.280257340E1,1.561474966E0,1.346593318E1
4.152550417E-1,-5.176980312E0,-1.482137138E1,5.519072249E0,1.664134409E1
4.252570416E-1,-3.783192381E0,-1.641100361E1,7.923202912E0,1.861211241E1
4.352590416E-1,-6.030262738E-1,-1.390539335E1,9.153787453E0,1.665879436E1
4.452620416E-1,2.639757081E0,-1.073125455E1,1.187024772E1,1.621822810E1
4.552640417E-1,5.001587816E0,-1.053842858E1,1.720701548E1,2.078835586E1
4.652670416E-1,3.478449535E0,-1.138299924E1,2.027152016E1,2.350759053E1
4.752690416E-1,2.325603141E0,-1.083474910E1,2.113549305E1,2.386439365E1
4.852720416E-1,3.269617982E0,-9.990566697E0,2.213493423E1,2.450422694E1
4.952740417E-1,4.659781809E0,-8.755568678E0,2.290192052E1,2.495739396E1
5.052770416E-1,6.585773953E0,-6.532610484E0,2.107511704E1,2.302624538E1
5.152790416E-1,8.249092798E0,-4.065114715E0,1.773198786E1,1.997488631E1
5.252810416E-1,1.065280714E1,-3.048966283E-1,1.507010141E1,1.845760597E1
5.352840417E-1,1.205452506E1,4.295673351E0,1.225993892E1,1.772203392E1
5.452860417E-1,1.362931122E1,7.693615497E0,1.114492635E1,1.921351678E1
5.552890416E-1,1.427006080E1,9.024216662E0,9.061396183E0,1.916194203E1
5.652910416E-1,1.365825727E1,8.528528311E0,8.777698635E0,1.833935059E1
5.752940417E-1,1.224990861E1,8.231429529E0,7.983957821E0,1.677975791E1
5.852960417E-1,1.169761336E1,7.542189569E0,7.421074437E0,1.577311407E1
5.952990416E-1,1.150415004E1,7.557557221E0,6.200672822E0,1.509670437E1
6.053010416E-1,1.041822854E1,7.284422668E0,5.266400027E0,1.375998797E1
6.153030416E-1,8.574394455E0,6.148817959E0,3.997557739E0,1.128311439E1
6.253060417E-1,5.786239718E0,5.157431316E0,8.486543548E-1,7.797427914E0
6.353080416E-1,6.635361850E0,4.612529874E0,-4.766758373E0,9.382187598E0
6.453110416E-1,6.533939556E0,4.384868533E0,-6.495264902E0,1.020332810E1
6.553130416E-1,8.061912315E0,3.533518612E0,-5.436200831E0,1.034564949E1
6.653160417E-1,1.053120376E1,3.838392436E0,-4.738526847E0,1.216935273E1
6.753180416E-1,1.099794021E1,2.971438635E0,-3.414015557E0,1.189283981E1
6.853210416E-1,7.886266050E0,-9.356907445E-1,-3.599132558E0,8.719086222E0
6.953230416E-1,3.432690979E0,-3.886581094E0,-4.152522987E0,6.643216624E0
7.053250417E-1,1.292124585E0,-3.233988558E0,-3.376218570E0,4.850476242E0
7.153280416E-1,8.179158345E-2,-1.787484469E0,-4.486548982E0,4.830208314E0
7.253300416E-1,-1.007257010E0,-8.761584878E-1,-6.798952911E0,6.928779190E0
7.353330416E-1,-8.063408326E-1,3.329077148E-1,-7.843908820E0,7.892269551E0
7.453350417E-1,-1.022724503E0,2.275491334E0,-5.627244569E0,6.155461612E0
7.553380416E-1,-1.299697168E0,5.921398108E0,-2.627480852E0,6.607255399E0
7.653400416E-1,-1.074980046E0,7.972810104E0,-6.120187068E-1,8.068199921E0
7.753430416E-1,-8.224393867E-1,8.612528826E0,1.449135628E0,8.772231950E0
7.853450417E-1,-1.172775020E0,8.252562536E0,2.151187715E0,8.608588632E0
7.953470417E-1,-1.398294526E0,6.583229830E0,5.326784223E0,8.583051482E0
8.053500416E-1,-3.090083026E0,2.613271533E0,8.077548355E0,9.034632734E0
8.153520416E-1,-8.018935865E-1,3.126805002E0,6.665704222E0,7.406183607E0
8.253550417E-1,3.180062612E0,5.778379891E0,3.374354186E0,7.408693444E0
8.353570417E-1,6.080161123E0,6.271770287E0,-4.444836992E-1,8.746486584E0
8.453600416E-1,6.604361082E0,6.912531567E0,-1.878734947E0,9.743219333E0
8.553620416E-1,6.516944039E0,7.579002469E0,-3.284412022E0,1.052136875E1
8.653640416E-1,6.308068632E0,7.665275213E0,-3.515082341E0,1.053109576E1
8.753670417E-1,5.602024359E0,5.464599003E0,-2.801756530E0,8.312301657E0
8.853690416E-1,4.123466711E0,2.327711062E0,-1.565670344E0,4.987237725E0
8.953720416E-1,2.974397911E0,1.366511840E-1,-1.467756963E0,3.319642598E0
9.053740416E-1,3.865788980E0,-2.481680530E0,-9.584393370E-1,4.692725078E0
9.153770417E-1,4.444097612E0,-4.781699764E0,-5.107823539E-1,6.547942793E0
9.253790416E-1,1.856882587E0,-8.019552162E0,3.907566313E-1,8.240990266E0
9.353820416E-1,1.708502619E0,-9.688856801E0,3.942813182E0,1.059899538E1
9.453840416E-1,4.096148227E0,-6.748989038E0,5.061233509E0,9.377812536E0
9.553860417E-1,4.331956201E0,-4.573842942E0,4.549865849E0,7.770917773E0
9.653890416E-1,3.120167828E0,-5.309875245E0,3.586469827E0,7.126919967E0
9.753910416E-1,4.137444480E0,-7.761193523E0,8.968757576E-1,8.840755502E0
9.853940416E-1,4.863212289E0,-1.170526503E1,-7.577085167E-1,1.269795989E1
9.953960417E-1,5.292533573E0,-1.318455679E1,4.164264196E-1,1.421326354E1
1.005399042E0,7.217342826E0,-9.875479460E0,1.582745968E0,1.233370248E1
1.015401625E0,5.356694486E0,-8.685693281E0,2.190806255E-1,1.020702895E1
1.025403625E0,1.707284352E0,-1.072820465E1,-4.340192882E0,1.169813955E1
1.035406625E0,2.541338794E-1,-7.544862331E0,-2.619761358E0,7.990787270E0
1.045408625E0,-5.803862934E-1,-7.072894379E0,-7.311248086E-1,7.134229225E0
1.055411625E0,9.596216440E-2,-7.436416361E0,2.153637114E0,7.742586768E0
1.065413625E0,-2.640163463E0,-8.164498791E0,2.180911451E0,8.853579975E0
1.075416625E0,-8.282075772E0,-1.048227193E1,-6.003505880E-1,1.337277924E1
1.085418625E0,-8.553355004E0,-1.290396762E1,-1.670755919E0,1.557124554E1
1.095420625E0,1.733889768E0,-1.126944865E1,2.264182380E0,1.162468789E1
1.105423625E0,5.543774981E0,-1.330101462E1,5.925423916E0,1.558079200E1
1.115425625E0,6.065020342E0,-1.567382525E1,5.973275775E0,1.783629147E1
1.125428625E0,6.743696723E0,-1.501345826E1,4.336416750E0,1.702016112E1
1.135430625E0,4.976750014E0,-1.275766912E1,1.585227526E0,1.378546729E1
1.145433625E0,2.733433861E0,-1.030636078E1,7.033545542E-1,1.068585237E1
1.155435625E0,8.464052233E-1,-9.757413066E0,1.217978383E0,9.869497600E0
1.165438625E0,-2.061619188E0,-8.434001638E0,1.541796016E0,8.818151295E0
1.175440625E0,-2.655156308E0,-6.437654040E0,7.104944430E-1,6.999860493E0
1.185442625E0,3.655097428E-1,-2.316041189E0,-3.320183533E-1,2.368096356E0
1.195445625E0,3.827122512E0,-1.555658741E0,3.863161826E-1,4.149238609E0
1.205447625E0,3.404838645E0,-2.000394455E0,4.058438948E0,5.662634623E0
1.215450625E0,1.806421262E0,-3.515633149E0,2.767222289E0,4.824971856E0
1.225452625E0,5.175662935E-2,-8.626438183E-1,3.859886654E-1,9.464778686E-1
1.235455625E0,-2.353076576E0,2.344900122E0,-1.608177847E0,3.690767122E0
1.245457625E0,-4.306956723E0,4.569686156E0,-3.915571005E0,7.400243514E0
1.255460625E0,-4.865754658E0,7.031950421E0,-4.969676052E0,9.890479017E0
1.265462625E0,-5.145802374E0,7.976066419E0,-4.766090037E0,1.062132439E1
1.275464625E0,-5.484632149E0,8.444397402E0,-3.819762037E0,1.076938342E1
1.285467625E0,-5.816217808E0,8.398254685E0,-2.918299724E0,1.062429031E1
1.295469625E0,-1.017960250E1,7.080135571E0,-2.788423709E0,1.270936401E1
1.305472625E0,-1.553524858E1,5.332615651E0,-7.225051795E0,1.794386000E1
1.315474625E0,-2.872531462E1,6.260285770E0,-1.191589577E1,3.172260156E1
1.325477625E0,-1.038956666E0,1.904611800E1,1.097015541E1,2.200405308E1
1.335479625E0,1.171152038E1,1.663193013E1,-3.380672979E0,2.062061491E1
1.345481625E0,3.018690277E0,7.721394449E0,-6.314493552E0,1.042138436E1
1.355484625E0,-8.567947023E-1,4.587240082E0,2.525167223E-1,4.673396348E0
1.365486625E0,2.683784276E0,5.973022590E0,3.305110581E0,7.335083698E0
1.375489625E0,5.667817229E0,7.131696904E0,4.574916490E0,1.019387629E1
1.385491625E0,7.004230526E0,7.878267059E0,2.644534256E0,1.086829787E1
1.395494625E0,7.648264493E0,8.399780223E0,1.715535650E0,1.148892163E1
1.405496625E0,7.088561994E0,8.032831773E0,1.970529070E0,1.089298317E1
1.415499625E0,6.496157772E0,7.664432629E0,2.884785823E0,1.045301787E1
1.425501625E0,8.354201177E0,8.515779626E0,4.025956496E0,1.259045296E1
1.435503625E0,9.333594596E0,9.526304791E0,5.146373062E0,1.429516096E1
1.445506625E0,8.706188942E0,9.106611532E0,4.602151651E0,1.341297504E1
1.455508625E0,6.212399413E0,7.383170446E0,3.050735650E0,1.011988638E1
1.465511625E0,3.457984865E0,6.584289345E0,2.443295605E-1,7.441117016E0
1.475513625E0,1.088144833E0,6.638535719E0,-1.945535878E0,7.002808402E0
1.485516625E0,6.503481556E-2,7.102082511E0,-2.690065355E0,7.594751947E0
1.495518625E0,-2.115060254E0,9.680770687E0,-2.438616225E0,1.020478565E1
1.505520625E0,-3.331595837E0,1.073309760E1,-7.868028000E-1,1.126578774E1
1.515523625E0,-1.915073785E0,9.600734584E0,-1.812616387E-1,9.791550844E0
1.525525625E0,-2.141545656E0,9.247705430E0,3.453201842E-1,9.498711468E0
1.535528625E0,-2.195920523E0,9.914398527E0,1.255744818E0,1.023202131E1
1.545530625E0,-1.998944638E0,1.076441879E1,2.385757834E0,1.120537068E1
1.555533625E0,-7.157535750E-1,1.032303236E1,2.114843323E0,1.056171684E1
1.565535625E0,-7.952979273E-1,9.894914435E0,7.825857881E-1,9.957623762E0
1.575537625E0,-2.523062152E0,1.311909838E1,-2.810871170E0,1.365201750E1
1.585540625E0,-1.845456104E0,1.295506761E1,-2.476087376E0,1.331805142E1
1.595542625E0,-3.114160983E0,1.134283472E1,-1.574236515E0,1.186743943E1
1.605545625E0,-6.529543619E0,9.512450983E0,1.098936527E0,1.159005285E1
1.615547625E0,-6.601447415E0,9.993268111E0,5.482113168E0,1.317186700E1
1.625550625E0,-4.396555948E0,7.390076008E0,6.127480885E0,1.055883278E1
1.635552625E0,-6.532985875E0,-4.832747126E0,-3.301778837E0,8.771379180E0
1.645554625E0,-5.952501202E0,-2.166970870E1,-9.294475554E0,2.431863116E1
1.655557625E0,2.329039257E0,-3.947273789E1,7.112871208E0,4.017604258E1
1.665559625E0,6.196974458E0,-3.787638487E1,7.512744160E0,3.910836673E1
1.675562625E0,4.745891415E0,-2.459034380E1,-2.995304046E0,2.522261565E1
1.685564625E0,-1.925051181E0,-1.327711354E1,1.012503278E0,1.345409710E1
1.695567625E0,-3.240723673E0,-1.784063380E1,4.737397165E0,1.874122292E1
1.705569625E0,-1.489367688E0,-2.280943394E1,5.005798981E0,2.339971189E1
1.715572625E0,-1.327308598E0,-1.746655468E1,5.489174266E0,1.835683291E1
1.725574625E0,-3.098272344E0,-1.207742393E1,2.777799318E0,1.277417823E1
1.735576625E0,-5.463112056E0,-8.764594440E0,-8.479117584E-1,1.036256066E1
1.745579625E0,-4.130697962E0,-6.164225373E0,-2.244999858E0,7.752442484E0
1.755581625E0,-1.153179685E0,-2.240175905E0,-2.326066825E0,3.429110431E0
1.765584625E0,6.291183043E-1,-2.846106491E0,1.539466631E-1,2.918871627E0
1.775586625E0,1.185272128E0,-3.765601618E0,9.474296147E-1,4.059833548E0
1.785589625E0,1.539819511E0,-4.637161270E0,1.677485479E0,5.166068748E0
1.795591625E0,1.665656854E0,-3.897693143E0,1.848730545E0,4.624308513E0
1.805593625E0,1.862951558E0,-3.238310820E0,1.919933259E0,4.200403456E0
1.815596625E0,1.466693647E0,-2.145893646E0,9.073674166E-1,2.753064733E0
1.825598625E0,1.659727485E0,2.583943069E-1,1.010176671E0,1.960081592E0
1.835601625E0,1.760641072E0,3.041016993E0,1.807393069E0,3.951494786E0
1.845603625E0,1.949783880E0,6.017947918E0,1.065011859E0,6.414951643E0
1.855606625E0,2.642949661E0,8.898465273E0,4.309444714E-1,9.292662711E0
1.865608625E0,3.193358303E0,1.025384577E1,8.800609195E-1,1.077559268E1
1.875610625E0,3.554432640E0,1.071022680E1,4.701383579E-1,1.129442250E1
1.885613625E0,4.210775581E0,1.113612512E1,-4.886705232E-1,1.191564990E1
1.895615625E0,5.600642077E0,1.172437607E1,2.763651760E-1,1.299632885E1
1.905618625E0,6.176698653E0,1.223256343E1,7.728066123E-1,1.372532128E1
1.915620625E0,5.961742727E0,1.071015546E1,6.174893618E-1,1.227318620E1
1.925623625E0,5.795783544E0,9.748734044E0,-8.693488204E-1,1.137473911E1
1.935625625E0,5.721889941E0,9.280784299E0,1.414806333E0,1.099430119E1
1.945628625E0,6.347294678E0,4.736044119E0,4.354095222E0,9.037500143E0
1.955630625E0,9.424669658E0,3.517089690E0,3.378139381E0,1.061160420E1
1.965632625E0,9.504352005E0,5.837255505E0,3.010788642E0,1.155296962E1
1.975635625E0,7.097138105E0,4.818825490E0,-4.317296939E0,9.603619174E0
1.985637625E0,-6.138851965E0,-1.580010523E1,5.845143984E0,1.793026874E1
1.995640625E0,-2.279036968E1,-3.398434949E1,1.473167743E1,4.348976064E1
2.005642625E0,-1.621510902E1,-2.535812064E1,1.925431543E0,3.016075811E1
2.015645417E0,-2.235476206E0,-1.300085833E1,1.592742514E0,1.328745648E1
2.025647417E0,6.259204620E-1,-1.068739810E1,-2.983002673E0,1.111353047E1
2.035649417E0,2.817866486E0,-7.626656692E0,-9.768223398E0,1.270922705E1
2.045652417E0,3.876002019E0,-5.405592996E0,-6.942208525E0,9.614472762E0
2.055654417E0,3.816117468E0,-4.892686933E0,-4.733068471E0,7.804042229E0
2.065657417E0,3.396559864E0,-3.884446861E0,-3.446932458E0,6.205391985E0
2.075659417E0,3.436337303E0,-2.598676298E0,-8.788131968E-1,4.397026859E0
2.085662417E0,4.498047239E0,1.169637258E0,1.454325909E0,4.869860792E0
2.095664417E0,5.479154477E0,5.949724944E0,-7.196489900E-1,8.120237396E0
2.105666417E0,2.851493531E0,4.192741306E0,-6.809503627E-1,5.116032487E0
2.115669417E0,-1.192677042E-1,3.214772269E0,3.173477477E0,4.518843306E0
2.125671417E0,-2.261067130E0,2.545559022E0,3.765188220E0,5.076311419E0
2.135674417E0,-2.862661128E0,1.664853154E0,2.840393761E0,4.362843279E0
2.145676417E0,-2.779262584E0,1.090188215E0,1.856247725E0,3.515461061E0
2.155679417E0,-3.277376360E0,2.704851794E-1,8.671110910E-1,3.400917476E0
2.165681417E0,-3.770901534E0,3.203356165E-1,1.795534331E0,4.188825232E0
2.175683417E0,-3.388901766E0,7.447697979E-1,1.575793043E0,3.810834678E0
2.185686417E0,-2.799931614E0,1.338695465E0,1.383144245E0,3.397765529E0
2.195688417E0,-2.430039968E0,1.770543916E0,1.299905037E0,3.275617973E0
2.205691417E0,-1.962334636E0,1.982786150E0,9.174386609E-1,2.936646359E0
2.215693417E0,-1.602083587E0,2.035680063E0,4.321285325E-1,2.626290198E0
2.225696417E0,-1.410438462E0,2.096482919E0,7.815565685E-2,2.527980537E0
2.235698417E0,-1.328133347E0,2.254386978E0,-2.153406733E-1,2.625370534E0
2.245700417E0,-1.230937713E0,2.468798529E0,-4.436335140E-1,2.794098159E0
2.255703417E0,-1.161371634E0,2.732609696E0,-5.381917620E-1,3.017547050E0
2.265705417E0,-1.154464026E0,3.104009047E0,-5.194748247E-1,3.352240064E0
2.275708417E0,-1.158009777E0,3.489572108E0,-5.068267125E-1,3.711465137E0
2.285710417E0,-1.125781094E0,3.797882341E0,-4.946329290E-1,3.991986358E0
2.295713417E0,-8.656142038E-1,4.174820175E0,-3.353243691E-1,4.276780784E0
2.305715417E0,-3.389914504E-1,4.528587831E0,-7.793285966E-2,4.541926516E0
2.315717417E0,5.820941189E-1,5.066242819E0,3.343011063E-1,5.110519259E0
2.325720417E0,1.718363364E0,5.626117226E0,1.689147166E0,6.120390987E0
2.335722417E0,2.495674671E0,6.138155562E0,1.971001087E0,6.913044991E0
2.345725417E0,3.136114354E0,6.452882529E0,-9.902079175E-1,7.242611262E0
2.355727417E0,3.999594324E0,6.566717293E0,-2.538761049E0,8.097150019E0
2.365730417E0,5.743954993E0,6.388056203E0,-1.107941532E0,8.661859815E0
2.375732417E0,6.851493652E0,6.176120363E0,2.442287984E0,9.542127572E0
2.385734417E0,7.071361824E0,6.321782691E0,4.015002322E-1,9.493697746E0
2.395737417E0,8.508432600E0,5.470202390E0,7.225603187E-1,1.014093846E1
2.405739417E0,9.337754306E0,3.668430834E0,2.796985202E0,1.041509321E1
2.415742417E0,7.102504095E0,1.293528648E0,3.694640393E0,8.109818026E0
2.425744417E0,3.238388588E0,-1.216134317E0,3.586042396E0,4.982553902E0
2.435747417E0,-2.806451552E-1,-4.456658308E0,3.650415562E0,5.767677067E0
2.445749417E0,-3.523713708E0,-7.458465042E0,3.062682973E0,8.799163942E0
2.455751417E0,-4.866058713E0,-8.727566947E0,9.630025041E-1,1.003874126E1
2.465754417E0,-3.273146192E0,-9.333705693E0,1.436149254E-1,9.892025739E0
2.475756417E0,-1.761818116E0,-1.085260767E1,-3.113503464E-1,1.099909248E1
2.485759417E0,-1.834585253E0,-1.303589016E1,-5.194876885E-1,1.317459688E1
2.495761417E0,-3.108004450E0,-1.553445453E1,1.010520487E0,1.587451167E1
2.505764417E0,-3.961306756E0,-1.679635149E1,2.064756804E0,1.738023577E1
2.515766417E0,-4.223536252E0,-1.790375099E1,9.628659716E-1,1.842036017E1
2.525768417E0,-3.268545018E0,-1.904180627E1,1.874336672E-1,1.932120348E1
2.535771417E0,-2.230050574E0,-1.936416093E1,1.100591581E0,1.952319533E1
2.545773417E0,-2.285385992E0,-1.869871972E1,2.963943966E0,1.906961122E1
2.555776417E0,-1.963686805E0,-1.765950344E1,4.829349601E0,1.841295047E1
2.565778417E0,-1.224933207E0,-1.735821162E1,6.583780637E0,1.860521807E1
2.575781417E0,-1.010375184E0,-1.756872190E1,7.665752930E0,1.919491118E1
2.585783417E0,-1.206232057E0,-1.756637834E1,7.370041693E0,1.908795846E1
2.595785417E0,-1.979776880E0,-1.674972931E1,5.447786504E0,1.772431455E1
2.605788417E0,-3.313898069E0,-1.503130162E1,2.968015090E0,1.567581138E1
2.615790417E0,-4.409301416E0,-1.266774479E1,1.581932181E0,1.350615439E1
2.625793417E0,-4.194284386E0,-9.342371267E0,-1.798233698E-1,1.024227801E1
2.635795417E0,-3.609019907E0,-5.665654344E0,-1.831089495E0,6.962582321E0
2.645798417E0,-3.672156387E0,-2.022105752E0,-3.403702238E0,5.399891955E0
2.655800417E0,-3.848818314E0,1.484846036E0,-4.942788801E0,6.438115508E0
2.665802417E0,-2.732034915E0,4.782542932E0,-4.393843424E0,7.045749904E0
2.675805417E0,-6.520010903E-1,7.113774018E0,-3.163365887E0,7.812667275E0
2.685807417E0,7.274225709E-1,8.426015511E0,-2.568936775E0,8.838909273E0
2.695810417E0,1.500511604E0,9.891554625E0,-1.597151753E0,1.013140078E1
2.705812417E0,2.768640239E0,1.175770052E1,-3.435637537E-1,1.208416014E1
2.715815417E0,3.516381007E0,1.369153846E1,9.283109736E-1,1.416633057E1
2.725817417E0,3.634170828E0,1.558764665E1,1.859101167E0,1.611329212E1
2.735819417E0,3.258800633E0,1.690668261E1,1.550433669E0,1.728755457E1
2.745822417E0,2.642737992E0,1.773998919E1,1.116402891E0,1.797046566E1
2.755824417E0,2.093268413E0,1.814647593E1,1.134464063E0,1.830200453E1
2.765827417E0,1.870390971E0,1.788815763E1,1.863630566E0,1.808197071E1
2.775829417E0,1.198688857E0,1.637213132E1,2.091562049E0,1.654866069E1
2.785832417E0,7.791332996E-1,1.448017699E1,3.425984223E0,1.490033363E1
2.795834417E0,1.515912877E0,1.267375573E1,6.511186870E0,1.432890891E1
2.805836417E0,2.639805613E0,1.124500262E1,7.964569623E0,1.403043217E1
2.815839417E0,3.857001784E0,1.029100599E1,7.290632411E0,1.318842629E1
2.825841417E0,4.661737118E0,9.707901767E0,5.073982193E0,1.190463964E1
2.835844417E0,4.725832542E0,9.262709386E0,2.340868467E0,1.065884344E1
2.845846417E0,4.162615866E0,9.100598255E0,-8.168735683E-1,1.004069429E1
2.855849417E0,3.427161852E0,8.565357583E0,-2.061014879E0,9.452966266E0
2.865851417E0,3.107244312E0,7.562311007E0,-1.695470345E0,8.349738599E0
2.875853417E0,3.058053733E0,6.426791668E0,-9.983021450E-1,7.186929174E0
2.885856417E0,3.155853969E0,5.319089872E0,-9.928946400E-1,6.264021960E0
2.895858417E0,3.166247395E0,4.323241804E0,-1.571860206E0,5.584468351E0
2.905861417E0,3.094402072E0,3.948316582E0,-2.335990720E0,5.533658885E0
2.915863417E0,2.672026110E0,4.353889400E0,-2.969559925E0,5.908837668E0
2.925866417E0,2.621581596E0,5.239641414E0,-3.796523448E0,6.981412644E0
2.935868417E0,2.966237829E0,6.276824035E0,-4.423502841E0,8.231917408E0
2.945870417E0,3.314595057E0,7.341327771E0,-4.333045245E0,9.146415414E0
2.955873417E0,3.533515396E0,8.362845701E0,-3.732865981E0,9.816170725E0
2.965875417E0,3.628209884E0,9.395273951E0,-2.243774282E0,1.031841086E1
2.975878417E0,3.724003064E0,1.037612508E1,4.537687853E-2,1.102425642E1
2.985880417E0,3.431106091E0,1.111286256E1,2.313818078E0,1.185841294E1
2.995883417E0,3.048257308E0,1.175540373E1,4.032855041E0,1.279630061E1
3.005885417E0,2.345701191E0,1.213525055E1,5.122716397E0,1.337941865E1
3.015887375E0,1.126355291E0,1.211382285E1,5.601291118E0,1.339357467E1
3.025890375E0,1.235306168E-1,1.182464061E1,5.035485295E0,1.285276225E1
3.035892375E0,-6.363431239E-1,1.197975672E1,4.973152807E0,1.298659896E1
3.045895375E0,-1.545023387E0,1.232442786E1,7.202403774E0,1.435803745E1
3.055897375E0,-2.561272829E0,1.107789621E1,9.365460752E0,1.473064011E1
3.065899375E0,-2.141014875E0,8.471315060E0,9.660997742E0,1.302620439E1
3.075902375E0,-1.903927384E0,3.882229596E0,8.338448778E0,9.392889553E0
3.085904375E0,-8.791803288E0,-1.101687467E1,8.815572220E0,1.662472995E1
3.095907375E0,-2.259589363E1,-5.081676194E1,1.953162518E1,5.894405895E1
3.105909375E0,-1.483120289E1,-8.163947983E1,5.451488376E0,8.315460283E1
3.115912375E0,2.223316979E1,-3.857665210E1,-2.610475863E1,5.161327686E1
3.125914375E0,7.772304987E0,-1.171399492E1,-2.891841073E1,3.215432912E1
3.135916375E0,-6.933629782E-1,-8.835932225E0,-3.457705368E0,9.513683667E0
3.145919375E0,-2.388871184E0,-7.546519432E0,1.216239450E1,1.451139211E1
3.155921375E0,-7.401948195E0,-1.326344509E1,1.595320989E1,2.202754454E1
3.165924375E0,-1.180603828E1,-1.500596915E1,1.487932196E1,2.420652540E1
3.175926375E0,-7.766876432E0,-1.163267535E1,4.921245904E0,1.482774988E1
3.185929375E0,-3.972502128E0,-1.076420712E1,-4.509877034E-1,1.148269646E1
3.195931375E0,-5.011338633E-1,-1.002583710E1,-2.966012419E0,1.046736712E1
3.205933375E0,1.775780975E0,-7.996366782E0,-3.318864402E0,8.837994156E0
3.215936375E0,1.589760726E0,-6.020496134E0,-3.137722923E0,6.972733898E0
3.225938375E0,-2.883994402E-1,-4.746025901E0,-2.799676090E0,5.517800495E0
3.235941375E0,-1.797525600E0,-3.708455610E0,-1.419164847E0,4.358643155E0
3.245943375E0,-1.696996614E0,-3.011123103E0,-2.444136143E-2,3.456480469E0
3.255946375E0,-1.382660826E0,-2.208663506E0,1.098732679E0,2.827924847E0
3.265948375E0,-1.107364411E0,-1.165449482E0,2.206956119E0,2.730418236E0
3.275950375E0,-9.756452076E-1,4.917642850E-1,2.571831146E0,2.794285442E0
3.285953375E0,-1.094485773E0,2.009018514E0,2.595139318E0,3.459595724E0
3.295955375E0,-8.534841549E-1,3.327639903E0,2.702436309E0,4.370902027E0
3.305958375E0,-3.102023917E-1,4.188331336E0,2.522245004E0,4.898986095E0
3.315960375E0,7.475679830E-1,4.751367917E0,2.219651594E0,5.297283093E0
3.325963375E0,1.829689672E0,5.335762038E0,1.939338999E0,5.964826617E0
3.335965375E0,2.581857952E0,5.767224573E0,1.705143979E0,6.544798373E0
3.345967375E0,2.843574647E0,5.938857894E0,1.523962739E0,6.758580641E0
3.355970375E0,2.811552370E0,5.866500354E0,1.472691429E0,6.670042967E0
3.365972375E0,2.705827110E0,5.411273566E0,1.315629369E0,6.191466917E0
3.375975375E0,2.593859362E0,4.643691441E0,6.450239003E-1,5.357987721E0
3.385977375E0,2.308063541E0,3.851044641E0,-6.580328587E-1,4.537698688E0
3.395980375E0,1.948882239E0,3.136720126E0,-1.110236564E0,3.856135417E0
3.405982375E0,1.492985945E0,2.475031661E0,-1.147093318E0,3.109760736E0
3.415984375E0,1.027874731E0,1.838224268E0,-1.201799283E0,2.424853900E0
3.425987375E0,6.465473923E-1,1.336673498E0,-1.025702782E0,1.804656690E0
3.435989375E0,2.784137115E-1,9.851166737E-1,-6.734606642E-1,1.225364567E0
3.445992375E0,-6.951345384E-2,5.539330512E-1,-2.582943195E-1,6.151340512E-1
3.455994375E0,-3.519471261E-1,-8.103363812E-2,1.342970949E-1,3.853166747E-1
3.465996375E0,-6.882181594E-1,-9.337272495E-1,2.677112420E-1,1.190445345E0
3.475999375E0,-8.824652946E-1,-1.600648972E0,1.467656976E-1,1.833674535E0
3.486001375E0,-7.073078567E-1,-1.540138476E0,7.862575471E-2,1.696612195E0
3.496004375E0,-1.521571228E-1,-7.302593476E-1,6.774704654E-2,7.490127950E-1
3.506006375E0,6.022892323E-1,1.799901617E-1,-2.039310197E-1,6.608605287E-1
3.516009375E0,1.220574400E0,6.533684617E-1,-4.827204331E-1,1.466189357E0
3.526011375E0,1.544918283E0,6.893428713E-1,-4.419232035E-1,1.748502849E0
3.536013375E0,1.566167065E0,5.990337950E-1,-1.481544113E-1,1.683350971E0
3.546016375E0,1.208171579E0,3.976843393E-1,2.954452072E-1,1.305802155E0
3.556018375E0,6.373997158E-1,1.363500524E-1,7.700660223E-1,1.008896136E0
3.566021375E0,1.196623912E-1,-9.767598331E-2,1.107850900E0,1.118567522E0
3.576023375E0,-2.742110252E-1,-3.152824527E-1,1.344594721E0,1.408023322E0
3.586026375E0,-6.572062817E-1,-4.603583050E-1,1.405444356E0,1.618370694E0
3.596028375E0,-9.872494456E-1,-4.728011799E-1,1.109248969E0,1.558408066E0
3.606030375E0,-1.121964032E0,-3.162104058E-1,5.176411378E-1,1.275439006E0
3.616033375E0,-1.016393723E0,-6.746517420E-2,-1.614989452E-1,1.031353314E0
3.626035375E0,-9.715116647E-1,1.621245790E-1,-8.360360634E-1,1.291927085E0
3.636038375E0,-9.342268941E-1,2.931752998E-1,-1.233116970E0,1.574582201E0
3.646040375E0,-7.781942368E-1,4.202417278E-1,-1.367072003E0,1.628212284E0
3.656043375E0,-4.713952169E-1,5.885590929E-1,-1.209582512E0,1.425378935E0
3.666045375E0,-2.942593735E-1,7.847542280E-1,-9.002262121E-1,1.229973581E0
3.676047375E0,-3.589064822E-1,1.007391057E0,-5.432542813E-1,1.199489816E0
3.686050375E0,-5.138100421E-1,1.228881832E0,-2.559817457E-1,1.356347290E0
3.696052375E0,-6.203390023E-1,1.456881142E0,-1.477790201E-1,1.590333858E0
3.706055375E0,-8.497512925E-1,1.665682290E0,-1.587700313E-1,1.876641327E0
3.716057375E0,-1.034768598E0,1.846956500E0,-2.980378443E-1,2.137947829E0
3.726060375E0,-1.141025955E0,1.997640417E0,-5.123710424E-1,2.356911443E0
3.736062375E0,-1.103532731E0,2.232348238E0,-8.173413455E-1,2.620917782E0
3.746064375E0,-9.068189478E-1,2.540714604E0,-1.252031543E0,2.974077048E0
3.756067375E0,-6.733720788E-1,2.814277757E0,-1.533220636E0,3.274806066E0
3.766069375E0,-4.896285895E-1,3.013377789E0,-1.652081666E0,3.471246993E0
3.776072375E0,-3.518328130E-1,3.277495936E0,-1.485490984E0,3.615584240E0
3.786074375E0,4.836115122E-2,3.767932903E0,-9.605548596E-1,3.888743087E0
3.796077375E0,1.287499584E0,4.939060616E0,-2.120024979E-1,5.108514462E0
3.806079375E0,3.194171651E0,6.852577141E0,2.693543279E-1,7.565255961E0
3.816081375E0,3.411093119E0,7.848587177E0,-6.167584598E-1,8.579992304E0
3.826084375E0,2.415303815E0,8.922871551E0,8.434959412E-1,9.282392721E0
3.836086375E0,2.694095256E0,1.055459146E1,5.455614172E0,1.218282710E1
3.846089375E0,3.634629250E0,1.154527351E1,9.085758607E0,1.513455912E1
3.856091375E0,5.378585876E0,1.284166203E1,1.173466717E1,1.820823669E1
3.866094375E0,5.341228015E0,1.236566126E1,1.061880207E1,1.715217923E1
3.876096375E0,4.630989534E0,8.852283379E0,7.341228953E0,1.239768638E1
3.886098375E0,4.211029642E0,3.537998164E0,8.049006341E0,9.748677076E0
3.896101375E0,3.185001170E0,-2.705150587E0,9.338236116E0,1.023057799E1
3.906103375E0,-1.374617542E-1,-1.130634692E1,6.385252463E0,1.298552369E1
3.916106375E0,-5.438570123E0,-2.058944964E1,-3.119538960E0,2.152289490E1
3.926108375E0,-3.964859817E0,-2.563185453E1,-8.909185558E0,2.742418034E1
3.936110375E0,2.517713996E0,-2.388716701E1,-9.349935225E0,2.577512211E1
3.946113375E0,2.967622157E0,-1.917055728E1,-7.436294155E0,2.077535844E1
3.956115375E0,2.522911001E0,-1.605981399E1,-2.649433931E0,1.647125391E1
3.966118375E0,7.029940733E-1,-1.653110542E1,2.295176570E0,1.670447493E1
3.976120375E0,-1.919310970E0,-1.806963650E1,4.606311361E0,1.874602950E1
3.986123375E0,-2.635026099E0,-1.965375948E1,7.942296410E0,2.136103220E1
3.996125375E0,-3.472539169E0,-2.014179149E1,8.529724066E0,2.214738101E1
4.006127375E0,-4.682029880E0,-1.959412256E1,6.427337213E0,2.114619839E1
4.016130625E0,-5.596405184E0,-1.925467064E1,4.307399358E0,2.050891957E1
4.026132625E0,-5.610215723E0,-1.856573649E1,4.001312821E0,1.980332286E1
4.036135625E0,-4.953098611E0,-1.807710222E1,4.529844398E0,1.928300549E1
4.046137625E0,-3.558143576E0,-1.762173042E1,4.412891314E0,1.851106098E1
4.056140625E0,-2.096411291E0,-1.625208331E1,3.330736588E0,1.672181086E1
4.066142625E0,-1.178034152E0,-1.329658477E1,1.116053959E0,1.339524197E1
4.076144625E0,2.163238826E-1,-9.105370168E0,-5.778113258E-1,9.126249386E0
4.086147625E0,-2.591962525E-1,-4.423829116E0,-1.440763292E0,4.659747376E0
4.096149625E0,-2.227331911E0,-4.745547599E-1,-2.207346128E0,3.171527486E0
4.106152625E0,-2.717014003E0,3.762161116E0,-2.492077464E0,5.267491950E0
4.116154625E0,-1.779620257E0,7.802002995E0,-2.504869418E0,8.385265040E0
4.126157625E0,-1.351547061E0,9.361329110E0,-2.333782811E0,9.742058528E0
4.136159625E0,-2.008462736E0,9.851388931E0,-1.995238380E0,1.025011037E1
4.146161625E0,-1.371398650E0,1.095602971E1,-1.368432065E0,1.112600232E1
4.156164625E0,-2.963091150E-1,1.264077275E1,-6.629209848E-1,1.266161124E1
4.166166625E0,1.025753068E0,1.445137477E1,3.592845777E-1,1.449218712E1
4.176169625E0,2.312548063E0,1.614460096E1,1.447903766E0,1.637352876E1
4.186171625E0,2.783171740E0,1.767304559E1,1.860815424E0,1.798736277E1
4.196173625E0,2.119577959E0,1.873316216E1,1.662860277E0,1.892588385E1
4.206176625E0,8.507298240E-1,1.840895159E1,1.350045057E0,1.847798316E1
4.216178625E0,2.467051381E-1,1.653911377E1,3.060941380E0,1.682178676E1
4.226181625E0,1.424752154E0,1.417952602E1,5.643129115E0,1.532754981E1
4.236183625E0,3.517480869E0,1.238956467E1,6.865232270E0,1.459470447E1
4.246186625E0,5.664257444E0,1.144529314E1,7.160489763E0,1.464073636E1
4.256188625E0,7.588918762E0,1.064445381E1,5.642306997E0,1.423838871E1
4.266190625E0,8.342671053E0,9.403409182E0,3.676336269E0,1.309731701E1
4.276193625E0,7.524964256E0,8.228563809E0,1.379451728E0,1.123553454E1
4.286195625E0,5.496956910E0,7.914109907E0,-1.067070079E0,9.694756801E0
4.296198625E0,4.023058908E0,8.022608501E0,-2.278028440E0,9.259409469E0
4.306200625E0,3.301822107E0,7.801615325E0,-2.669021226E0,8.882055235E0
4.316203625E0,2.875338476E0,7.258255793E0,-2.845471483E0,8.309425761E0
4.326205625E0,2.185811710E0,6.649543102E0,-2.263294626E0,7.356405295E0
4.336207625E0,1.556037641E0,5.964001506E0,-1.582545408E0,6.363569523E0
4.346210625E0,8.984334558E-1,5.476513875E0,-8.860777044E-1,5.620010729E0
4.356212625E0,5.314496300E-1,5.314158915E0,-7.460322118E-1,5.392521465E0
4.366215625E0,1.133665480E0,5.551872790E0,-1.199758605E0,5.792055732E0
4.376217625E0,2.232088329E0,6.028774037E0,-2.097005661E0,6.762083070E0
4.386220625E0,3.239629367E0,6.779203355E0,-3.379738594E0,8.238654595E0
4.396222625E0,3.750548546E0,7.837178090E0,-3.633662120E0,9.417615155E0
4.406224625E0,3.682317679E0,8.842988060E0,-2.379838990E0,9.870234796E0
4.416227625E0,3.197311898E0,9.561561747E0,-1.032046500E0,1.013466262E1
4.426229625E0,2.873391938E0,1.019626707E1,-1.162567536E-1,1.059404356E1
4.436232625E0,2.778356265E0,1.090805097E1,9.165498841E-1,1.129357796E1
4.446234625E0,2.587126586E0,1.144793842E1,2.082764182E0,1.192000104E1
4.456236625E0,2.377114187E0,1.181271580E1,2.805484715E0,1.237180952E1
4.466239625E0,2.205558927E0,1.193479865E1,2.860725700E0,1.246946913E1
4.476241625E0,2.245446878E0,1.188948039E1,2.847114551E0,1.243011813E1
4.486244625E0,2.089460998E0,1.230271247E1,4.348930961E0,1.321498324E1
4.496246625E0,1.570086161E0,1.266489603E1,7.198185593E0,1.465191584E1
4.506249625E0,1.972243035E0,1.247452472E1,8.122435091E0,1.501590694E1
4.516251625E0,3.187054127E0,1.129801932E1,8.357323591E0,1.440997613E1
4.526253625E0,4.927929271E0,7.835661322E0,7.627847185E0,1.199442070E1
4.536256625E0,-1.942585373E-1,-7.860412002E-1,5.097259374E0,5.161167530E0
4.546258625E0,-1.499754682E1,-3.273698871E1,1.629359620E1,3.952363998E1
4.556261625E0,-2.281035780E1,-7.847027023E1,1.734332227E1,8.353853339E1
4.566263625E0,1.428456891E1,-5.365674522E1,-2.130302279E1,5.947195976E1
4.576266625E0,8.447147933E0,-1.793287480E1,-2.623441245E1,3.288140361E1
4.586268625E0,-2.877714200E0,-1.360518794E1,-5.303064993E0,1.488303989E1
4.596270625E0,-2.485534430E0,-1.044361130E1,7.805765094E0,1.327316342E1
4.606273625E0,-5.720029356E0,-1.451247818E1,1.317688758E1,2.041962598E1
4.616275625E0,-7.111587744E0,-1.553039890E1,9.557560498E0,1.957332197E1
4.626278625E0,-5.418900089E0,-1.362101519E1,1.496957374E0,1.473558327E1
4.636280625E0,-4.173277387E0,-1.308387475E1,-9.217854810E-1,1.376421851E1
4.646282625E0,-2.409089979E0,-1.082133208E1,9.978612649E-1,1.113106777E1
4.656285625E0,9.078869417E-1,-6.950848956E0,1.800912600E0,7.237530386E0
4.666287625E0,1.391011527E0,-6.177297408E0,1.668159755E0,6.548028200E0
4.676290625E0,1.729366654E-1,-6.287175946E0,1.318512631E0,6.426271393E0
4.686292625E0,-1.138462828E0,-5.526142117E0,8.502999075E-1,5.705905208E0
4.696295625E0,-2.219454689E0,-4.449483774E0,1.401295756E0,5.165996009E0
4.706297625E0,-3.226935062E0,-2.864515865E0,1.831070784E0,4.687363998E0
4.716299625E0,-4.053441918E0,-1.003560546E0,1.577916752E0,4.464005648E0
4.726302625E0,-3.996085995E0,6.447052270E-1,1.436272046E0,4.295023341E0
4.736304625E0,-3.102412757E0,2.242570925E0,1.476302669E0,4.102872023E0
4.746307625E0,-2.240475283E0,3.257726499E0,1.264987950E0,4.151229451E0
4.756309625E0,-1.340018106E0,3.760177740E0,8.798270309E-1,4.087625321E0
4.766311625E0,-9.066414848E-2,4.123212649E0,8.236942723E-1,4.205659852E0
4.776314625E0,1.167188736E0,4.464309390E0,1.035530198E0,4.729134240E0
4.786316625E0,2.172489999E0,4.659478338E0,1.320173240E0,5.307853480E0
4.796319625E0,2.899448301E0,4.680184498E0,1.376274351E0,5.674950086E0
4.806321625E0,3.450231164E0,4.417024126E0,9.027469468E-1,5.677072244E0
4.816324625E0,3.582286437E0,3.923582275E0,1.173301562E-1,5.314229986E0
4.826326625E0,3.329840502E0,3.401678517E0,-6.466611937E-1,4.803896877E0
4.836328625E0,2.830918641E0,2.978536570E0,-9.785976861E-1,4.224148894E0
4.846331625E0,2.330018958E0,2.777499940E0,-1.050045253E0,3.774399197E0
4.856333625E0,2.061340861E0,2.719450538E0,-8.946544003E-1,3.527739201E0
4.866336625E0,2.112417167E0,2.743315364E0,-4.467459869E-1,3.491083993E0
4.876338625E0,2.242394046E0,2.620103420E0,3.338514555E-1,3.464784234E0
4.886341625E0,2.082131806E0,2.380429559E0,1.014732748E0,3.321355189E0
4.896343625E0,1.839407452E0,2.048908219E0,1.509805461E0,3.140216106E0
4.906345625E0,1.486186218E0,1.377545536E0,1.748899278E0,2.676757341E0
4.916348625E0,1.007902688E0,5.193526179E-1,1.326503436E0,1.745051958E0
4.926350625E0,6.123058051E-1,-2.843360639E-1,4.470195635E-1,8.096862888E-1
4.936353625E0,3.763993049E-1,-8.773472267E-1,-3.257799590E-1,1.008735433E0
4.946355625E0,2.450708413E-1,-1.169264790E0,-7.346862745E-1,1.402499123E0
4.956357625E0,8.099416941E-2,-9.671949577E-1,-1.025221556E0,1.411773842E0
4.966360625E0,-1.690275094E-1,-3.733961749E-1,-1.230199209E0,1.296682342E0
4.976362625E0,-3.353565288E-1,1.845615149E-2,-1.291474521E0,1.334432864E0
4.986365625E0,-2.698911023E-1,2.978513181E-2,-1.127260805E0,1.159502171E0
4.996367625E0,-2.836355674E-1,-1.229441410E-1,-6.428855735E-1,7.133486227E-1
5.006370625E0,-4.397015539E-1,-1.915980542E-1,-1.334802389E-2,4.798181328E-1
5.016372500E0,-5.287441233E-1,-9.598146021E-2,4.719053499E-1,7.151765152E-1
5.026374500E0,-5.214748648E-1,1.660176551E-1,8.595395315E-1,1.018973063E0
5.036377500E0,-5.291484582E-1,5.464205486E-1,1.171825871E0,1.397050242E0
5.046379500E0,-5.942522344E-1,8.464090240E-1,1.312795808E0,1.671220150E0
5.056382500E0,-6.896735314E-1,1.027581493E0,1.177260858E0,1.708073895E0
5.066384500E0,-7.624257579E-1,1.146754764E0,7.718459878E-1,1.578634142E0
5.076386500E0,-6.744368568E-1,1.204436377E0,4.882758361E-1,1.464221757E0
5.086389500E0,-5.166073501E-1,1.109076476E0,3.629390875E-1,1.276189079E0
5.096391500E0,-3.997802737E-1,9.144068795E-1,1.534181479E-1,1.009703589E0
5.106394500E0,-5.141842639E-1,7.484342480E-1,-7.971509099E-2,9.115337495E-1
5.116396500E0,-7.041103068E-1,7.128241199E-1,-3.016444069E-1,1.046364611E0
5.126399500E0,-7.188449979E-1,8.382036263E-1,-4.656658957E-1,1.198402343E0
5.136401500E0,-6.222817397E-1,1.241946266E0,-5.227001854E-1,1.484210421E0
5.146403500E0,-4.384631136E-1,1.656008656E0,-4.084988012E-1,1.761103586E0
5.156406500E0,-1.805231354E-1,1.994424448E0,-1.447478235E-1,2.007802135E0
5.166408500E0,7.632984549E-2,2.410918695E0,2.082287049E-1,2.421097766E0
5.176411500E0,2.436844665E-1,2.802873348E0,6.756773436E-1,2.893444487E0
5.186413500E0,3.159426033E-1,3.086567972E0,1.092186136E0,3.289314842E0
5.196415500E0,3.946528503E-1,3.512893143E0,1.346307371E0,3.782685904E0
5.206418500E0,4.549791589E-1,4.134284352E0,1.304755302E0,4.359093889E0
5.216420500E0,5.200589615E-1,4.886768382E0,1.203684498E0,5.059626756E0
5.226423500E0,9.548371598E-1,5.976251423E0,1.309050667E0,6.192003611E0
5.236425500E0,1.658292286E0,7.132688007E0,2.268512682E0,7.666245580E0
5.246428500E0,2.229596246E0,8.189878045E0,3.155999565E0,9.055690756E0
5.256430500E0,2.134075546E0,8.417525938E0,1.368337340E0,8.790982222E0
5.266432500E0,2.444448969E0,8.392392266E0,2.821391188E-2,8.741188405E0
5.276435500E0,3.040396019E0,7.515253785E0,1.371748021E0,8.222210168E0
5.286437500E0,2.742485936E0,4.901489332E0,2.513380040E0,6.153284164E0
5.296440500E0,2.921653687E0,1.873908656E0,1.230822376E0,3.682732360E0
5.306442500E0,4.106389040E0,-1.560118997E-1,-1.237825294E0,4.291734163E0
5.316444500E0,3.935520243E0,-9.259048444E-1,-3.069121635E0,5.075936069E0
5.326447500E0,3.380847226E0,-5.770248753E-1,-3.554852763E0,4.939642076E0
5.336449500E0,3.239611533E0,-7.789754248E-1,-2.425894730E0,4.121510747E0
5.346452500E0,3.087171113E0,-1.736392084E0,-1.861433329E-1,3.546876413E0
5.356454500E0,2.527140585E0,-2.902549664E0,1.498057235E0,4.129819556E0
5.366457500E0,8.609096803E-1,-5.045830189E0,2.912884033E0,5.889521302E0
5.376459500E0,-9.108827627E-1,-8.098663235E0,3.709682063E0,8.954317094E0
5.386461500E0,-2.067337034E0,-9.548448781E0,3.733777854E0,1.045886483E1
5.396464500E0,-2.899209149E0,-9.537613891E0,3.564905296E0,1.058678621E1
5.406466500E0,-2.997368698E0,-9.605614670E0,3.854638340E0,1.077544844E1
5.416469500E0,-3.356445041E0,-1.135249549E1,1.872378439E0,1.198543609E1
5.426471500E0,-2.789740209E0,-1.400801082E1,-6.677849181E-1,1.429870463E1
5.436473500E0,-1.754550758E0,-1.673648419E1,-2.060303273E0,1.695385505E1
5.446476500E0,-1.871849120E0,-1.857840741E1,-1.561360069E0,1.873763289E1
5.456478500E0,-2.266692736E0,-1.801759862E1,5.043007153E-1,1.816661980E1
5.466481500E0,-3.398379518E0,-1.693357629E1,2.334377473E0,1.742826175E1
5.476483500E0,-4.119088608E0,-1.582891680E1,3.752066191E0,1.678092664E1
5.486486500E0,-4.163750226E0,-1.519947573E1,4.852099071E0,1.648950405E1
5.496488500E0,-3.917778913E0,-1.519660709E1,5.978552302E0,1.679371746E1
5.506490500E0,-3.147929238E0,-1.534221094E1,6.602067804E0,1.699647594E1
5.516493500E0,-2.320737673E0,-1.574691194E1,5.980139236E0,1.700332686E1
5.526495500E0,-1.622641812E0,-1.634833900E1,4.551303679E0,1.704744907E1
5.536498500E0,-1.347122765E0,-1.667428268E1,2.387803921E0,1.689816707E1
5.546500500E0,-2.016831271E0,-1.596538380E1,-1.751393116E-1,1.609322099E1
5.556502500E0,-3.041013485E0,-1.332677979E1,-2.900731764E0,1.397372775E1
5.566505500E0,-4.020537589E0,-9.016966115E0,-4.659764852E0,1.091713373E1
5.576507500E0,-3.511082261E0,-4.266827867E0,-4.696446775E0,7.251905335E0
5.586510500E0,-1.801521588E0,-3.704906934E-1,-3.187813681E0,3.680339583E0
5.596512500E0,-1.335737944E-2,2.651387193E0,-6.069725962E-1,2.720008860E0
5.606515500E0,1.337460826E0,4.977689077E0,8.193340766E-1,5.218955675E0
5.616517500E0,1.894633819E0,6.952183290E0,4.813182342E-1,7.221783509E0
5.626519500E0,1.743654326E0,8.470322787E0,3.440852523E-2,8.647998755E0
5.636522500E0,1.380180291E0,9.862185230E0,2.124293447E-2,9.958315441E0
5.646524500E0,1.499469630E0,1.173099511E1,1.356261671E-1,1.182721649E1
5.656527500E0,1.954169584E0,1.370629332E1,1.841617115E-1,1.384612476E1
5.666529500E0,2.576184399E0,1.530471041E1,7.765418136E-1,1.553943062E1
5.676531500E0,2.924821708E0,1.633989211E1,1.480058774E0,1.666545020E1
5.686534500E0,3.027503200E0,1.711174797E1,1.609507066E0,1.745188262E1
5.696536500E0,2.653105105E0,1.725293250E1,2.513883193E-1,1.745754400E1
5.706539500E0,2.377579626E0,1.607491267E1,-6.063540705E-1,1.626109983E1
5.716541500E0,2.218081909E0,1.382700675E1,2.624804581E0,1.424765251E1
5.726544500E0,2.213240122E0,1.181236614E1,5.815473458E0,1.335103581E1
5.736546500E0,3.012050471E0,1.097439348E1,8.418051603E0,1.415532949E1
5.746548500E0,4.227755018E0,1.078717966E1,9.616369454E0,1.505694919E1
5.756551500E0,5.047806548E0,1.116500335E1,7.659765966E0,1.445024794E1
5.766553500E0,5.367025931E0,1.124981838E1,4.947600474E0,1.341052316E1
5.776556500E0,6.121262371E0,1.079945180E1,3.143636212E0,1.280548558E1
5.786558500E0,5.718996738E0,1.063327159E1,1.189225430E0,1.213209156E1
5.796560500E0,4.804219730E0,1.096943270E1,2.688994145E-1,1.197836749E1
5.806563500E0,3.947395645E0,1.090651666E1,2.124784613E-1,1.160082691E1
5.816565500E0,2.777336803E0,9.921679480E0,-8.945881806E-2,1.030346186E1
5.826568500E0,2.031591690E0,8.579273372E0,-8.831494188E-1,8.860657384E0
5.836570500E0,1.653322445E0,6.982737916E0,-1.935889142E0,7.432346243E0
5.846572500E0,1.194545812E0,5.520111884E0,-2.472370008E0,6.165321432E0
5.856575500E0,2.914424774E-1,4.534219869E0,-2.366410275E0,5.122888456E0
5.866577500E0,-7.741602427E-1,4.190718169E0,-2.519036636E0,4.950453356E0
5.876580500E0,-8.956194833E-1,4.550556990E0,-3.497520229E0,5.808816655E0
5.886582500E0,-1.661810848E-1,5.233053356E0,-4.947214558E0,7.203290600E0
5.896585500E0,5.013075256E-1,5.849010163E0,-5.445048838E0,8.006921129E0
5.906587500E0,1.049485455E0,6.590526570E0,-3.858672334E0,7.708813941E0
5.916589500E0,1.805953777E0,7.565689529E0,-2.224690139E0,8.090140500E0
5.926592500E0,2.492272176E0,8.559674090E0,-7.326923740E-1,8.945181901E0
5.936594500E0,2.697927229E0,9.486941335E0,1.126006650E0,9.927172720E0
5.946597500E0,2.635082232E0,1.025936086E1,2.341022834E0,1.084797362E1
5.956599500E0,2.620315966E0,1.099049788E1,2.975209504E0,1.168370536E1
5.966601500E0,2.653023244E0,1.171941295E1,4.803240906E0,1.294041326E1
5.976604500E0,1.954872712E0,1.253778224E1,6.334577569E0,1.418253798E1
5.986606500E0,6.970448238E-1,1.310589069E1,7.074076102E0,1.490948674E1
5.996609500E0,3.118410739E-1,1.279512755E1,8.820027798E0,1.554366187E1
6.006611500E0,1.285904756E0,1.182064579E1,9.641534700E0,1.530818113E1
6.016614667E0,2.754470682E0,8.726203376E0,9.506545880E0,1.319500469E1
6.026616667E0,1.630686412E0,2.107425399E0,1.039589101E1,1.073195834E1
6.036618667E0,-9.872644730E0,-1.731224665E1,1.629580762E1,2.574366609E1
6.046621667E0,-2.819445527E1,-6.809619636E1,2.252530370E1,7.706755850E1
6.056623667E0,2.851519843E0,-7.559936219E1,-2.066095641E1,7.842365618E1
6.066626667E0,1.567934152E1,-2.453717624E1,-4.443688833E1,5.312769346E1
6.076628667E0,1.735301578E-1,-9.208446640E0,-1.627845659E1,1.870330856E1
6.086630667E0,-2.548215120E0,-7.754383855E0,1.001364917E1,1.291886368E1
6.096633667E0,-4.479792817E0,-1.068522527E1,2.234412422E1,2.516947496E1
6.106635667E0,-8.571715845E0,-1.352068515E1,1.942803825E1,2.517403245E1
6.116638667E0,-5.767432149E0,-1.148583890E1,7.818626044E0,1.504389185E1
6.126640667E0,-1.517873595E0,-1.007424269E1,-2.786496466E-1,1.019175901E1
6.136642667E0,1.751034535E0,-1.008843622E1,-1.974624753E0,1.042793413E1
6.146645667E0,2.710886706E0,-9.869687208E0,-1.130045176E0,1.029740911E1
6.156647667E0,3.525317892E0,-9.239076694E0,-1.197203225E0,9.961008983E0
6.166650667E0,1.671658875E0,-8.678332222E0,-1.695923650E0,8.999113877E0
6.176652667E0,-6.946460035E-1,-6.873958070E0,-1.952751927E0,7.179629009E0
6.186655667E0,-2.573144723E0,-4.835754933E0,-1.183188911E0,5.604064199E0
6.196657667E0,-3.752067652E0,-2.951354034E0,-1.644349600E-1,4.776561646E0
6.206659667E0,-4.160234295E0,-9.691976291E-1,6.100840093E-1,4.314985044E0
6.216662667E0,-4.360836477E0,7.523817033E-1,1.129209097E0,4.567065380E0
6.226664667E0,-3.500882378E0,2.021184815E0,1.316607023E0,4.251449110E0
6.236667667E0,-2.157706191E0,2.867689734E0,1.187441957E0,3.780126825E0
6.246669667E0,-7.816744995E-1,3.584349042E0,1.171543962E0,3.851115207E0
6.256671667E0,4.460124537E-1,4.395564260E0,1.280038537E0,4.599827271E0
6.266674667E0,1.490088357E0,5.041314384E0,1.179660555E0,5.387653762E0
6.276676667E0,2.293773530E0,5.472465847E0,9.039058650E-1,6.002193372E0
6.286679667E0,2.627698076E0,5.573837271E0,9.102658814E-1,6.229048328E0
6.296681667E0,2.746538934E0,5.385951029E0,1.102723476E0,6.145562925E0
6.306684667E0,2.872292369E0,5.365696859E0,7.715067762E-1,6.134817759E0
6.316686667E0,3.004523351E0,5.318091753E0,2.962152306E-1,6.115308980E0
6.326688667E0,3.136505533E0,5.018172859E0,1.760725272E-1,5.920365473E0
6.336691667E0,3.278962710E0,4.692399332E0,2.785543736E-1,5.731300069E0
6.346693667E0,3.327116285E0,4.247434992E0,3.786293964E-1,5.408675161E0
6.356696667E0,3.147915205E0,3.506515000E0,6.068825491E-1,4.751139233E0
6.366698667E0,2.721118456E0,2.719675071E0,9.565208656E-1,3.964347400E0
6.376700667E0,1.958799410E0,1.864454293E0,1.217113652E0,2.965543893E0
6.386703667E0,8.563592309E-1,7.451229697E-1,1.192436721E0,1.646348902E0
6.396705667E0,-5.637943804E-2,-4.176186669E-1,7.610168713E-1,8.699026787E-1
6.406708667E0,-4.513863373E-1,-1.288779539E0,1.661073368E-2,1.365642063E0
6.416710667E0,-5.536477071E-1,-1.765408307E0,-8.024192512E-1,2.016697530E0
6.426712667E0,-3.261910182E-1,-1.673432189E0,-1.211996827E0,2.091820303E0
6.436715667E0,3.348352495E-1,-1.102922282E0,-1.293349723E0,1.732427693E0
6.446717667E0,8.945026651E-1,-4.599729735E-1,-1.078234168E0,1.474550465E0
6.456720667E0,1.128158864E0,-9.008863628E-2,-7.416239959E-1,1.353094430E0
6.466722667E0,1.115856907E0,-1.715573072E-2,-2.865428030E-1,1.152188238E0
6.476725667E0,9.429740363E-1,-2.698706371E-1,2.488183218E-1,1.011899576E0
6.486727667E0,6.815213433E-1,-6.144797999E-1,5.382320712E-1,1.063837642E0
6.496729667E0,3.219333681E-1,-9.481225097E-1,5.340168865E-1,1.134791356E0
6.506732667E0,-7.097028762E-2,-1.132053695E0,3.523812819E-1,1.187752044E0
6.516734667E0,-3.212819883E-1,-1.129782051E0,3.473140848E-1,1.224849653E0
6.526737667E0,-3.799912494E-1,-9.914451152E-1,4.417893022E-1,1.150015023E0
6.536739667E0,-2.376358142E-1,-8.350788742E-1,5.164267077E-1,1.010209904E0
6.546741667E0,6.895709127E-2,-7.635820448E-1,4.820023950E-1,9.056152209E-1
6.556744667E0,2.694569466E-1,-5.692416465E-1,2.955703193E-1,6.957046154E-1
6.566746667E0,2.772442684E-1,-2.725510007E-1,1.327593138E-1,4.108204811E-1
6.576749667E0,6.216379613E-2,6.634543240E-2,2.092543066E-2,9.329484229E-2
6.586751667E0,-2.754021031E-1,3.548347735E-1,-1.475620884E-1,4.727881183E-1
6.596753667E0,-7.051496494E-1,5.725663733E-1,-3.864365987E-1,9.871177867E-1
6.606756667E0,-9.893740314E-1,7.611004865E-1,-5.321480799E-1,1.356951179E0
6.616758667E0,-1.105508505E0,8.445864469E-1,-4.156522848E-1,1.451978699E0
6.626761667E0,-1.072467936E0,8.809491116E-1,-1.547956971E-1,1.396502961E0
6.636763667E0,-8.179567650E-1,8.061532831E-1,1.487958326E-1,1.158048611E0
6.646765667E0,-4.774210650E-1,6.069708055E-1,3.946373918E-1,8.672272499E-1
6.656768667E0,-1.390578979E-1,4.138986683E-1,5.031529434E-1,6.661922328E-1
6.666770667E0,6.403227389E-2,2.532949501E-1,5.241046866E-1,5.856143666E-1
6.676773667E0,1.337579817E-2,1.420978653E-1,4.140933806E-1,4.380000493E-1
6.686775667E0,-1.730270049E-1,2.048443365E-1,1.711081680E-1,3.180841898E-1
6.696778667E0,-4.123895019E-1,3.685160887E-1,-2.001326136E-1,5.881515723E-1
6.706780667E0,-6.923445395E-1,6.262654477E-1,-5.720880346E-1,1.094912824E0
6.716782667E0,-8.814394006E-1,9.533715552E-1,-7.807050312E-1,1.515042272E0
6.726785667E0,-1.018845168E0,1.313747735E0,-8.820261687E-1,1.882006575E0
6.736787667E0,-1.075729805E0,1.689133717E0,-9.029849285E-1,2.196758774E0
6.746790667E0,-1.110573948E0,2.089515377E0,-8.300350660E-1,2.507669679E0
6.756792667E0,-1.144331971E0,2.502460949E0,-7.473946130E-1,2.851386535E0
6.766794667E0,-9.627952203E-1,3.049486100E0,-6.728560621E-1,3.267885462E0
6.776797667E0,-6.961382130E-1,3.615715261E0,-6.475767946E-1,3.738630895E0
6.786799667E0,-1.586104023E-1,4.390344450E0,-3.215284485E-1,4.404958819E0
6.796802667E0,4.522920710E-1,5.130357538E0,3.492980450E-1,5.162087341E0
6.806804667E0,8.221930727E-1,5.733080927E0,-1.649365781E-1,5.794085125E0
6.816806667E0,7.889320636E-1,6.317058726E0,-2.578139123E0,6.868365605E0
6.826809667E0,1.105190709E0,6.864595508E0,-3.186374096E0,7.648339550E0
6.836811667E0,2.745825866E0,7.574750374E0,-5.635015080E-1,8.076752866E0
6.846814667E0,4.307117229E0,7.657737567E0,3.163712627E0,9.338162617E0
6.856816667E0,5.602010325E0,7.102844403E0,4.758495088E0,1.022135968E1
6.866819667E0,6.693645726E0,6.461083834E0,3.572110820E0,9.965464020E0
6.876821667E0,8.971202881E0,5.628720991E0,1.987035322E0,1.077558771E1
6.886823667E0,1.059227325E1,4.050287930E0,1.837651972E0,1.148816999E1
6.896826667E0,9.600321186E0,1.197660624E0,2.719991405E0,1.004982145E1
6.906828667E0,6.136149967E0,-2.978169365E0,2.182146968E0,7.161256494E0
6.916831667E0,1.850178023E0,-7.739402120E0,4.987294883E-1,7.973094442E0
6.926833667E0,-1.655495417E0,-1.254328330E1,7.108382593E-1,1.267201294E1
6.936835667E0,-2.959563817E0,-1.647801855E1,2.046553545E0,1.686631242E1
6.946838667E0,-3.695212251E0,-1.747685396E1,1.308464922E0,1.791108870E1
6.956840667E0,-5.204717165E0,-1.704563701E1,8.587182900E-1,1.784321212E1
6.966843667E0,-6.231116350E0,-1.659369636E1,2.587731480E0,1.791295408E1
6.976845667E0,-7.327382162E0,-1.570207783E1,4.945160431E0,1.801944475E1
6.986847667E0,-8.104235632E0,-1.589275787E1,7.070363120E0,1.918979996E1
6.996850667E0,-7.159909135E0,-1.713812710E1,8.230823758E0,2.031566290E1
7.006852667E0,-5.920357304E0,-1.906387834E1,6.985415356E0,2.114895070E1
7.016856000E0,-4.661067904E0,-2.103660494E1,5.842349600E0,2.232481467E1
7.026858000E0,-4.036007275E0,-2.257825843E1,5.155478346E0,2.350842541E1
7.036860000E0,-3.443132645E0,-2.286781722E1,5.191077365E0,2.370104452E1
7.046863000E0,-2.728027233E0,-2.192981624E1,4.163927397E0,2.248771363E1
7.056865000E0,-2.391253632E0,-1.950274695E1,2.173063903E0,1.976859731E1
7.066868000E0,-2.657789602E0,-1.525232404E1,2.831238630E-1,1.548474711E1
7.076870000E0,-4.047362860E0,-1.057312947E1,-1.612535192E0,1.143557968E1
7.086873000E0,-5.018641806E0,-5.861050165E0,-2.887203062E0,8.238605229E0
7.096875000E0,-3.505062552E0,-8.858894241E-1,-2.467519158E0,4.377089714E0
7.106877000E0,-1.285160113E0,2.960880902E0,-6.945083016E-1,3.301635052E0
7.116880000E0,1.456830856E-1,5.477036031E0,4.154540277E-1,5.494701930E0
7.126882000E0,3.337929833E-1,7.250281945E0,-4.332366164E-1,7.270880278E0
7.136885000E0,-6.281283706E-2,8.440342358E0,-1.257213346E0,8.533692634E0
7.146887000E0,3.377410233E-1,1.025845337E1,-1.037904240E0,1.031635497E1
7.156889000E0,9.832961431E-1,1.244708023E1,-6.190984424E-1,1.250119836E1
7.166892000E0,1.958264974E0,1.427401352E1,5.337035123E-1,1.441759700E1
7.176894000E0,3.258751809E0,1.577799574E1,1.578665342E0,1.618816843E1
7.186897000E0,3.920287077E0,1.679494115E1,8.133010657E-1,1.726557724E1
7.196899000E0,3.605724416E0,1.751826979E1,-1.062624733E-1,1.788581328E1
7.206901000E0,2.783381362E0,1.805309589E1,-2.068641110E-1,1.826757444E1
7.216904000E0,2.790561158E0,1.722510443E1,4.287258916E-1,1.745494944E1
7.226906000E0,3.037191160E0,1.504786328E1,3.689782526E0,1.578851527E1
7.236909000E0,3.975395330E0,1.321765203E1,8.706453820E0,1.631908182E1
7.246911000E0,4.547468198E0,1.241888027E1,1.127930823E1,1.738191153E1
7.256913000E0,5.132215784E0,1.244810466E1,7.389576656E0,1.535906220E1
7.266916000E0,6.245332686E0,1.277554172E1,5.486445955E0,1.524203844E1
7.276918000E0,5.876811919E0,1.214034348E1,3.719015096E0,1.399128055E1
7.286921000E0,5.226674629E0,1.134640971E1,2.979635847E0,1.284279450E1
7.296923000E0,4.645809010E0,1.099118902E1,2.277747774E0,1.214816498E1
7.306925000E0,3.966970369E0,1.041344201E1,7.278871322E-1,1.116720413E1
7.316928000E0,3.230209210E0,9.109339843E0,-7.221311331E-2,9.665378350E0
7.326930000E0,2.438637421E0,7.061163111E0,-4.923086607E-1,7.486611033E0
7.336933000E0,1.245031257E0,4.938799245E0,-1.335182458E0,5.265411001E0
7.346935000E0,1.161347660E0,3.460127869E0,-2.124072422E0,4.222901480E0
7.356938000E0,1.174751818E0,2.462852495E0,-3.342597080E0,4.314932153E0
7.366940000E0,4.902179888E-1,2.420717459E0,-5.066793627E0,5.636717515E0
7.376942000E0,3.128693068E-1,3.861683065E0,-6.611450247E0,7.663012310E0
7.386945000E0,8.995897427E-1,4.758945324E0,-7.827430197E0,9.204644794E0
7.396947000E0,1.500016637E0,5.532077626E0,-7.471585025E0,9.416927076E0
7.406950000E0,2.121146475E0,6.555742654E0,-5.552028326E0,8.848844141E0
7.416952000E0,2.583905647E0,7.704291928E0,-3.088866513E0,8.693318057E0
7.426954000E0,3.164643504E0,9.088723730E0,-8.474299479E-1,9.661159613E0
7.436957000E0,3.825015761E0,1.049914465E1,1.592695005E0,1.128713699E1
7.446959000E0,4.070590924E0,1.145194727E1,4.097062147E0,1.282586157E1
7.456962000E0,4.085976995E0,1.222665423E1,5.688390073E0,1.409056646E1
7.466964000E0,3.882028452E0,1.281904383E1,5.373273096E0,1.443156587E1
7.476966000E0,3.581349713E0,1.307783809E1,5.400640404E0,1.459530170E1
7.486969000E0,3.543929287E0,1.342924406E1,5.793705443E0,1.504895523E1
7.496971000E0,3.106860442E0,1.381164260E1,6.198571333E0,1.545433078E1
7.506974000E0,2.457418385E0,1.375360080E1,6.251248899E0,1.530616062E1
7.516976000E0,1.993394753E0,1.155753044E1,7.787908866E0,1.407841103E1
7.526978000E0,1.861260836E0,6.435649030E0,9.813145802E0,1.188190645E1
7.536981000E0,-1.563580549E0,-1.095058946E0,5.032559348E0,5.382433634E0
7.546983000E0,-1.343464922E1,-2.844886294E1,9.246170536E0,3.279206111E1
7.556986000E0,-2.146135370E1,-9.201937285E1,1.872581572E1,9.632658437E1
7.566988000E0,2.030513463E1,-6.255122094E1,-2.713577243E1,7.114284138E1
7.576991000E0,8.880023739E0,-1.215456040E1,-2.717416993E1,3.106483014E1
7.586993000E0,-4.035788297E0,-5.862799652E0,2.880928999E-1,7.123412416E0
7.596995000E0,-5.700508427E0,-3.715909640E0,1.601973250E1,1.740504554E1
7.606998000E0,-1.149375486E1,-1.074647720E1,1.783316106E1,2.378265768E1
7.617000000E0,-1.133303128E1,-1.798372804E1,1.617681093E1,2.671219354E1
7.627003000E0,-3.319787092E0,-1.875375839E1,7.726526551E0,2.055294754E1
7.637005000E0,-2.742469856E-1,-1.830972317E1,-5.576121193E-1,1.832026488E1
7.647007000E0,-3.679269817E0,-1.576310171E1,-4.888648261E0,1.690891137E1
7.657010000E0,-3.323909379E0,-1.106729638E1,-5.560455333E0,1.282388733E1
7.667012000E0,-1.262236250E0,-8.263019112E0,-5.466644944E0,9.987739090E0
7.677015000E0,-1.556156339E0,-7.129675521E0,-4.449490791E0,8.547038311E0
7.687017000E0,-1.971927578E0,-5.628384191E0,-1.496990264E0,6.148836218E0
7.697019000E0,-2.126395667E0,-3.444356174E0,3.262728792E-1,4.060985346E0
7.707022000E0,-2.576942198E0,-1.347666848E0,7.312486964E-1,2.998593284E0
7.717024000E0,-3.075231391E0,5.776072580E-1,8.896432634E-1,3.253020656E0
7.727027000E0,-2.573928250E0,2.284555687E0,1.643755231E0,3.813952358E0
7.737029000E0,-1.407739095E0,3.873566362E0,2.953220465E0,5.070281731E0
7.747031000E0,-1.413231093E-1,4.947739053E0,3.465745289E0,6.042473365E0
7.757034000E0,1.572487028E0,5.786628558E0,3.575284104E0,6.981435522E0
7.767036000E0,2.972225670E0,6.627694981E0,3.630934979E0,8.120600656E0
7.777039000E0,3.337108591E0,7.538130432E0,3.579507548E0,8.987356588E0
7.787041000E0,3.200324091E0,8.494760640E0,3.342551472E0,9.673452484E0
7.797043000E0,3.083620683E0,9.179298270E0,2.810093490E0,1.008289932E1
7.807046000E0,3.044123911E0,9.299946794E0,2.074007392E0,1.000285996E1
7.817048000E0,2.852809739E0,8.550530214E0,1.155085877E0,9.087591195E0
7.827051000E0,2.501058202E0,7.198332358E0,4.952533185E-1,7.636527792E0
7.837053000E0,2.456776361E0,5.895167499E0,7.590603930E-1,6.431556779E0
7.847056000E0,2.892058005E0,4.651330243E0,1.331990463E0,5.636760695E0
7.857058000E0,3.434473503E0,3.346237557E0,8.392239654E-1,4.867978111E0
7.867060000E0,2.791384154E0,2.072457880E0,-6.434681755E-2,3.477218381E0
7.877063000E0,1.498384387E0,1.094467208E0,-5.462731987E-1,1.934277293E0
7.887065000E0,2.569933140E-1,4.104891568E-1,-7.028253812E-1,8.535282232E-1
7.897068000E0,-1.109409767E0,-3.658860111E-1,-6.291048557E-1,1.326814050E0
7.907070000E0,-2.278636551E0,-8.181839293E-1,-5.164693558E-1,2.475550458E0
7.917072000E0,-2.417970730E0,-6.388433933E-1,-4.289610958E-1,2.537461518E0
7.927075000E0,-1.747387480E0,-2.914345837E-1,-7.142545681E-2,1.772963259E0
7.937077000E0,-9.347095817E-1,-3.196906686E-1,4.269765143E-1,1.076193788E0
7.947080000E0,-2.700285119E-1,-6.295726329E-1,3.849765490E-1,7.858015275E-1
7.957082000E0,3.012514740E-1,-1.033401811E0,5.789876394E-3,1.076431733E0
7.967084000E0,7.722096115E-1,-1.515248634E0,-2.711786592E-1,1.722156779E0
7.977087000E0,9.531911686E-1,-1.969334630E0,-3.264517310E-1,2.212108276E0
7.987089000E0,9.400641695E-1,-2.074542412E0,-1.031449207E-1,2.279931082E0
7.997092000E0,9.314994603E-1,-1.871366871E0,4.613499928E-1,2.140688914E0
8.007094000E0,9.590775606E-1,-1.741455188E0,8.777747313E-1,2.173242834E0
8.017095750E0,8.149793628E-1,-1.795882825E0,9.460911870E-1,2.187344284E0
8.027098750E0,4.348498267E-1,-1.906394616E0,2.387891775E-1,1.969887072E0
8.037100750E0,9.549087882E-3,-1.837041961E0,-2.182011312E-1,1.849980023E0
8.047103750E0,8.572018147E-3,-1.589656207E0,-1.703065878E-1,1.598775991E0
8.057105750E0,2.380688006E-1,-1.254030122E0,1.533077817E-2,1.276520009E0
8.067107750E0,4.092372680E-1,-8.006797045E-1,3.032196468E-1,9.489495693E-1
8.077110750E0,4.560740501E-1,-3.510843694E-1,4.028784575E-1,7.025488062E-1
8.087112750E0,5.218350533E-1,1.382147294E-1,2.843349310E-1,6.101323522E-1
8.097115750E0,6.246484002E-1,6.287885213E-1,1.564077562E-1,9.000133414E-1
8.107117750E0,6.463596967E-1,1.001285979E0,7.571325660E-2,1.194188832E0
8.117119750E0,4.605240735E-1,1.250361578E0,9.926061530E-2,1.336165846E0
8.127122750E0,1.509134200E-1,1.292987781E0,2.697589552E-1,1.329421737E0
8.137124750E0,-2.593766391E-1,1.138327757E0,5.805864143E-1,1.303896816E0
8.147127750E0,-5.805048457E-1,9.418782681E-1,8.137950093E-1,1.373456539E0
8.157129750E0,-7.715547234E-1,8.559855938E-1,9.724416643E-1,1.507862997E0
8.167132750E0,-8.586995789E-1,9.386587912E-1,8.949841833E-1,1.555455554E0
8.177134750E0,-8.695751077E-1,1.234363012E0,6.319512802E-1,1.636818662E0
8.187136750E0,-6.780080438E-1,1.559177595E0,3.453832976E-1,1.734940720E0
8.197139750E0,-4.367183045E-1,1.760142304E0,1.107749158E-1,1.816891546E0
8.207141750E0,-3.240512297E-1,1.803186582E0,2.371689141E-2,1.832226389E0
8.217144750E0,-3.943914798E-1,1.756807052E0,5.753890436E-2,1.801451188E0
8.227146750E0,-5.683011219E-1,1.687810493E0,1.364669601E-1,1.786139316E0
8.237148750E0,-7.902102649E-1,1.658160431E0,2.791513743E-1,1.857916513E0
8.247151750E0,-9.427857560E-1,1.793770226E0,2.666382962E-1,2.043906208E0
8.257153750E0,-9.616389334E-1,2.063112860E0,-6.145716012E-2,2.277050964E0
8.267156750E0,-8.995549518E-1,2.407985732E0,-6.805743867E-1,2.659093058E0
8.277158750E0,-7.288276568E-1,2.911062040E0,-1.143825382E0,3.211511865E0
8.287160750E0,-5.318244365E-1,3.327730535E0,-1.423794672E0,3.658390221E0
8.297163750E0,-1.017479843E-1,3.920672700E0,-1.698010960E0,4.273788518E0
8.307165750E0,7.113786882E-1,4.726212026E0,-2.157420262E0,5.243815590E0
8.317168750E0,1.583360510E0,5.545563059E0,-2.640468687E0,6.342899577E0
8.327170750E0,2.605437434E0,6.587166760E0,-2.662085259E0,7.567414887E0
8.337172750E0,3.854831006E0,7.816358494E0,-2.166010260E0,8.980355374E0
8.347175750E0,5.267373004E0,8.774588501E0,-1.427981864E0,1.033333218E1
8.357177750E0,5.987124320E0,9.121439486E0,6.585192740E-2,1.091103352E1
8.367180750E0,4.971060673E0,8.757292437E0,1.441651484E0,1.017251071E1
8.377182750E0,3.566634610E0,8.052635708E0,2.538015821E0,9.165552280E0
8.387184750E0,2.054509705E0,7.032785988E0,4.009801224E0,8.352220947E0
8.397187750E0,1.238427850E0,5.014934671E0,5.717090546E0,7.705089072E0
8.407189750E0,1.129750330E0,1.373780513E0,5.954686307E0,6.214651858E0
8.417192750E0,8.881992204E-1,-3.465312011E0,5.814516853E0,6.826850769E0
8.427194750E0,7.648497212E-1,-8.839997794E0,3.867992796E0,9.679458888E0
8.437196750E0,2.624767452E0,-1.386862138E1,-1.362268223E0,1.418040331E1
8.447199750E0,3.507647898E0,-1.770836511E1,-4.932333394E0,1.871410434E1
8.457201750E0,1.776655280E0,-1.884527550E1,-3.768975461E0,1.930041680E1
8.467204750E0,-1.032750870E0,-1.712331142E1,5.437691286E-1,1.716304324E1
8.477206750E0,-3.848805742E0,-1.510339662E1,4.405639597E0,1.619677608E1
8.487208750E0,-4.909646782E0,-1.341014588E1,8.044688172E0,1.639065746E1
8.497211750E0,-4.070269912E0,-1.376613957E1,9.134051930E0,1.701483472E1
8.507213750E0,-3.269975247E0,-1.506255616E1,7.757838975E0,1.725564840E1
8.517216750E0,-3.506826657E0,-1.636222146E1,5.893530278E0,1.774130276E1
8.527218750E0,-4.055589600E0,-1.746414094E1,4.745822125E0,1.854634340E1
8.537220750E0,-5.023996686E0,-1.836067113E1,4.117526524E0,1.947585202E1
8.547223750E0,-6.009934309E0,-1.855231479E1,3.179805334E0,1.975901963E1
8.557225750E0,-6.426672385E0,-1.792283396E1,2.328383931E0,1.918206107E1
8.567228750E0,-5.945709661E0,-1.656715701E1,1.811194344E0,1.769470485E1
8.577230750E0,-4.830468466E0,-1.487804259E1,1.961136834E0,1.576501299E1
8.587232750E0,-3.310749051E0,-1.351005725E1,2.071497767E0,1.406320765E1
8.597235750E0,-1.844503885E0,-1.201610301E1,1.133487432E0,1.220957493E1
8.607237750E0,-1.003602938E0,-9.848997420E0,-7.622348464E-1,9.929298616E0
8.617240750E0,-1.525433899E0,-6.941746595E0,-2.689633831E0,7.599271314E0
8.627242750E0,-2.339980567E0,-3.088344941E0,-3.337573738E0,5.113979075E0
8.637244750E0,-2.254338446E0,7.029294616E-1,-3.085258196E0,3.885224549E0
8.647247750E0,-1.411330163E0,4.184523629E0,-2.070788500E0,4.877525586E0
8.657249750E0,-4.859828505E-1,7.232320468E0,-1.120311316E0,7.334694004E0
8.667252750E0,-3.968730381E-1,9.236478192E0,-1.564692689E0,9.376475927E0
8.677254750E0,-4.192702129E-1,9.992802672E0,-2.669829311E0,1.035180570E1
8.687257750E0,1.953332555E-1,1.038327856E1,-3.065358367E0,1.082806773E1
8.697259750E0,1.441891220E0,1.189093517E1,-2.197245648E0,1.217790122E1
8.707261750E0,2.763404935E0,1.381005216E1,8.459276520E-2,1.408407269E1
8.717264750E0,3.779520330E0,1.542760719E1,1.370838779E0,1.594286789E1
8.727266750E0,3.735832858E0,1.606028528E1,1.774748210E0,1.658429804E1
8.737268750E0,2.854670615E0,1.623339444E1,2.692861494E0,1.670101022E1
8.747271750E0,2.685245495E0,1.631267683E1,4.702672305E0,1.718805095E1
8.757273750E0,4.202013528E0,1.521421656E1,6.991387117E0,1.726293130E1
8.767276750E0,4.982531741E0,1.258327591E1,2.242475177E0,1.371835085E1
8.777278750E0,5.270246326E0,1.144965282E1,2.666668307E0,1.288336780E1
8.787281750E0,6.411953189E0,1.181945296E1,7.838714154E0,1.556464107E1
8.797283750E0,7.012904871E0,1.213463309E1,6.162115113E0,1.531018673E1
8.807285750E0,7.343108833E0,1.263277961E1,4.856210833E0,1.539776450E1
8.817288750E0,7.409174184E0,1.235760145E1,2.629559537E0,1.464652720E1
8.827290750E0,6.719721385E0,1.193671770E1,-1.845580065E-1,1.369941410E1
8.837293750E0,5.363359727E0,1.165801251E1,-1.636144495E0,1.293645438E1
8.847295750E0,3.861517297E0,1.113372308E1,-1.868839120E0,1.193162458E1
8.857297750E0,2.434720956E0,9.882196741E0,-2.277744266E0,1.042946775E1
8.867300750E0,1.084936246E0,8.154326974E0,-2.106831322E0,8.491694370E0
8.877302750E0,1.027838185E-1,6.380288762E0,-9.276760391E-1,6.448196029E0
8.887305750E0,-4.792722934E-1,4.721145998E0,4.956381019E-1,4.771224014E0
8.897307750E0,-8.008820182E-1,3.532014123E0,1.274584254E0,3.839414121E0
8.907309750E0,-1.824222233E0,3.140269970E0,5.548703599E-1,3.673821356E0
8.917312750E0,-1.930985667E0,3.792955477E0,-6.396245813E-1,4.303990765E0
8.927314750E0,-1.699015220E0,4.512132597E0,-2.267847269E0,5.328144567E0
8.937317750E0,-1.667815646E0,5.264904894E0,-3.510089403E0,6.543818472E0
8.947319750E0,-1.639326550E0,6.162947171E0,-3.094222562E0,7.088266547E0
8.957321750E0,-1.242075197E0,7.415454093E0,-1.592055320E0,7.685463574E0
8.967324750E0,-1.633527866E-1,8.777565903E0,-4.475692749E-1,8.790487220E0
8.977326750E0,1.132800969E0,1.012754591E1,5.084762120E-1,1.020338043E1
8.987329750E0,1.861532147E0,1.136448696E1,1.669068997E0,1.163626474E1
8.997331750E0,2.271067330E0,1.235172968E1,2.430703919E0,1.279184484E1
9.007333750E0,2.804342461E0,1.287698506E1,1.866281548E0,1.331030006E1
9.017336167E0,4.511869765E0,1.335982123E1,3.476784832E0,1.452342332E1
9.027338167E0,6.334369993E0,1.352930395E1,8.964969749E0,1.742231303E1
9.037341167E0,9.199968762E0,1.156475877E1,1.370546185E1,2.015496850E1
9.047343167E0,1.101140401E1,6.087481252E0,1.587472389E1,2.025624113E1
9.057345167E0,3.880525133E0,-2.072366663E0,1.263653703E1,1.338040534E1
9.067348167E0,-1.157880963E1,-1.666260930E1,6.707140515E0,2.137047297E1
9.077350167E0,-3.131886349E1,-6.073450975E1,4.561324638E0,6.848618523E1
9.087353167E0,-1.103609680E1,-7.597338753E1,-1.503961870E1,7.823005289E1
9.097355167E0,1.411626266E1,-2.484307450E1,-2.749685203E1,3.965506391E1
9.107357167E0,6.522847388E0,-5.082285824E0,-1.666784958E1,1.860629938E1
9.117360167E0,1.817951679E0,-4.236096071E0,-8.103131385E-1,4.680391609E0
9.127362167E0,-1.575374967E0,-7.546510661E0,1.224322173E1,1.446817569E1
9.137365167E0,-3.755737657E0,-1.191758678E1,1.869540786E1,2.248672308E1
9.147367167E0,-6.594200960E0,-1.394573563E1,1.111519677E1,1.901353801E1
9.157369167E0,-6.851908219E0,-1.212668087E1,2.279275067E0,1.411382762E1
9.167372167E0,-1.905322822E0,-8.686557500E0,-9.693186665E-1,8.945731660E0
9.177374167E0,6.962446323E-1,-8.161236629E0,-1.684855164E0,8.362372679E0
9.187377167E0,1.024851428E0,-6.684436947E0,3.282369590E-1,6.770506424E0
9.197379167E0,9.975639340E-1,-5.235553041E0,1.683215020E0,5.589218394E0
9.207381167E0,5.526133347E-1,-3.792926826E0,6.811303107E-1,3.893021180E0
9.217384167E0,-2.251116630E-1,-2.956025375E0,-9.502358396E-1,3.113151045E0
9.227386167E0,-8.309542483E-1,-2.825993239E0,-2.813001895E0,4.073045839E0
9.237389167E0,-1.000421468E0,-2.466992909E0,-4.490262256E0,5.220091211E0
9.247391167E0,-1.089516370E0,-1.307791761E0,-4.602518857E0,4.907193193E0
9.257393167E0,-9.818843329E-1,3.422398710E-1,-2.959531950E0,3.136886089E0
9.267396167E0,-9.262805280E-1,1.626084360E0,-4.557946263E-1,1.926108695E0
9.277398167E0,-6.897217709E-1,2.696387365E0,2.057018892E0,3.460859382E0
9.287401167E0,-1.470411015E-1,3.241583506E0,3.781841090E0,4.983152290E0
9.297403167E0,6.080282745E-1,3.509799381E0,5.037421893E0,6.169603667E0
9.307405167E0,1.213164808E0,3.839423300E0,5.443802211E0,6.771109410E0
9.317408167E0,1.474331865E0,4.107878326E0,4.582879813E0,6.328594328E0
9.327410167E0,1.498198153E0,4.140491171E0,3.092687668E0,5.380797511E0
9.337413167E0,1.180984072E0,4.011475282E0,1.868283049E0,4.580080662E0
9.347415167E0,9.405556279E-1,3.825400507E0,5.574600186E-1,3.978579596E0
9.357417167E0,9.829681143E-1,3.683588571E0,-7.870352999E-1,3.892874983E0
9.367420167E0,1.581478876E0,3.325682840E0,-1.826746622E0,4.110747500E0
9.377422167E0,1.809950349E0,2.756076327E0,-2.559350265E0,4.173984998E0
9.387425167E0,1.403945130E0,2.114122800E0,-2.414976663E0,3.503239846E0
9.397427167E0,8.014386731E-1,1.489091699E0,-1.672048153E0,2.378117546E0
9.407429167E0,2.589951083E-1,7.167739141E-1,-4.679895792E-1,8.943475590E-1
9.417432167E0,-1.583370450E-1,-3.267581981E-1,7.691660627E-1,8.505633262E-1
9.427434167E0,-3.266599649E-1,-1.175575690E0,1.277892024E0,1.766831333E0
9.437437167E0,7.853395343E-3,-1.363542624E0,9.707926764E-1,1.673842461E0
9.447439167E0,5.316039965E-1,-8.736506170E-1,4.681104704E-1,1.124720242E0
9.457441167E0,9.279092699E-1,3.409277558E-2,3.571111677E-1,9.948398447E-1
9.467444167E0,1.214793258E0,9.013822067E-1,5.411234828E-1,1.606557551E0
9.477446167E0,1.283534879E0,1.523566298E0,9.564600545E-1,2.209871464E0
9.487449167E0,1.205524252E0,1.778592609E0,1.423090668E0,2.577182073E0
9.497451167E0,1.000813524E0,1.739526776E0,1.688910354E0,2.622975276E0
9.507453167E0,8.139429438E-1,1.498435550E0,1.718400201E0,2.420890634E0
9.517456167E0,6.309806424E-1,1.188312680E0,1.503652436E0,2.017720061E0
9.527458167E0,6.565215728E-1,8.332896262E-1,1.029485931E0,1.478253516E0
9.537461167E0,9.150541663E-1,3.388303596E-1,4.245201355E-1,1.064118173E0
9.547463167E0,1.221129593E0,-2.829479349E-1,-1.814152012E-1,1.266541943E0
9.557465167E0,1.551570953E0,-6.900188094E-1,-6.254485917E-1,1.809608886E0
9.567468167E0,1.997472017E0,-8.800141418E-1,-6.393111706E-1,2.274431384E0
9.577470167E0,2.356470008E0,-1.057819199E0,-3.101271088E-1,2.601559375E0
9.587473167E0,2.415832695E0,-1.333390871E0,-4.404364027E-2,2.759731630E0
9.597475167E0,2.202138013E0,-1.534321082E0,-4.116960222E-1,2.715335454E0
9.607477167E0,1.857803962E0,-1.342799626E0,-8.245170486E-1,2.436057216E0
9.617480167E0,1.303760398E0,-6.595904839E-1,-8.150766458E-1,1.673081206E0
9.627482167E0,6.667907453E-1,3.053316611E-1,-5.381344593E-1,9.096296046E-1
9.637485167E0,2.485967124E-1,1.028643932E0,-7.614997052E-2,1.060993629E0
9.647487167E0,8.335059732E-2,1.422258609E0,6.116187572E-1,1.550433609E0
9.657489167E0,8.537694991E-2,1.577342556E0,1.178132605E0,1.970607824E0
9.667492167E0,6.889452606E-2,1.614203403E0,1.357234647E0,2.110091223E0
9.677494167E0,1.094250861E-1,1.694663429E0,1.291911308E0,2.133750880E0
9.687497167E0,3.751567715E-1,2.002910512E0,1.137705613E0,2.333831010E0
9.697499167E0,6.556810355E-1,2.682242365E0,1.164406266E0,2.996695460E0
9.707501167E0,8.778784463E-1,3.833395405E0,1.358050334E0,4.160515787E0
9.717504167E0,1.029573347E0,5.338644716E0,1.634901962E0,5.677504126E0
9.727506167E0,1.196913642E0,6.751177066E0,2.366772217E0,7.253454678E0
9.737509167E0,1.436445708E0,7.827951184E0,3.526373899E0,8.704912917E0
9.747511167E0,1.589924302E0,8.526350223E0,4.562333282E0,9.800071040E0
9.757513167E0,1.403779361E0,8.571755022E0,5.466649037E0,1.026303232E1
9.767516167E0,9.441332468E-1,7.872509306E0,6.023700993E0,9.957548093E0
9.777518167E0,5.079628265E-1,6.928245374E0,6.721144012E0,9.666042987E0
9.787521167E0,5.318142039E-1,5.357314875E0,6.552779869E0,8.480717719E0
9.797523167E0,2.089325635E-1,3.225648090E0,6.137175568E0,6.936381072E0
9.807525167E0,-4.989130908E-1,6.538280529E-1,4.742832152E0,4.813612179E0
9.817528167E0,-1.619332873E0,-2.352705570E0,1.787994347E0,3.369627018E0
9.827530167E0,-1.947382429E0,-5.028121896E0,-2.242972921E0,5.839968806E0
9.837533167E0,-1.649364757E0,-7.185441586E0,-5.427662142E0,9.154807001E0
9.847535167E0,-1.317788307E0,-9.340343453E0,-7.001919706E0,1.174757258E1
9.857537167E0,-2.937502272E-1,-1.095662028E1,-7.238918467E0,1.313528674E1
9.867540167E0,5.837947816E-1,-1.180780063E1,-5.584270458E0,1.307474851E1
9.877542167E0,-4.526051894E-2,-1.273120345E1,-2.628967214E0,1.299988686E1
9.887545167E0,-1.606172837E0,-1.355171282E1,3.429017758E-1,1.365087151E1
9.897547167E0,-2.739561451E0,-1.377000107E1,2.190404990E0,1.420971500E1
9.907549167E0,-2.422572927E0,-1.389012159E1,2.473897301E0,1.431518443E1
9.917552167E0,-1.582988919E0,-1.522878081E1,2.789993686E0,1.556295870E1
9.927554167E0,4.949606654E-1,-1.746670436E1,2.780667962E0,1.769358250E1
9.937557167E0,3.086180594E0,-1.935827278E1,2.659080375E0,1.978226337E1
9.947559167E0,3.683584186E0,-2.084540800E1,3.531144935E0,2.146086698E1
9.957561167E0,3.045989757E0,-2.171367275E1,4.211551799E0,2.232708683E1
9.967564167E0,1.802547920E0,-2.181155514E1,4.027312465E0,2.225336744E1
9.977566167E0,4.319471227E-1,-2.040388709E1,3.620863150E0,2.072717628E1
9.987569167E0,-1.650472220E0,-1.841514379E1,3.391466939E0,1.879743673E1
9.997571167E0,-4.262185763E0,-1.635952005E1,2.933442258E0,1.715824021E1
1.000757317E1,-6.900505013E0,-1.383408422E1,2.731286471E0,1.569900574E1
1.001757700E1,-7.921852205E0,-1.001936540E1,1.359270063E0,1.284488383E1
1.002757900E1,-8.006357335E0,-5.481086982E0,-1.453643539E0,9.811072919E0
1.003758200E1,-6.121486319E0,-5.700766289E-1,-2.640960438E0,6.691207227E0
1.004758400E1,-2.917189630E0,4.143577917E0,-8.052726924E-1,5.131052270E0
1.005758600E1,-9.668528956E-1,7.053711419E0,9.992938328E-1,7.189453211E0
1.006758900E1,-2.124319759E-1,8.660049732E0,1.172619411E0,8.741660311E0
1.007759100E1,4.480113244E-1,1.003083413E1,1.419959045E0,1.014074116E1
1.008759400E1,1.804211015E0,1.189281447E1,2.317018698E0,1.225001180E1
1.009759600E1,2.301648268E0,1.386379275E1,2.558858514E0,1.428461029E1
1.010759800E1,2.069269685E0,1.570783851E1,2.522611624E0,1.604311806E1
1.011760100E1,2.450228357E0,1.753159676E1,3.605473863E0,1.806543511E1
1.012760300E1,2.407422937E0,1.848127346E1,4.391807424E0,1.914787525E1
1.013760500E1,1.737238761E0,1.767653638E1,1.193195544E0,1.780173172E1
1.014760800E1,7.692029732E-1,1.708129801E1,-2.006698631E0,1.721595929E1
1.015761000E1,9.606466609E-1,1.653232983E1,1.324584672E0,1.661310615E1
1.016761300E1,2.095532162E0,1.448906476E1,7.488246081E0,1.644378551E1
1.017761500E1,3.903776586E0,1.306099343E1,1.104556578E1,1.754518579E1
1.018761800E1,5.942775528E0,1.327127685E1,1.042115800E1,1.788977094E1
1.019762000E1,6.966500198E0,1.355651689E1,8.321592425E0,1.736548806E1
1.020762200E1,6.939348067E0,1.293121331E1,5.027184588E0,1.551268559E1
1.021762500E1,7.212538168E0,1.210771952E1,2.641133516E0,1.433852033E1
1.022762700E1,6.454334393E0,1.232368760E1,-5.869951089E-1,1.392394599E1
1.023762900E1,4.634561891E0,1.233483240E1,-1.925749923E0,1.331674761E1
1.024763200E1,2.978493008E0,1.110446362E1,-9.391376781E-1,1.153527253E1
1.025763400E1,1.479263991E0,9.292991531E0,7.318111986E-2,9.410274652E0
1.026763700E1,-1.263185692E-1,7.143772573E0,-1.375219806E-1,7.146212651E0
1.027763900E1,-1.091743575E0,5.398097450E0,-3.946182787E-1,5.521510998E0
1.028764100E1,-1.166501689E0,3.994335923E0,-6.815328185E-1,4.216625741E0
1.029764400E1,-4.337052342E-1,3.302011557E0,-1.255448656E0,3.559147634E0
1.030764600E1,1.110295621E0,3.451830086E0,-2.095091282E0,4.187755340E0
1.031764900E1,2.640015236E0,4.244562839E0,-2.763604617E0,5.711698926E0
1.032765100E1,2.980664664E0,5.298208880E0,-3.727708737E0,7.131002146E0
1.033765300E1,2.757479951E0,6.709678207E0,-5.006464394E0,8.814088895E0
1.034765600E1,2.786676853E0,7.965477696E0,-5.201817530E0,9.913289486E0
1.035765800E1,2.686168186E0,8.800518563E0,-4.320280774E0,1.016510957E1
1.036766100E1,2.899694761E0,9.698290699E0,-2.836484313E0,1.051240769E1
1.037766300E1,3.442373384E0,1.048443890E1,-4.496777078E-1,1.104425659E1
1.038766500E1,3.871083634E0,1.139901360E1,1.044215725E0,1.208359160E1
1.039766800E1,3.971866243E0,1.246120710E1,1.403133097E0,1.315394185E1
1.040767000E1,3.678396243E0,1.349876862E1,2.250405024E0,1.417080364E1
1.041767300E1,3.504783055E0,1.382312654E1,3.063415922E0,1.458584412E1
1.042767500E1,3.302134348E0,1.336291792E1,5.069118479E0,1.466859328E1
1.043767700E1,3.699554978E0,1.220161411E1,9.484908843E0,1.589117962E1
1.044768000E1,6.609299641E0,9.587129867E0,1.104411918E1,1.604893982E1
1.045768200E1,5.628140363E0,2.805053775E0,1.083408954E1,1.252684265E1
1.046768500E1,-8.493149148E0,-1.178310784E1,1.398252280E1,2.016150185E1
1.047768700E1,-3.438633388E1,-5.456300752E1,1.942540583E1,6.735642611E1
1.048768900E1,-2.181195743E1,-8.192967948E1,-1.072609731E1,8.545924777E1
1.049769200E1,1.872739096E1,-2.981121975E1,-3.308983777E1,4.831522905E1
1.050769400E1,4.808899841E0,-6.627988511E0,-2.031206007E1,2.190058296E1
1.051769700E1,1.190913083E0,-5.553603566E0,3.979082876E0,6.934975636E0
1.052769900E1,1.492688906E-1,-1.021003024E1,2.013332005E1,2.257471096E1
1.053770100E1,-5.675360722E0,-1.579414224E1,2.000671613E1,2.611385339E1
1.054770400E1,-7.358646054E0,-1.618506018E1,1.072296320E1,2.076265360E1
1.055770600E1,-2.516791013E0,-1.362471414E1,8.384718673E-1,1.388056582E1
1.056770900E1,-7.979015462E-1,-1.300952975E1,-2.934431607E0,1.336021706E1
1.057771100E1,-1.946930000E0,-1.167653766E1,-3.207418810E0,1.226456699E1
1.058771300E1,-1.235421650E-1,-8.415633194E0,-2.830426598E0,8.879721812E0
1.059771600E1,6.926699370E-1,-7.123965715E0,-2.939761344E0,7.737756517E0
1.060771800E1,-4.425270747E-1,-6.342767764E0,-2.210587240E0,6.731510162E0
1.061772100E1,-1.237747965E0,-4.534370728E0,2.011423181E-1,4.704571835E0
1.062772300E1,-1.892938419E0,-2.379958273E0,1.244781581E0,3.285863421E0
1.063772500E1,-2.510316099E0,-4.357245702E-1,1.655499948E0,3.038457322E0
1.064772800E1,-2.784079227E0,1.053153121E0,2.886573901E0,4.146388492E0
1.065773000E1,-2.477246878E0,2.126325939E0,3.696695105E0,4.931893023E0
1.066773300E1,-1.859461355E0,3.033714405E0,3.207275553E0,4.790369098E0
1.067773500E1,-1.116517204E0,3.732947257E0,2.401060874E0,4.576745483E0
1.068773700E1,-1.405372435E-1,4.363512747E0,1.803228682E0,4.723518592E0
1.069774000E1,8.880143023E-1,4.918288382E0,1.348227596E0,5.176470580E0
1.070774200E1,1.719833354E0,5.425277063E0,7.552707394E-1,5.741244801E0
1.071774500E1,2.155249483E0,5.660168486E0,-2.174637973E-1,6.060519625E0
1.072774700E1,2.387766937E0,5.561359897E0,-5.870552621E-1,6.080689824E0
1.073774900E1,2.620752169E0,5.253951305E0,-4.353725678E-1,5.887435394E0
1.074775200E1,2.709537753E0,4.872680685E0,-3.049276916E-1,5.583689890E0
1.075775400E1,2.530124711E0,4.389935730E0,-2.448422883E-1,5.072771877E0
1.076775700E1,2.343627476E0,3.980749918E0,-3.286286493E-1,4.631085881E0
1.077775900E1,2.212241710E0,3.475065166E0,2.510607290E-1,4.127120398E0
1.078776100E1,2.078797139E0,2.923636478E0,1.071518567E0,3.743955106E0
1.079776400E1,1.890791029E0,2.274504324E0,1.278453941E0,3.222251560E0
1.080776600E1,1.624132268E0,1.509919481E0,9.281232780E-1,2.403970732E0
1.081776900E1,1.057110224E0,6.227857697E-1,3.838766512E-1,1.285575911E0
1.082777100E1,4.478809315E-1,-2.516208923E-1,-2.712998427E-2,5.144379829E-1
1.083777300E1,-1.061544460E-1,-8.331329209E-1,-3.279100996E-1,9.016120361E-1
1.084777600E1,-4.950746861E-1,-7.800594985E-1,-8.433105844E-1,1.250905475E0
1.085777800E1,-6.498282650E-1,-2.032597411E-1,-1.292630516E0,1.460987661E0
1.086778100E1,-4.249016663E-1,3.616608131E-1,-1.338018212E0,1.449700902E0
1.087778300E1,-1.732003748E-1,5.584026629E-1,-1.072714981E0,1.221691178E0
1.088778500E1,1.462985051E-1,4.611932874E-1,-5.837969743E-1,7.582357207E-1
1.089778800E1,6.364615300E-1,8.585349798E-2,-1.059034543E-1,6.508991043E-1
1.090779000E1,1.045088056E0,-4.802277285E-1,2.230502272E-1,1.171571219E0
1.091779300E1,1.152733542E0,-1.171778508E0,4.337610751E-1,1.700002401E0
1.092779500E1,1.047513189E0,-1.904572624E0,3.768097063E-1,2.206052202E0
1.093779700E1,7.368968144E-1,-2.526651465E0,-4.128602028E-2,2.632240315E0
1.094780000E1,4.567225063E-1,-2.702346262E0,-5.716730650E-1,2.799657276E0
1.095780200E1,3.805642766E-1,-2.326532848E0,-8.604016303E-1,2.509556779E0
1.096780500E1,4.668098304E-1,-1.622812843E0,-8.424696086E-1,1.887111015E0
1.097780700E1,5.758218107E-1,-9.133806932E-1,-6.304005986E-1,1.250295950E0
1.098780900E1,6.847835049E-1,-5.049713910E-1,-2.400900368E-1,8.840632218E-1
1.099781200E1,8.637243837E-1,-3.425152749E-1,1.869514181E-1,9.477802262E-1
1.100781400E1,9.206005427E-1,-2.521880722E-1,5.202361321E-1,1.087083169E0
1.101781667E1,7.775411028E-1,-1.939638376E-1,6.307841760E-1,1.019843524E0
1.102781867E1,5.548764995E-1,-1.200749123E-1,7.380437458E-1,9.311361259E-1
1.103782067E1,2.084605470E-1,-2.974537075E-2,7.280017376E-1,7.578437284E-1
1.104782367E1,-9.983886838E-2,6.618463397E-2,5.699984224E-1,5.824486303E-1
1.105782567E1,-2.951335323E-1,2.225824499E-1,4.280366510E-1,5.655635451E-1
1.106782867E1,-4.970577693E-1,4.174438351E-1,2.841929533E-1,7.085840925E-1
1.107783067E1,-5.751704308E-1,6.103376323E-1,1.242761368E-1,8.478075301E-1
1.108783267E1,-5.195695496E-1,8.301970339E-1,-5.032932401E-2,9.806695023E-1
1.109783567E1,-4.889903659E-1,1.120197880E0,-1.831207609E-1,1.235915888E0
1.110783767E1,-3.686511594E-1,1.426901883E0,-1.708731830E-1,1.483627415E0
1.111783967E1,-2.619038057E-1,1.725784650E0,-1.108051752E-1,1.749058046E0
1.112784267E1,-1.401355398E-1,2.003254328E0,-2.243225813E-1,2.020640120E0
1.113784467E1,-1.687447965E-2,2.333201013E0,-5.372911446E-1,2.394325268E0
1.114784767E1,-5.234427452E-2,2.934082528E0,-4.283968395E-1,2.965654069E0
1.115784967E1,1.977484480E-1,3.842463852E0,-4.504963911E-1,3.873832715E0
1.116785267E1,6.524156579E-1,4.900195928E0,-4.572757260E-1,4.964541007E0
1.117785467E1,1.010021719E0,5.915659651E0,-1.690031704E-1,6.003643481E0
1.118785667E1,1.737659468E0,6.959228016E0,7.302260184E-1,7.209961514E0
1.119785967E1,2.966616436E0,7.992364948E0,2.497886673E0,8.883588710E0
1.120786167E1,4.642134620E0,8.935701512E0,3.885349086E0,1.079315120E1
1.121786367E1,6.655848155E0,8.986308578E0,3.743531302E0,1.179271314E1
1.122786667E1,8.025390022E0,8.156377008E0,2.439294063E0,1.169972335E1
1.123786867E1,9.002664410E0,7.242909191E0,1.389230611E0,1.163776876E1
1.124787167E1,8.756707715E0,6.276349826E0,1.214766215E0,1.084196265E1
1.125787367E1,5.824710304E0,4.548688220E0,6.071772122E-1,7.415286833E0
1.126787567E1,2.664771177E0,2.086854894E0,-5.808996789E-1,3.434153930E0
1.127787867E1,7.984469453E-1,-1.039660671E0,-9.371684821E-1,1.611426883E0
1.128788067E1,3.397464721E-1,-4.297929792E0,1.614533186E-1,4.314359203E0
1.129788367E1,-1.402728032E-1,-8.094952008E0,3.122581558E0,8.677467375E0
1.130788567E1,-1.276731644E0,-1.178834344E1,4.912893741E0,1.283478124E1
1.131788767E1,-3.460483380E0,-1.338346036E1,4.050837860E0,1.440490346E1
1.132789067E1,-5.237753933E0,-1.256331118E1,3.003787771E0,1.393892374E1
1.133789267E1,-4.751407678E0,-1.143975583E1,1.211475840E0,1.244634734E1
1.134789567E1,-4.544170661E0,-1.195177428E1,-6.673380446E-1,1.280389533E1
1.135789767E1,-5.209910077E0,-1.378678258E1,7.741600965E-1,1.475865376E1
1.136789967E1,-5.779393798E0,-1.560568882E1,3.126710277E0,1.693266764E1
1.137790267E1,-6.708849657E0,-1.690870457E1,4.432220455E0,1.872318168E1
1.138790467E1,-6.867388138E0,-1.772817197E1,5.112432314E0,1.968720562E1
1.139790767E1,-6.375034454E0,-1.817967408E1,4.960595326E0,1.989344414E1
1.140790967E1,-5.524512498E0,-1.890876340E1,4.976826028E0,2.031822750E1
1.141791167E1,-4.049152985E0,-1.882263859E1,5.311563336E0,1.997248278E1
1.142791467E1,-2.886990223E0,-1.808310030E1,5.172718862E0,1.902866914E1
1.143791667E1,-2.071775510E0,-1.698102762E1,3.984410275E0,1.756482502E1
1.144791967E1,-1.793129079E0,-1.601237319E1,2.744391251E0,1.634451255E1
1.145792167E1,-1.812409396E0,-1.479763051E1,2.731093513E0,1.515630458E1
1.146792367E1,-1.925925486E0,-1.259632690E1,2.250285741E0,1.293987736E1
1.147792667E1,-2.279734658E0,-9.475375543E0,9.579364034E-1,9.792730668E0
1.148792867E1,-2.910393119E0,-5.920185980E0,-6.575901514E-1,6.629586334E0
1.149793167E1,-2.439212787E0,-1.968808381E0,-1.791611434E0,3.610517552E0
1.150793367E1,-8.727808437E-1,1.483888847E0,-1.928696482E0,2.585254848E0
1.151793567E1,7.041907060E-1,4.326589335E0,-1.699817165E0,4.701556999E0
1.152793867E1,1.991632987E0,6.458566607E0,-1.102176762E0,6.847954307E0
1.153794067E1,2.710388230E0,7.659304621E0,-6.612581098E-1,8.151589656E0
1.154794367E1,3.167205754E0,8.337216770E0,-5.780055264E-1,8.937251599E0
1.155794567E1,3.787291572E0,9.448110561E0,-6.931943592E-1,1.020249426E1
1.156794767E1,4.406423124E0,1.109622021E1,-2.284775396E-1,1.194130938E1
1.157795067E1,4.688232314E0,1.276200892E1,2.830416365E-1,1.359884210E1
1.158795267E1,4.955695360E0,1.430090954E1,3.092139199E-1,1.513837982E1
1.159795467E1,5.405352091E0,1.556993543E1,-5.948713084E-1,1.649225856E1
1.160795767E1,5.724215963E0,1.643755933E1,-1.105378697E0,1.744081039E1
1.161795967E1,5.708463564E0,1.713109524E1,-9.051225244E-1,1.807982929E1
1.162796267E1,5.708492800E0,1.735671005E1,-2.781391847E-1,1.827346807E1
1.163796467E1,4.640064998E0,1.590827404E1,1.992038930E0,1.669046450E1
1.164796667E1,3.525546518E0,1.363236229E1,5.342096912E0,1.506017196E1
1.165796967E1,2.722205161E0,1.204213481E1,7.400087610E0,1.439391220E1
1.166797167E1,1.977567802E0,1.110465307E1,6.647846825E0,1.309266824E1
1.167797467E1,2.253825061E0,1.115639157E1,5.632248616E0,1.269909543E1
1.168797667E1,2.194975466E0,1.100154210E1,6.144817879E0,1.279103720E1
1.169797867E1,1.853196648E0,1.083420180E1,5.249948301E0,1.218097794E1
1.170798167E1,1.345257795E0,1.082509535E1,2.972434708E0,1.130609464E1
1.171798367E1,5.868970218E-1,1.074736246E1,4.998809512E-1,1.077497698E1
1.172798667E1,1.587138981E-1,1.036625147E1,-2.033903825E0,1.056508989E1
1.173798867E1,-7.215873420E-2,9.693937447E0,-2.287220410E0,9.960371846E0
1.174799067E1,-2.339929989E-1,8.773893267E0,-1.677168560E0,8.935818382E0
1.175799367E1,4.903007269E-2,7.766532031E0,-1.234791613E0,7.864231308E0
1.176799567E1,6.145204380E-1,6.515030830E0,-9.339570451E-1,6.610260044E0
1.177799867E1,6.769230929E-1,5.384734808E0,-7.775346708E-1,5.482531714E0
1.178800067E1,7.205003446E-1,4.980308629E0,-8.899369399E-1,5.110242905E0
1.179800267E1,1.446204419E0,5.477523104E0,-2.037292725E0,6.020409307E0
1.180800567E1,3.189187192E0,6.063126429E0,-3.638407720E0,7.756959957E0
1.181800767E1,4.593729030E0,6.836904264E0,-4.584448621E0,9.426705441E0
1.182801067E1,4.702666166E0,8.035051961E0,-4.049194500E0,1.015249256E1
1.183801267E1,4.816978939E0,9.663602092E0,-2.424960784E0,1.106656795E1
1.184801467E1,4.751819614E0,1.110859643E1,-8.985743006E-1,1.211561555E1
1.185801767E1,4.505288723E0,1.221503464E1,1.767133820E-1,1.302059620E1
1.186801967E1,3.514670112E0,1.292305411E1,9.100115275E-1,1.342335109E1
1.187802267E1,2.999902588E0,1.325939647E1,1.330600580E0,1.365948419E1
1.188802467E1,2.394103857E0,1.371634702E1,2.971915183E0,1.423735189E1
1.189802667E1,1.662391184E0,1.451231212E1,7.490011940E0,1.641557268E1
1.190802967E1,1.963260250E0,1.415514080E1,1.112887574E1,1.811282079E1
1.191803167E1,1.655649345E0,8.714189687E0,9.404947000E0,1.292792732E1
1.192803467E1,-3.724638364E0,1.817080736E-2,2.213952897E0,4.332995332E0
1.193803667E1,-1.158698521E1,-1.708326267E1,3.280852237E0,2.090119808E1
1.194803867E1,-1.773382622E1,-5.751614612E1,9.124165458E0,6.087566059E1
1.195804167E1,4.745050585E0,-8.002374913E1,-1.245620188E1,8.112627747E1
1.196804367E1,1.622695431E1,-2.975434037E1,-3.302277254E1,4.731953427E1
1.197804667E1,-1.551530168E0,-5.616644737E0,-9.816590981E0,1.141575238E1
1.198804867E1,-3.636749742E0,-1.264395481E0,1.221971475E1,1.281195041E1
1.199805067E1,-4.052284169E0,-6.986025220E-1,1.778286799E1,1.825210800E1
1.200805367E1,-6.229471529E0,-3.654587551E0,1.581314920E1,1.738441869E1
1.201805517E1,-4.580695586E0,-5.584959844E0,1.176496627E1,1.380539676E1
1.202805717E1,-2.042016837E0,-8.277481615E0,7.125047450E0,1.111093317E1
1.203806017E1,-1.413548012E0,-1.258097328E1,1.503442374E0,1.274909195E1
1.204806217E1,-4.480996174E-1,-1.109631260E1,-2.460968522E0,1.137476649E1
1.205806517E1,-1.242977276E0,-8.195803614E0,-4.042592702E0,9.222729809E0
1.206806717E1,-2.572116491E0,-7.630428731E0,-3.420583442E0,8.748692299E0
1.207806917E1,-3.589743099E0,-7.121282428E0,-3.716753393E-1,7.983549429E0
1.208807217E1,-4.623053986E0,-6.675602973E0,1.616537027E0,8.279462251E0
1.209807417E1,-4.479635819E0,-5.512649667E0,3.099924767E0,7.750224318E0
1.210807717E1,-3.860504851E0,-4.098363152E0,3.783550816E0,6.783460401E0
1.211807917E1,-2.920381040E0,-3.052472858E0,2.846197123E0,5.093825088E0
1.212808117E1,-1.860326743E0,-2.579367038E0,2.113943290E0,3.818730960E0
1.213808417E1,-7.426257701E-1,-2.099359165E0,1.670663094E0,2.783867294E0
1.214808617E1,7.486424088E-2,-1.563188201E0,7.105969155E-1,1.718752449E0
1.215808917E1,3.967256883E-1,-1.105482777E0,-1.821483690E-1,1.188554362E0
1.216809117E1,6.197732842E-1,-5.940034354E-1,-5.403992321E-1,1.014391608E0
1.217809317E1,8.729518747E-1,8.720654368E-2,-3.709204638E-1,9.524872426E-1
1.218809617E1,9.761583008E-1,1.035035523E0,1.689713761E-2,1.422838387E0
1.219809817E1,9.255398320E-1,1.960075564E0,4.590553991E-1,2.215683203E0
1.220810117E1,7.502932240E-1,2.636493165E0,9.349737297E-1,2.896241014E0
1.221810317E1,3.796814932E-1,3.099203805E0,1.253500364E0,3.364592906E0
1.222810517E1,-3.938684464E-2,3.453325803E0,1.327344266E0,3.699845027E0
1.223810817E1,-2.506218955E-1,3.620932732E0,1.286278978E0,3.850776388E0
1.224811017E1,-1.764280379E-1,3.555561445E0,1.168768947E0,3.746887361E0
1.225811317E1,1.526175910E-1,3.286313537E0,9.902510407E-1,3.435658003E0
1.226811517E1,5.810386965E-1,2.739040464E0,5.711904504E-1,2.857657636E0
1.227811717E1,1.090943529E0,2.083320252E0,1.525005005E-2,2.351725669E0
1.228812017E1,1.837672145E0,1.593630559E0,-3.938713700E-1,2.464108749E0
1.229812217E1,2.364260838E0,1.357507128E0,-8.873265235E-1,2.867037368E0
1.230812517E1,2.362523338E0,1.458103795E0,-1.429336517E0,3.122592846E0
1.231812717E1,2.048560602E0,1.686317114E0,-1.688446670E0,3.145014802E0
1.232812917E1,1.522771954E0,1.711873539E0,-1.335356120E0,2.651890157E0
1.233813217E1,1.038450882E0,1.599450293E0,-4.512746555E-1,1.959660759E0
1.234813417E1,5.707623611E-1,1.469152694E0,4.116603541E-1,1.629000785E0
1.235813717E1,2.101132625E-1,1.385984822E0,1.021536787E0,1.734542855E0
1.236813917E1,1.546290332E-1,1.302599434E0,1.460092433E0,1.962790191E0
1.237814117E1,2.537750065E-1,1.275198796E0,1.729237577E0,2.163514807E0
1.238814417E1,2.389654711E-1,1.262431986E0,1.641539136E0,2.084583832E0
1.239814617E1,1.571820737E-1,1.204663249E0,1.266209141E0,1.754766462E0
1.240814917E1,9.879163206E-2,1.079535173E0,8.202924353E-1,1.359424752E0
1.241815117E1,9.995815158E-2,8.933487171E-1,5.387289018E-1,1.047994462E0
1.242815317E1,1.310111059E-1,5.959148902E-1,2.655248402E-1,6.654185953E-1
1.243815617E1,3.794861962E-1,2.339880288E-1,3.260641336E-2,4.470160499E-1
1.244815817E1,7.312560055E-1,-1.388035440E-1,4.091004431E-2,7.454363830E-1
1.245816117E1,7.754156399E-1,-5.033043498E-1,1.013236226E-1,9.299737413E-1
1.246816317E1,7.102642089E-1,-7.645123369E-1,1.974821073E-1,1.062051572E0
1.247816517E1,5.975988883E-1,-8.187920398E-1,3.427373229E-1,1.070053133E0
1.248816817E1,4.338822587E-1,-8.215747297E-1,2.797612023E-1,9.703118989E-1
1.249817017E1,4.788726363E-1,-9.149869233E-1,1.225307429E-1,1.039968199E0
1.250817317E1,5.662410016E-1,-1.120932291E0,-8.912282243E-2,1.258992037E0
1.251817517E1,6.768562885E-1,-1.433485263E0,-2.382518184E-1,1.603052826E0
1.252817817E1,8.828254831E-1,-1.803612260E0,-2.891879372E-1,2.028799566E0
1.253818017E1,9.868696690E-1,-2.275000167E0,-3.231136286E-1,2.500787860E0
1.254818217E1,8.700604266E-1,-2.656095956E0,-3.603451896E-1,2.818102115E0
1.255818517E1,7.398810871E-1,-2.777362531E0,-4.764024800E-1,2.913438857E0
1.256818717E1,4.948798276E-1,-2.804659672E0,-6.194347304E-1,2.914570518E0
1.257819017E1,-2.044800550E-2,-2.638890524E0,-6.557659663E-1,2.719226052E0
1.258819217E1,-5.302538744E-1,-2.193519802E0,-5.097146523E-1,2.313548642E0
1.259819417E1,-8.398541491E-1,-1.636373706E0,-1.630415685E-1,1.846525508E0
1.260819717E1,-9.906200731E-1,-1.100306822E0,2.999744421E-1,1.510625002E0
1.261819917E1,-1.022625246E0,-6.527088958E-1,6.532228661E-1,1.377857543E0
1.262820217E1,-9.782409328E-1,-1.958706146E-1,7.364749378E-1,1.240046755E0
1.263820417E1,-8.783117250E-1,3.292467731E-1,6.525223696E-1,1.142637461E0
1.264820617E1,-6.667129773E-1,9.856055009E-1,5.339577200E-1,1.304237419E0
1.265820917E1,-2.536723879E-1,1.827799852E0,5.640751199E-1,1.929606882E0
1.266821117E1,1.799463075E-1,2.642863122E0,8.262911669E-1,2.774862744E0
1.267821417E1,5.447520456E-1,3.341513007E0,1.293683015E0,3.624373009E0
1.268821617E1,1.006519530E0,4.066202881E0,1.711043234E0,4.524904020E0
1.269821817E1,1.498632893E0,4.836306326E0,2.047809527E0,5.461619108E0
1.270822117E1,1.795225013E0,5.713510296E0,2.201419390E0,6.380695893E0
1.271822317E1,2.171419081E0,6.510653604E0,2.534058133E0,7.316086509E0
1.272822617E1,2.504110157E0,7.138037624E0,3.625721017E0,8.388563744E0
1.273822817E1,2.897974510E0,8.041299126E0,4.919842572E0,9.862332322E0
1.274823017E1,3.823367138E0,9.184189466E0,6.007384338E0,1.162136563E1
1.275823317E1,5.000628873E0,1.017265601E1,6.252454594E0,1.294536241E1
1.276823517E1,5.415265460E0,1.033977879E1,5.436556926E0,1.287603497E1
1.277823817E1,4.578644090E0,9.745853121E0,4.700529301E0,1.174906849E1
1.278824017E1,3.958924308E0,8.485710905E0,4.380215904E0,1.033763332E1
1.279824317E1,3.867505723E0,6.399018563E0,4.020467130E0,8.489357751E0
1.280824517E1,3.899708678E0,3.574595302E0,3.003346891E0,6.083218876E0
1.281824717E1,3.697287428E0,-8.695376855E-1,1.279095966E0,4.007757053E0
1.282825017E1,1.377393654E0,-6.887352287E0,-3.640242577E-1,7.033160631E0
1.283825217E1,-1.691603581E0,-1.200753333E1,-2.784420705E0,1.244167907E1
1.284825517E1,-3.075129941E0,-1.390796379E1,-4.589568443E0,1.496502654E1
1.285825717E1,-2.135392047E0,-1.269415900E1,-5.152242497E0,1.386532274E1
1.286825917E1,-8.045840366E-1,-1.130023541E1,-4.307998405E0,1.212029398E1
1.287826217E1,-1.869312452E-1,-1.036349509E1,-2.378998160E0,1.063468881E1
1.288826417E1,-1.260272024E0,-1.033960805E1,-3.344958186E-1,1.042150026E1
1.289826717E1,-2.728634759E0,-1.086609836E1,1.593615503E0,1.131623399E1
1.290826917E1,-3.665071024E0,-1.220489908E1,3.030880260E0,1.309879927E1
1.291827117E1,-3.841026607E0,-1.416011444E1,4.146357683E0,1.524646216E1
1.292827417E1,-3.888820578E0,-1.651198035E1,3.868810821E0,1.739931371E1
1.293827617E1,-4.194894251E0,-1.903588771E1,1.975347907E0,1.959245156E1
1.294827917E1,-4.395509588E0,-2.114812537E1,7.878877509E-1,2.161445068E1
1.295828117E1,-4.075752846E0,-2.191780606E1,6.495484757E-1,2.230300197E1
1.296828417E1,-3.085093597E0,-2.071722300E1,1.196045623E0,2.097979162E1
1.297828617E1,-2.305825373E0,-1.842514370E1,2.322167317E0,1.871350347E1
1.298828817E1,-2.293109141E0,-1.608355369E1,3.648751445E0,1.665089895E1
1.299829117E1,-2.918196521E0,-1.314939865E1,5.778273472E0,1.465643204E1
1.300829317E1,-4.666258770E0,-1.011175492E1,4.478425153E0,1.200324332E1
1.301829587E1,-7.905966489E0,-7.305821139E0,8.020128697E-1,1.079456128E1
1.302829787E1,-1.016299290E1,-4.287173254E0,-9.787285906E-1,1.107358067E1
1.303830087E1,-1.052490047E1,-7.110009581E-1,-1.934726715E0,1.072484124E1
1.304830288E1,-8.964767436E0,3.210489183E0,-2.019490292E0,9.734096620E0
1.305830487E1,-6.288303289E0,6.153798618E0,-1.665739592E0,8.954701786E0
1.306830787E1,-3.926332805E0,7.694451649E0,-6.319424363E-1,8.661410204E0
1.307830987E1,-2.081428093E0,9.099818822E0,5.769928618E-1,9.352644880E0
1.308831288E1,-8.161026129E-1,1.122164884E1,1.857841530E0,1.140363982E1
1.309831487E1,6.881009227E-1,1.397258254E1,2.447049226E0,1.420192225E1
1.310831687E1,1.863095107E0,1.635290334E1,2.654248821E0,1.667134091E1
1.311831987E1,2.037965155E0,1.690918989E1,3.088756585E0,1.730937382E1
1.312832188E1,1.873837612E0,1.599813873E1,2.399117114E0,1.628519184E1
1.313832487E1,1.911999173E0,1.496951994E1,1.183520741E0,1.513746972E1
1.314832687E1,3.002946064E0,1.451780148E1,8.641506457E-1,1.485028624E1
1.315832987E1,6.156242169E0,1.431838336E1,2.051780810E0,1.572021705E1
1.316833188E1,1.011302143E1,1.369029651E1,4.836999221E0,1.769446191E1
1.317833388E1,1.405663392E1,1.324086080E1,7.139376637E0,2.058834745E1
1.318833687E1,1.651887071E1,1.231638560E1,4.991114284E0,2.120088832E1
1.319833887E1,1.574723120E1,1.035594751E1,2.536524489E0,1.901722629E1
1.320834187E1,1.217999228E1,9.241684552E0,2.763113451E-1,1.529173938E1
1.321834388E1,7.986229464E0,8.832113993E0,-3.337583678E0,1.236630759E1
1.322834687E1,6.002258084E0,8.860909776E0,-4.878254836E0,1.176181085E1
1.323834887E1,5.344010705E0,8.837327955E0,-4.662446970E0,1.133116179E1
1.324835087E1,4.530944259E0,8.445183268E0,-3.211904794E0,1.010776477E1
1.325835388E1,3.493655219E0,7.810840477E0,-1.103896939E0,8.627481915E0
1.326835587E1,1.964856833E0,6.677163010E0,7.568332616E-1,7.001283084E0
1.327835887E1,-1.708249435E-1,5.282288666E0,2.198634069E0,5.724137183E0
1.328836087E1,-2.786303801E0,3.643862003E0,2.068041185E0,5.031700857E0
1.329836288E1,-4.112478623E0,2.981454331E0,-7.874315219E-1,5.140194428E0
1.330836587E1,-3.042463886E0,3.895929623E0,-6.234910609E0,7.956693058E0
1.331836787E1,-1.013532972E0,5.941487972E0,-9.577618786E0,1.131632935E1
1.332837087E1,3.486782402E-2,7.385006472E0,-7.587373928E0,1.058809612E1
1.333837288E1,8.815832421E-1,8.704780347E0,-4.048532596E0,9.640591584E0
1.334837587E1,1.850811277E0,1.026209268E1,-1.734598743E0,1.057094515E1
1.335837787E1,2.875373267E0,1.187882676E1,-6.942704661E-1,1.224158111E1
1.336837987E1,3.457800385E0,1.320119563E1,-4.829098463E-2,1.364662162E1
1.337838288E1,3.199191778E0,1.410728251E1,1.126091727E0,1.450924982E1
1.338838488E1,2.702885668E0,1.465433397E1,2.558152170E0,1.511949859E1
1.339838787E1,2.710641707E0,1.482883593E1,3.127874458E0,1.539563419E1
1.340838987E1,3.292745766E0,1.527727527E1,3.534323773E0,1.602275753E1
1.341839287E1,3.285763898E0,1.550811984E1,5.099062071E0,1.665228091E1
1.342839488E1,3.303902254E0,1.500688716E1,6.203958957E0,1.657140727E1
1.343839687E1,3.905966368E0,1.424400444E1,8.389436499E0,1.698619676E1
1.344839987E1,3.709617451E0,1.146477489E1,1.006730672E1,1.570200591E1
1.345840187E1,1.786315026E0,4.001449646E0,9.129456019E0,1.012667210E1
1.346840488E1,-5.712914464E0,-8.666279941E0,1.021079389E1,1.456029229E1
1.347840687E1,-2.139045504E1,-3.896809512E1,2.105579550E1,4.918750378E1
1.348840887E1,-2.320282526E1,-7.641065167E1,9.722832048E-1,7.986178137E1
1.349841187E1,1.226836827E1,-5.558736018E1,-3.797311185E1,6.842824486E1
1.350841388E1,1.021314915E1,-1.146284180E1,-3.586670621E1,3.901443030E1
1.351841687E1,-2.504287620E0,-2.537186978E0,-7.273311204E0,8.099989514E0
1.352841887E1,-6.404739479E0,3.893093723E-1,1.488750339E1,1.621141594E1
1.353842187E1,-9.792988696E0,4.707599169E-1,2.270151773E1,2.472818533E1
1.354842388E1,-9.317139947E0,5.178563154E-1,2.066394083E1,2.267323803E1
1.355842687E1,-6.619393104E0,-1.850936700E0,1.018940594E1,1.229090417E1
1.356842887E1,-4.955079648E0,-6.013398784E0,1.894131690E0,8.018822489E0
1.357843087E1,-1.132117722E0,-7.243042508E0,-1.842340269E0,7.558939937E0
1.358843388E1,-4.735279888E-2,-5.999599940E0,-2.762748000E0,6.605317421E0
1.359843587E1,-2.810282063E0,-5.735282988E0,9.962310612E-2,6.387572386E0
1.360843887E1,-3.353916121E0,-7.197326052E0,-4.732941002E-1,7.954512113E0
1.361844087E1,-2.929016208E0,-5.750799744E0,-1.755365129E0,6.688209056E0
1.362844388E1,-2.471270147E0,-4.347289063E0,-1.969209646E0,5.374372983E0
1.363844588E1,-1.139305338E0,-3.450565333E0,-1.947888798E-1,3.639005424E0
1.364844787E1,-1.132398900E0,-2.390907184E0,2.019192669E0,3.328047996E0
1.365845087E1,-1.212895983E0,-2.482798517E0,3.737266595E0,4.647856145E0
1.366845287E1,-3.873898776E-1,-4.160116181E0,4.037017674E0,5.809832120E0
1.367845588E1,1.177526833E0,-6.775902017E0,2.809836797E0,7.429306860E0
1.368845787E1,3.139431772E0,-8.466608051E0,8.995590448E-2,9.030369638E0
1.369846087E1,4.624871885E0,-8.856320881E0,-2.277089378E0,1.024738969E1
1.370846287E1,5.895835835E0,-7.333458003E0,-1.967281965E0,9.613047634E0
1.371846488E1,5.794105393E0,-4.806016579E0,-6.715123719E-1,7.557802692E0
1.372846787E1,4.267610224E0,-2.638961860E0,7.987983629E-2,5.018266385E0
1.373846987E1,2.177833623E0,-1.170411429E0,5.983619499E-1,2.543788361E0
1.374847287E1,4.976678532E-1,-7.921339989E-2,1.229678223E0,1.328930617E0
1.375847488E1,-6.582223085E-1,1.051414744E0,1.518964539E0,1.961117753E0
1.376847787E1,-1.204483740E0,2.010791389E0,1.353321398E0,2.706573830E0
1.377847987E1,-1.184024259E0,2.400207181E0,1.323841491E0,2.985877468E0
1.378848187E1,-7.767186919E-1,2.393829623E0,1.521379732E0,2.940800652E0
1.379848488E1,-9.894541383E-2,2.246919499E0,1.427926607E0,2.664096812E0
1.380848687E1,6.810675994E-1,1.908386763E0,8.911030939E-1,2.213562250E0
1.381848987E1,1.716273569E0,1.385398931E0,4.831621537E-1,2.257957225E0
1.382849187E1,2.751364641E0,1.105731284E0,4.011960308E-1,2.992257895E0
1.383849488E1,3.400312607E0,1.217566885E0,3.568351060E-1,3.629314844E0
1.384849687E1,3.630610458E0,1.557894716E0,3.134914505E-1,3.963161003E0
1.385849987E1,3.307040162E0,1.923044563E0,3.562544775E-1,3.842073955E0
1.386850187E1,2.616551529E0,2.297599656E0,6.353276087E-1,3.539625298E0
1.387850387E1,1.995393039E0,2.688838025E0,8.722217037E-1,3.460088728E0
1.388850688E1,1.631551215E0,2.859404814E0,1.241679048E0,3.518511349E0
1.389850887E1,1.657895114E0,2.859528190E0,1.436368379E0,3.603979994E0
1.390851187E1,2.039105069E0,2.854490229E0,1.245696524E0,3.722609808E0
1.391851387E1,2.567407728E0,2.876875709E0,1.091416131E0,4.007391353E0
1.392851688E1,2.930546132E0,2.958014013E0,1.069930537E0,4.299150949E0
1.393851887E1,3.119449205E0,3.038551807E0,1.259721801E0,4.533283516E0
1.394852187E1,3.078741474E0,2.974663374E0,1.349137423E0,4.488590318E0
1.395852387E1,2.877832898E0,2.679392433E0,1.308583913E0,4.144087096E0
1.396852588E1,2.761997802E0,2.262870119E0,1.251417001E0,3.783550917E0
1.397852887E1,2.889153108E0,1.904179691E0,1.071389417E0,3.622289505E0
1.398853087E1,2.992014987E0,1.551206086E0,1.182018152E0,3.571492813E0
1.399853387E1,3.012921122E0,1.251822213E0,1.326913911E0,3.522137570E0
1.400853588E1,3.001703823E0,1.132894524E0,1.332096736E0,3.473925382E0
1.401853987E1,3.066194811E0,1.172080225E0,1.281743293E0,3.523945025E0
1.402854187E1,3.028617387E0,1.260898846E0,1.348544954E0,3.546965276E0
1.403854487E1,2.906181077E0,1.225962902E0,1.466968174E0,3.478630350E0
1.404854688E1,2.760693873E0,1.045562850E0,1.678806657E0,3.396030643E0
1.405854887E1,2.594577108E0,7.139286590E-1,1.765308319E0,3.218359514E0
1.406855187E1,2.429255710E0,3.247046560E-1,1.589055113E0,2.920926663E0
1.407855387E1,2.301278139E0,-4.043349624E-2,1.568638390E0,2.785344205E0
1.408855688E1,2.118388051E0,-3.790656352E-1,1.493984649E0,2.619780300E0
1.409855887E1,1.817879466E0,-7.951026303E-1,1.212728168E0,2.325421156E0
1.410856187E1,1.490310551E0,-1.238746669E0,1.092096454E0,2.224453532E0
1.411856387E1,1.265213214E0,-1.723132353E0,1.209691270E0,2.456278191E0
1.412856688E1,1.004863598E0,-2.252376121E0,1.105342737E0,2.702726698E0
1.413856887E1,6.817588864E-1,-2.810240840E0,8.306319205E-1,3.008687113E0
1.414857087E1,3.595355695E-1,-3.248247578E0,5.685493362E-1,3.317171461E0
1.415857387E1,5.514472537E-2,-3.477243839E0,3.087306476E-1,3.491357941E0
1.416857587E1,-2.026546273E-1,-3.573703017E0,3.299478543E-1,3.594619275E0
1.417857887E1,-3.344040173E-1,-3.628677369E0,4.145516561E-1,3.667557575E0
1.418858087E1,-4.513122238E-1,-3.774452548E0,5.453861761E-1,3.840263121E0
1.419858387E1,-1.007235375E0,-4.402869186E0,7.071001343E-1,4.571626710E0
1.420858587E1,-1.319463388E0,-5.266628069E0,8.545723218E-1,5.496239505E0
1.421858888E1,-1.413377273E0,-6.183894821E0,8.639421925E-1,6.401920539E0
1.422859087E1,-1.530659263E0,-7.195717483E0,7.352943850E-1,7.393370389E0
1.423859287E1,-1.529929969E0,-8.174876429E0,6.950965315E-1,8.345804307E0
1.424859587E1,-1.981054205E0,-8.850055590E0,9.236729622E-1,9.115987683E0
1.425859788E1,-2.789972051E0,-9.308846841E0,1.049896806E0,9.774500338E0
1.426860087E1,-3.281818197E0,-9.901684341E0,1.468608903E0,1.053425344E1
1.427860287E1,-3.627763741E0,-1.082090406E1,2.032399044E0,1.159238027E1
1.428860587E1,-3.883810391E0,-1.206479277E1,2.812326542E0,1.298277276E1
1.429860788E1,-3.706364061E0,-1.328079494E1,4.101660397E0,1.438541855E1
1.430861087E1,-3.383231721E0,-1.449237311E1,4.730157727E0,1.561568210E1
1.431861287E1,-3.121000471E0,-1.579858495E1,4.206131430E0,1.664414228E1
1.432861487E1,-2.867732418E0,-1.635281212E1,2.789900131E0,1.683513873E1
1.433861788E1,-3.402677221E0,-1.522774468E1,4.615901671E-1,1.561010845E1
1.434861987E1,-5.465019418E0,-1.288983841E1,-1.700316517E0,1.410338427E1
1.435862287E1,-6.834981115E0,-9.660291983E0,-2.007461400E0,1.200283755E1
1.436862487E1,-6.286808740E0,-6.047159438E0,-1.499776316E0,8.851069450E0
1.437862788E1,-5.157365828E0,-2.680083573E0,-7.768131244E-1,5.863847617E0
1.438862987E1,-3.565416050E0,6.715117872E-2,1.462148899E-1,3.569044646E0
1.439863287E1,-1.890409791E0,2.252873134E0,6.544285619E-1,3.012866289E0
1.440863487E1,-3.802727929E-1,3.894721003E0,1.051825218E0,4.052134669E0
1.441863687E1,6.242771021E-1,5.075111876E0,7.426291323E-1,5.167008852E0
1.442863988E1,1.571105623E0,6.105029331E0,7.322469989E-2,6.304372916E0
1.443864187E1,3.016782331E0,7.332794344E0,-5.744023625E-1,7.949892238E0
1.444864487E1,4.204530170E0,8.780407065E0,-9.150284386E-1,9.778082594E0
1.445864687E1,5.589506055E0,1.049851198E1,-1.049927212E0,1.194000330E1
1.446864988E1,6.991368406E0,1.261906789E1,-1.870793259E-1,1.442758141E1
1.447865187E1,7.701705120E0,1.446675997E1,7.696023381E-1,1.640718420E1
1.448865487E1,7.548237344E0,1.533920898E1,1.868010715E-1,1.709684514E1
1.449865687E1,7.260240923E0,1.565172863E1,-8.661399416E-1,1.727535544E1
1.450865888E1,6.856576052E0,1.572545968E1,-1.681868552E0,1.723749979E1
1.451866187E1,6.523695819E0,1.480177619E1,-2.968118001E0,1.644569579E1
1.452866387E1,6.295662010E0,1.377848655E1,-3.854127878E0,1.563126206E1
1.453866687E1,5.859826927E0,1.248018950E1,-3.434411230E0,1.420872556E1
1.454866888E1,5.533316066E0,1.071839068E1,-1.348702390E0,1.213756498E1
1.455867187E1,5.730091830E0,9.318468434E0,1.500134751E0,1.104165796E1
1.456867387E1,6.293744708E0,8.741069922E0,4.466178160E0,1.166037191E1
1.457867687E1,6.781213628E0,8.696458590E0,6.102280555E0,1.260361370E1
1.458867888E1,6.851957921E0,8.911396975E0,4.074799458E0,1.195685218E1
1.459868087E1,5.868202479E0,9.441225464E0,3.492612076E-1,1.112180390E1
1.460868387E1,4.630845108E0,9.848031460E0,-1.831338587E0,1.103549958E1
1.461868587E1,3.507768936E0,9.616499847E0,-2.762808226E0,1.060257617E1
1.462868888E1,2.609317061E0,8.777404520E0,-1.536148921E0,9.284994299E0
1.463869087E1,1.795431713E0,7.944834686E0,8.071274292E-1,8.185073482E0
1.464869387E1,1.033625467E0,7.211767505E0,1.841558350E0,7.514606398E0
1.465869587E1,4.585252029E-1,6.608709657E0,2.246144743E0,6.995030729E0
1.466869888E1,-2.426594496E-5,6.331287341E0,2.170097610E0,6.692871060E0
1.467870088E1,-3.864600241E-1,6.480403034E0,1.308387008E0,6.622450558E0
1.468870387E1,-8.277140138E-1,6.605479655E0,4.146903813E-2,6.657266078E0
1.469870587E1,-1.108359315E0,6.780955181E0,-1.033360296E0,6.948211787E0
1.470870787E1,-7.702046013E-1,7.255573091E0,-2.177677356E0,7.614383407E0
1.471871088E1,6.637376216E-1,8.192509292E0,-3.004419855E0,8.751245329E0
1.472871287E1,2.464865692E0,8.990215688E0,-2.658717263E0,9.693725727E0
1.473871587E1,3.973021360E0,9.464369329E0,-2.115458304E0,1.048018842E1
1.474871787E1,5.093878514E0,1.012076080E1,-1.758701550E0,1.146605550E1
1.475872088E1,5.403421925E0,1.050608997E1,-1.619389299E0,1.192465164E1
1.476872287E1,4.914598789E0,1.101431125E1,-7.909528613E-2,1.206128474E1
1.477872587E1,4.818225273E0,1.170583104E1,3.666015349E0,1.317882558E1
1.478872787E1,6.490693549E0,1.179251484E1,6.710280470E0,1.504062409E1
1.479872988E1,8.144257484E0,9.358351123E0,9.343897975E0,1.553113309E1
1.480873287E1,-1.244388648E0,1.983871978E0,6.604494399E0,7.007395907E0
1.481873487E1,-1.491392345E1,-1.565186194E1,-7.536016079E0,2.289535833E1
1.482873787E1,-2.127239508E1,-5.392218075E1,-2.590880206E0,5.802438306E1
1.483873988E1,-5.812804204E0,-5.892153142E1,-9.451315420E0,5.995717572E1
1.484874287E1,1.682413220E0,-1.953013999E1,-1.699667359E1,2.594501485E1
1.485874487E1,-5.028846951E0,-1.087122169E1,-2.640730643E0,1.226565209E1
1.486874787E1,-4.154220141E-1,-8.555666408E0,7.991556278E0,1.171481860E1
1.487874988E1,1.287981833E0,-5.797347674E0,6.123001918E0,8.529905611E0
1.488875187E1,1.270186125E0,-4.554883929E0,-1.399294400E0,4.931365452E0
1.489875487E1,5.003402500E-1,-3.620136341E0,-1.034388967E0,3.798116379E0
1.490875687E1,8.337873705E-1,-4.055029437E0,3.015583944E0,5.121739122E0
1.491875987E1,-1.487722720E0,-6.842672542E0,8.174615643E0,1.076382029E1
1.492876188E1,-4.404747604E0,-8.767224517E0,7.529091806E0,1.236742700E1
1.493876487E1,-5.997298476E0,-1.052271010E1,3.626404556E0,1.264301494E1
1.494876687E1,-4.762333785E0,-1.130614812E1,6.905856970E-1,1.228762455E1
1.495876887E1,-2.797942391E-1,-9.923701447E0,-1.223155361E0,1.000271185E1
1.496877188E1,-4.379609840E-1,-7.999276941E0,-1.391305496E0,8.131172879E0
1.497877387E1,-1.810061592E0,-5.243764286E0,-1.584796586E0,5.769312531E0
1.498877687E1,-1.491083261E0,-2.436272807E0,4.658549801E-2,2.856733220E0
1.499877887E1,-1.419719894E0,1.696335733E-2,5.687656832E-1,1.529505389E0
1.500878188E1,-8.418997975E-1,2.049169005E0,1.973458525E0,2.966888510E0
1.501878317E1,-9.408101280E-1,3.459418602E0,3.917921585E0,5.310631818E0
1.502878617E1,-1.267672991E0,4.099458336E0,5.964468114E0,7.347614126E0
1.503878817E1,-1.172673425E0,3.307733642E0,6.547389321E0,7.428631888E0
1.504879017E1,-2.590290222E-1,1.877827460E0,4.875486764E0,5.231032707E0
1.505879317E1,7.053953786E-1,3.275136584E-1,1.876170359E0,2.030975886E0
1.506879517E1,1.617455478E0,-1.042629302E0,-6.819164689E-1,2.041628800E0
1.507879817E1,2.632978404E0,-1.555200904E0,-6.780631538E-1,3.132250751E0
1.508880017E1,2.742473072E0,-9.271274972E-1,4.360373962E-1,2.927601844E0
1.509880317E1,1.814022789E0,7.982086712E-1,1.659245090E0,2.584745641E0
1.510880517E1,1.224392924E0,2.593272302E0,2.674789504E0,3.921568329E0
1.511880817E1,7.082200223E-1,3.779908000E0,2.932552312E0,4.836232330E0
1.512881017E1,3.494496341E-1,4.283545057E0,2.974230680E0,5.226559235E0
1.513881217E1,5.198189333E-2,4.048367704E0,2.741796257E0,4.889726976E0
1.514881517E1,-2.826719463E-2,3.202923471E0,2.437749814E0,4.025188436E0
1.515881717E1,7.964887127E-2,2.033818894E0,1.969976508E0,2.832590807E0
1.516882017E1,4.386655734E-1,9.497527134E-1,1.258382789E0,1.636454993E0
1.517882217E1,9.993287699E-1,1.969710606E-1,7.204547364E-1,1.247601946E0
1.518882517E1,1.356147650E0,-1.932732815E-1,3.186918180E-1,1.406433605E0
1.519882717E1,1.286063946E0,-3.416200662E-1,-1.326799013E-2,1.330729418E0
1.520882917E1,1.053805524E0,-3.747457123E-1,-2.189162457E-1,1.139677478E0
1.521883217E1,8.651595828E-1,-1.983591896E-1,-1.145563102E-1,8.949696196E-1
1.522883417E1,8.385155752E-1,8.067929685E-2,3.631009823E-1,9.173112025E-1
1.523883717E1,9.482267363E-1,4.959725261E-1,8.509546494E-1,1.367203900E0
1.524883917E1,9.141228510E-1,9.317122990E-1,1.197763535E0,1.771537716E0
1.525884217E1,8.272721104E-1,1.222148178E0,1.371177333E0,2.014485689E0
1.526884417E1,6.976985425E-1,1.315359228E0,1.275435024E0,1.960532493E0
1.527884717E1,4.351100278E-1,1.229712136E0,1.368744891E0,1.890760496E0
1.528884917E1,3.785202362E-1,1.162003133E0,1.209932102E0,1.719728043E0
1.529885117E1,4.230317268E-1,1.072086405E0,9.067498776E-1,1.466465289E0
1.530885417E1,5.196231978E-1,8.761655045E-1,8.104748140E-1,1.301746397E0
1.531885617E1,6.345706867E-1,5.633511615E-1,8.283726295E-1,1.185852310E0
1.532885917E1,7.839844421E-1,3.741908115E-1,7.545096512E-1,1.150623823E0
1.533886117E1,9.709463851E-1,3.455844784E-1,7.880802704E-1,1.297395864E0
1.534886417E1,1.088191537E0,4.748646623E-1,1.111666208E0,1.626486713E0
1.535886617E1,1.229648986E0,7.123727149E-1,1.691894919E0,2.209529346E0
1.536886817E1,1.371460484E0,1.088060998E0,2.111850133E0,2.743117129E0
1.537887117E1,1.578104302E0,1.413624026E0,2.369282427E0,3.178402947E0
1.538887317E1,1.836025423E0,1.622847342E0,2.484223484E0,3.489411005E0
1.539887617E1,2.033047354E0,1.789136308E0,2.305651710E0,3.556728846E0
1.540887817E1,2.187111985E0,1.895845655E0,2.203213316E0,3.637559415E0
1.541888117E1,2.258758064E0,1.982761007E0,2.266626370E0,3.764428815E0
1.542888317E1,2.219325465E0,2.118148608E0,2.444102229E0,3.922447546E0
1.543888617E1,2.068334569E0,2.332697568E0,2.640932372E0,4.085830347E0
1.544888817E1,1.954812339E0,2.710027750E0,2.890268757E0,4.418053324E0
1.545889017E1,1.903969484E0,3.184046904E0,3.006532454E0,4.775195481E0
1.546889317E1,1.768988995E0,3.392772623E0,3.473382338E0,5.167650627E0
1.547889517E1,1.547514154E0,3.328949094E0,3.913658381E0,5.365950433E0
1.548889817E1,1.373425003E0,3.008097754E0,3.897871483E0,5.111589814E0
1.549890017E1,1.341423630E0,2.366054179E0,3.752682195E0,4.634679427E0
1.550890317E1,1.474476145E0,1.508130818E0,3.553400314E0,4.132213966E0
1.551890517E1,1.364334629E0,4.981593847E-1,2.890791498E0,3.235157992E0
1.552890717E1,1.097263639E0,-7.770967144E-1,2.245714534E0,2.617460709E0
1.553891017E1,6.036267829E-1,-2.226430271E0,1.825452195E0,2.941705757E0
1.554891217E1,2.869436297E-1,-3.466926427E0,1.393879148E0,3.747641201E0
1.555891517E1,6.419256069E-1,-4.726886210E0,1.631018241E0,5.041402804E0
1.556891717E1,8.114928143E-1,-6.618764529E0,1.896012739E0,6.932635053E0
1.557892017E1,-2.541955675E-1,-9.152204027E0,1.110255713E0,9.222804437E0
1.558892217E1,-1.358289777E0,-1.158866687E1,-1.205187160E-1,1.166861927E1
1.559892417E1,-2.020931485E0,-1.353523887E1,-1.304598012E0,1.374732088E1
1.560892717E1,-2.356995088E0,-1.521348683E1,-1.783080931E0,1.549790260E1
1.561892917E1,-2.732684541E0,-1.673661634E1,-1.429851949E0,1.701841261E1
1.562893217E1,-3.270024363E0,-1.775181694E1,-1.044281871E0,1.808066892E1
1.563893417E1,-3.895920267E0,-1.784776507E1,-5.011632456E-1,1.827490294E1
1.564893717E1,-4.322752976E0,-1.724409385E1,1.768285722E-1,1.777853296E1
1.565893917E1,-4.709404204E0,-1.662450534E1,7.935146727E-1,1.729688790E1
1.566894117E1,-5.078865788E0,-1.622044285E1,1.263239340E0,1.704386745E1
1.567894417E1,-5.556769248E0,-1.617689045E1,7.163948683E-1,1.711965802E1
1.568894617E1,-5.724496629E0,-1.583367176E1,-4.676744874E-1,1.684321057E1
1.569894917E1,-5.272319164E0,-1.457565851E1,-1.961005272E0,1.562346671E1
1.570895117E1,-4.823450637E0,-1.256077583E1,-3.278156671E0,1.384864891E1
1.571895417E1,-4.899655645E0,-9.700552987E0,-3.950197046E0,1.156336501E1
1.572895617E1,-4.971853555E0,-6.186020869E0,-3.881430867E0,8.834686613E0
1.573895917E1,-4.119661635E0,-2.538775667E0,-2.186542320E0,5.310175250E0
1.574896117E1,-2.499292051E0,9.604069251E-1,4.264491320E-1,2.711217638E0
1.575896317E1,-1.206273572E0,3.579532691E0,1.279288924E0,3.988073516E0
1.576896617E1,-2.335392550E-1,5.426597949E0,3.947420569E-1,5.445945939E0
1.577896817E1,6.399876934E-1,6.906892512E0,-4.656406796E-1,6.952091028E0
1.578897117E1,1.784238388E0,8.673823434E0,-6.177747059E-1,8.876956977E0
1.579897317E1,3.404016818E0,1.050250095E1,-4.065533960E-1,1.104785692E1
1.580897617E1,4.660766772E0,1.242097358E1,-7.727329373E-2,1.326684976E1
1.581897817E1,5.342181112E0,1.437918271E1,6.410806111E-1,1.535287526E1
1.582898017E1,5.671193996E0,1.593397840E1,1.264531867E0,1.696034050E1
1.583898317E1,5.860263129E0,1.672412669E1,1.383126118E0,1.777504248E1
1.584898517E1,6.044601281E0,1.724597314E1,1.345984604E0,1.832409531E1
1.585898817E1,6.207744445E0,1.716856653E1,-1.093547733E-1,1.825671729E1
1.586899017E1,6.582176746E0,1.585333477E1,-2.034733983E0,1.728564192E1
1.587899217E1,6.237541856E0,1.349207473E1,-1.493605603E0,1.493900487E1
1.588899517E1,5.629134389E0,1.124365191E1,1.373999784E0,1.264890263E1
1.589899717E1,5.112397231E0,9.787226849E0,5.425418565E0,1.230290947E1
1.590900017E1,4.188761691E0,9.144333674E0,8.326024615E0,1.305707658E1
1.591900217E1,3.491197634E0,9.476052650E0,7.892225533E0,1.281683497E1
1.592900517E1,3.485541915E0,9.963814516E0,5.854729325E0,1.207081015E1
1.593900717E1,3.381664959E0,1.011871661E1,3.843856659E0,1.134016392E1
1.594901017E1,3.471490763E0,1.009740702E1,2.042136558E0,1.087102564E1
1.595901217E1,3.655294479E0,9.550404090E0,-3.940217165E-1,1.023360392E1
1.596901417E1,2.779813099E0,8.894612542E0,-2.913929515E0,9.763835228E0
1.597901717E1,2.130972136E0,8.099556105E0,-3.617707407E0,9.123138617E0
1.598901917E1,2.024447562E0,7.220402089E0,-3.052641842E0,8.096370574E0
1.599902217E1,2.336531003E0,6.496310384E0,-2.225201186E0,7.253478204E0
1.600902417E1,2.699222972E0,5.909367462E0,-1.745887377E0,6.727150302E0
1.601902625E1,2.774844427E0,6.050672445E0,-1.126512873E0,6.751253949E0
1.602902925E1,2.607254164E0,6.891909606E0,-5.650410068E-1,7.390227577E0
1.603903125E1,2.441021331E0,7.468094822E0,-8.489420378E-1,7.902640570E0
1.604903425E1,2.202230984E0,7.849696979E0,-1.790009297E0,8.346957365E0
1.605903625E1,2.004950021E0,8.307372581E0,-2.728966881E0,8.971038069E0
1.606903925E1,1.906512730E0,8.869776494E0,-3.033616172E0,9.566114829E0
1.607904125E1,1.714723764E0,9.429411750E0,-2.658648266E0,9.945978792E0
1.608904325E1,1.689555009E0,9.912214007E0,-2.237844036E0,1.030119064E1
1.609904625E1,1.670660609E0,1.037029541E1,-1.393054690E0,1.059597731E1
1.610904825E1,1.614233224E0,1.085742460E1,6.190220632E-2,1.097694173E1
1.611905125E1,1.377016655E0,1.124025935E1,1.163500021E0,1.138390695E1
1.612905325E1,9.469033653E-1,1.157145150E1,1.840840312E0,1.175516094E1
1.613905625E1,2.760163531E-1,1.095158700E1,2.499945477E0,1.123668857E1
1.614905825E1,-1.626742172E-1,8.666010384E0,3.909731390E0,9.508532927E0
1.615906025E1,-1.220191700E0,4.200867181E0,7.647503185E0,8.810247319E0
1.616906325E1,-1.140540928E1,-7.594237390E0,1.277564931E1,1.873427388E1
1.617906525E1,-2.718919727E1,-2.719651799E1,1.195447453E1,4.027173327E1
1.618906825E1,-1.884199755E1,-3.093464295E1,-1.675191178E0,3.625988516E1
1.619907025E1,-2.224321180E0,-2.474673343E1,-1.599709676E1,2.955089719E1
1.620907325E1,1.157507355E0,-2.147601618E1,-2.066363210E1,2.982523739E1
1.621907525E1,8.414077835E0,-1.140090576E1,-1.008292464E1,1.739088057E1
1.622907725E1,1.020442510E1,-3.278637312E0,-5.847748334E0,1.220966481E1
1.623908025E1,5.937639334E0,-3.452628815E0,-6.347368938E-1,6.897760327E0
1.624908225E1,9.116236049E-1,-5.891117717E0,1.033621900E1,1.193204714E1
1.625908525E1,-2.042209648E0,-7.054192060E0,1.497180620E1,1.667594755E1
1.626908725E1,-4.843349005E0,-6.366053131E0,7.835194715E0,1.119709508E1
1.627909025E1,-3.308496119E0,-6.333794627E0,2.656704066E0,7.623724643E0
1.628909225E1,-1.152211971E0,-6.955481704E0,1.522454157E-1,7.051914409E0
1.629909425E1,1.485210317E-1,-8.189704968E0,-2.241836076E0,8.492299744E0
1.630909725E1,1.245350515E0,-6.971204867E0,-5.432680222E-1,7.102375332E0
1.631909925E1,8.799884140E-1,-3.985229470E0,1.829492913E0,4.472524774E0
1.632910225E1,6.471005389E-1,-3.269757146E0,2.617180982E0,4.237887114E0
1.633910425E1,-4.155062141E-1,-3.838255611E0,2.243245693E0,4.465087098E0
1.634910725E1,-1.649883844E0,-4.280886912E0,6.605225301E-1,4.635126694E0
1.635910925E1,-2.474962664E0,-3.924451756E0,1.888204806E-1,4.643534747E0
1.636911125E1,-2.999892063E0,-3.039294403E0,-2.423156333E-1,4.277309870E0
1.637911425E1,-3.122050046E0,-2.069463521E0,2.574426726E-1,3.754484317E0
1.638911625E1,-3.380260751E0,-1.703456472E0,1.530030980E0,4.082759054E0
1.639911925E1,-3.707984616E0,-2.919421805E0,1.926145049E0,5.097274599E0
1.640912125E1,-2.738805406E0,-4.292373767E0,1.140942340E0,5.217976335E0
1.641912425E1,-9.563705921E-1,-4.535741315E0,-5.234135091E-1,4.664928262E0
1.642912625E1,9.001627699E-1,-3.949971344E0,-9.987874639E-1,4.172546348E0
1.643912825E1,2.958685273E0,-2.465169747E0,1.101030707E-1,3.852661822E0
1.644913125E1,3.895979324E0,-9.569342637E-1,1.130762045E0,4.168093195E0
1.645913325E1,4.073066343E0,1.897286993E-1,1.763108012E0,4.442343557E0
1.646913625E1,3.172029122E0,7.403592432E-1,2.041159489E0,3.843986553E0
1.647913825E1,1.518547779E0,7.143742168E-1,2.008044221E0,2.616975253E0
1.648914125E1,-2.244000569E-2,3.445980531E-1,1.943729381E0,1.974166983E0
1.649914325E1,-5.427723245E-1,2.372186154E-1,1.638559103E0,1.742340495E0
1.650914525E1,-3.390753579E-1,6.623404294E-1,1.333303017E0,1.526880440E0
1.651914825E1,-9.424249828E-2,1.238737898E0,1.380902422E0,1.857483440E0
1.652915025E1,1.183800969E-1,1.623001708E0,1.558452541E0,2.253202768E0
1.653915325E1,4.189741977E-1,1.747641542E0,1.637110309E0,2.431032805E0
1.654915525E1,5.744630639E-1,1.564275783E0,1.563060439E0,2.284759172E0
1.655915825E1,8.612931114E-1,1.307769542E0,1.577223565E0,2.222548351E0
1.656916025E1,1.072807221E0,9.696548814E-1,1.589066661E0,2.148552717E0
1.657916225E1,1.219624228E0,5.066700071E-1,1.344558907E0,1.884684697E0
1.658916525E1,1.218134942E0,-2.973367631E-2,8.597680114E-1,1.491287317E0
1.659916725E1,1.293101509E0,-6.019813764E-1,4.276302695E-1,1.489080501E0
1.660917025E1,1.563626596E0,-1.159744354E0,4.027296093E-1,1.987995532E0
1.661917225E1,1.544844023E0,-1.336795705E0,-9.670856148E-3,2.042953582E0
1.662917525E1,1.506793706E0,-1.042351559E0,7.249962687E-3,1.832205395E0
1.663917725E1,1.302436296E0,-3.745223486E-1,3.172395158E-1,1.391850641E0
