"Time (s)","Linear Acceleration x (m/s^2)","Linear Acceleration y (m/s^2)","Linear Acceleration z (m/s^2)","Absolute acceleration (m/s^2)"
1.627537503E-2,-7.039495084E-1,-3.827710158E-1,-1.308971145E0,1.534752103E0
2.627737494E-2,-1.412967091E0,-7.162520501E-1,-1.269079100E0,2.029791803E0
3.628037497E-2,-1.908915936E0,-5.577743796E-1,-1.369651794E0,2.414750162E0
4.628337501E-2,-2.519491842E0,-3.749579662E-1,-1.837602709E0,3.140894193E0
5.628637504E-2,-2.580789373E0,-1.029863953E0,-2.708399885E0,3.880273636E0
6.628937495E-2,-3.075288109E0,-2.843684574E0,-3.188680238E0,5.264182802E0
7.629237499E-2,-4.144175502E0,-3.237266800E0,-2.426935973E0,5.791727302E0
8.629537502E-2,-3.271430911E0,-4.145071588E0,-2.487626563E0,5.837136678E0
9.629737504E-2,-1.178659219E0,-3.882873960E0,-1.566306521E0,4.349628014E0
1.063003750E-1,-1.074901693E-1,-3.272895346E0,-5.166786861E-1,3.315170425E0
1.163033750E-1,9.704642822E-1,-2.983105000E0,1.618017542E0,3.529687965E0
1.263063750E-1,2.418248180E0,-2.887936302E0,4.568349482E0,5.920972669E0
1.363093749E-1,3.257800174E0,-1.628596763E0,8.029646795E0,8.817075311E0
1.463123750E-1,3.572668059E0,-8.213433261E-1,1.767700532E1,1.805311826E1
1.563143750E-1,3.871880609E0,-7.112243217E-1,1.387250159E1,1.442024965E1
1.663173750E-1,2.898290260E0,-1.795305267E0,7.678804500E0,8.401621628E0
1.763203749E-1,-3.660444707E-1,-2.871751794E0,3.870952072E0,4.833758048E0
1.863233750E-1,4.093799035E-1,-3.325362412E0,1.152772719E0,3.543234683E0
1.963263750E-1,8.871600240E-1,-5.905761484E0,-2.488638716E0,6.469806355E0
2.063293750E-1,-4.901474568E-1,-8.991655272E0,-3.079086460E0,9.516873567E0
2.163313749E-1,-1.256171840E1,-1.050183788E1,-3.009471849E0,1.664759108E1
2.263343750E-1,-1.378844319E1,-1.223089112E1,-2.860432754E0,1.865202238E1
2.363373750E-1,-5.236965144E0,-1.193483958E1,-6.972402962E0,1.478108936E1
2.463403750E-1,-7.728754925E0,-1.066127975E1,-3.590976861E0,1.364887005E1
2.563433750E-1,-4.831078623E0,-1.015252638E1,-1.850218077E0,1.139457852E1
2.663463750E-1,-2.215116347E0,-6.208845475E0,-3.237502735E0,7.344244449E0
2.763483750E-1,-6.548307042E-1,-2.248332186E0,-4.376360250E0,4.963499764E0
2.863513749E-1,3.460931861E-1,-1.032438921E0,-4.383019643E0,4.516256394E0
2.963543750E-1,4.712195081E-1,-2.766912679E-1,-2.652433845E0,2.708137955E0
3.063573750E-1,7.343521062E-1,2.450938793E0,-1.043954281E0,2.763370139E0
3.163603750E-1,3.128414156E0,7.121094732E0,1.935738283E-1,7.780387917E0
3.263633749E-1,4.550464604E0,9.770436569E0,-1.292597187E-1,1.077890843E1
3.363653750E-1,4.181404139E0,1.053428291E1,1.021595113E0,1.137975894E1
3.463683750E-1,3.614704570E0,1.030780154E1,9.354656267E-1,1.096320927E1
3.563713750E-1,2.129847717E0,9.083640161E0,3.838930964E-2,9.330072004E0
3.663743749E-1,1.024777168E0,7.750841027E0,7.340261239E-1,7.852674654E0
3.763773750E-1,1.347559406E0,6.847057954E0,2.347890388E0,7.362792151E0
3.863803750E-1,3.369976668E0,8.107429381E0,3.158432592E0,9.330747577E0
3.963833749E-1,6.218467069E0,1.039892922E1,3.633487873E0,1.264947808E1
4.063853750E-1,8.298259111E0,1.112638015E1,3.364726453E0,1.428211552E1
4.163883750E-1,9.411904017E0,1.093109017E1,2.579409138E0,1.465353271E1
4.263913750E-1,8.563205808E0,8.997097861E0,-4.172152090E-1,1.242780480E1
4.363943749E-1,8.239510381E0,7.746309435E0,-2.252643923E0,1.153122916E1
4.463937500E-1,6.094785009E0,5.431124278E0,-5.295582896E0,9.730709812E0
4.563967499E-1,3.634183399E0,2.283304676E0,-8.635734671E0,9.643478756E0
4.663987500E-1,7.630039014E-1,-1.118995985E0,-9.493397831E0,9.589521852E0
4.764017500E-1,-2.017914029E0,-1.907136336E0,-7.350047724E0,7.856993545E0
4.864047500E-1,-2.147392726E0,-7.110828191E-1,-5.150157380E0,5.625038252E0
4.964077499E-1,6.849529371E-2,2.026618340E0,-3.864859858E0,4.364517754E0
5.064107500E-1,2.538661062E0,5.691625922E0,-4.516180624E0,7.696446781E0
5.164137500E-1,3.725393824E0,7.477522287E0,-5.993953283E0,1.028199274E1
5.264157500E-1,3.243711308E0,4.824698726E0,-1.049397571E1,1.199678737E1
5.364187500E-1,2.175547069E0,4.715718613E0,-1.352112720E1,1.448419442E1
5.464217500E-1,-3.127088007E-1,1.702880229E0,-1.523592260E1,1.533397943E1
5.564247500E-1,-1.994951282E0,5.682300782E-1,-1.574508878E1,1.588113776E1
5.664277499E-1,-1.748586160E0,6.926880634E-1,-1.596789459E1,1.607827814E1
5.764307500E-1,-3.337239861E-2,-2.270105463E-1,-1.370671198E1,1.370863235E1
5.864337500E-1,3.528096489E0,-1.014581963E0,-8.839280925E0,9.571297126E0
5.964357500E-1,8.077441936E0,-3.556456362E0,-6.360729825E0,1.087898589E1
6.064387499E-1,1.241037374E1,-7.301952036E0,-5.878305298E-1,1.441115626E1
6.164417500E-1,1.463054516E1,-1.228906975E1,8.014584367E0,2.071974057E1
6.264447500E-1,1.267463749E1,-1.472488998E1,1.527359854E1,2.471338975E1
6.364477500E-1,9.532606335E0,-1.321657614E1,1.873100570E1,2.482738495E1
6.464507499E-1,5.260905983E0,-1.433457430E1,1.911249560E1,2.446312817E1
6.564527500E-1,1.491176232E0,-1.418693562E1,1.534790145E1,2.095353974E1
6.664557500E-1,1.099878806E-1,-1.432371018E1,1.095910067E1,1.803559420E1
6.764587500E-1,-8.437789464E-1,-1.325955903E1,6.394132630E0,1.474492457E1
6.864617500E-1,-1.287442281E0,-1.391405892E1,7.258160484E-1,1.399233191E1
6.964647500E-1,-3.351454443E0,-1.433102270E1,-4.682515491E0,1.544462398E1
7.064677500E-1,-2.856957754E0,-1.274517596E1,-5.899048296E0,1.433179991E1
7.164697500E-1,1.278182046E0,-9.772787150E0,-1.015404081E1,1.415081845E1
7.264727500E-1,5.714035376E0,-6.142616403E0,-1.153907429E1,1.426647020E1
7.364757500E-1,5.485458360E0,-4.442516524E0,-9.918889189E0,1.217417633E1
7.464787500E-1,2.702727501E0,-3.529843637E0,-8.728908298E0,9.795834427E0
7.564817499E-1,2.215545094E-1,-2.443588843E0,-8.702446139E0,9.041724484E0
7.664847500E-1,-7.859874058E-1,-8.824989161E-1,-8.190632336E0,8.275447940E0
7.764877500E-1,-1.254065205E0,5.524550213E-1,-4.469503471E0,4.674863353E0
7.864897500E-1,-1.299561220E0,1.570477193E0,-1.560176007E0,2.566984058E0
7.964927499E-1,-1.417137033E0,4.167878360E0,-6.748844612E-1,4.453645297E0
8.064957500E-1,-2.561664008E0,5.585510067E0,6.227381149E-1,6.176394414E0
8.164987500E-1,-4.569495537E0,4.809624311E0,3.038628405E0,7.296988287E0
8.265017500E-1,-5.943664890E0,4.250247502E0,2.431816059E0,7.701005486E0
8.365047500E-1,-6.059656107E0,3.372143354E0,1.653899565E-1,6.936723778E0
8.465067500E-1,-6.072255102E0,2.978166441E0,-5.355641402E0,8.626972366E0
8.565097500E-1,-6.373654511E0,3.867820888E0,3.376532274E0,8.184404709E0
8.665127500E-1,-6.715138922E0,4.305147595E0,5.879341425E0,9.909290698E0
8.765157500E-1,-7.076798565E0,4.412077966E0,4.629598482E0,9.538379947E0
8.865187500E-1,-6.879151567E0,4.651737502E0,3.200347772E0,8.899641225E0
8.965217500E-1,-5.586677172E0,5.286757109E0,1.230522999E0,7.789412648E0
9.065237499E-1,-2.594416602E0,5.882634577E0,-7.465806806E-1,6.472539670E0
9.165267500E-1,9.750050837E-1,4.762862374E0,-3.728613886E0,6.126830699E0
9.265297500E-1,5.100591118E0,2.945046058E0,-7.707448840E0,9.700211011E0
9.365327500E-1,9.372404906E0,6.830847426E-1,-9.664343519E0,1.347991521E1
9.465357499E-1,1.301995299E1,-1.916413236E0,-7.455423321E0,1.512531496E1
9.565387500E-1,1.753096409E1,-4.380842725E0,-5.240476397E0,1.881459747E1
9.665407500E-1,2.202272850E1,-6.157909795E0,-2.671891624E0,2.302301953E1
9.765437500E-1,2.457572109E1,-6.865158010E0,-1.392460613E0,2.555455748E1
9.865467499E-1,2.416260828E1,-6.355339862E0,-2.491044846E0,2.510831114E1
9.965497500E-1,2.098112188E1,-4.078031506E0,-3.433751079E0,2.164782813E1
1.006552750E0,1.694239038E1,-1.691441175E0,-7.402884918E-1,1.704269909E1
1.016555750E0,1.402660028E1,-8.076314592E-1,2.768138548E0,1.431992930E1
1.026557750E0,1.342462476E1,-2.237593482E-1,5.143599143E0,1.437801204E1
1.036560750E0,1.424781916E1,6.892179602E-1,5.909919439E0,1.544028886E1
1.046563750E0,1.476240689E1,1.375429721E0,4.168412211E0,1.540117282E1
1.056566750E0,1.493882557E1,2.667418212E0,1.355997376E0,1.523556229E1
1.066569750E0,1.322366765E1,3.086234096E0,-1.731193909E0,1.368894661E1
1.076572750E0,1.114956670E1,2.830099446E0,-3.123629964E0,1.191970489E1
1.086574750E0,8.702267214E0,1.902130534E0,-2.005344123E0,9.130660452E0
1.096577750E0,5.759980457E0,1.160285806E0,3.784943622E-1,5.887860053E0
1.106580750E0,3.394087662E0,1.040151983E0,1.785504017E0,3.973634583E0
1.116583750E0,1.781319165E-1,6.723312014E-1,1.468406589E0,1.624800952E0
1.126586750E0,-3.357458948E0,2.184216078E-1,2.100735015E0,3.966525708E0
1.136589750E0,-6.441226104E0,-2.079074187E-1,2.959723738E0,7.091726435E0
1.146591750E0,-8.579499659E0,-6.311640988E-1,3.169759233E0,9.168072650E0
1.156594750E0,-9.718296947E0,-9.015143538E-1,2.766207798E0,1.014445313E1
1.166597750E0,-1.019503213E1,-1.054018216E0,2.225698199E0,1.048824900E1
1.176600750E0,-1.031965267E1,-1.130556954E0,1.959929384E0,1.056478649E1
1.186603750E0,-1.043451538E1,-1.263088482E0,1.942753773E0,1.068872284E1
1.196606750E0,-1.055805184E1,-1.462319345E0,2.092285788E0,1.086225098E1
1.206608750E0,-1.090493323E1,-1.820669172E0,2.296878694E0,1.129194654E1
1.216611750E0,-1.120139174E1,-2.079214776E0,2.793135395E0,1.173012857E1
1.226614750E0,-1.114404693E1,-1.867488705E0,2.838218597E0,1.165044123E1
1.236617750E0,-1.103802405E1,-1.493676209E0,2.010131239E0,1.131855428E1
1.246620750E0,-1.106127842E1,-1.347598436E0,1.204745695E0,1.120800223E1
1.256622750E0,-1.113776936E1,-1.314663848E0,4.350889778E-1,1.122352662E1
1.266625750E0,-1.127218281E1,-1.398520668E0,-9.298995160E-2,1.135898818E1
1.276628750E0,-1.134442867E1,-1.360908307E0,-5.975217050E-1,1.144137953E1
1.286631750E0,-1.137895414E1,-1.182552588E0,-1.173194704E0,1.150023538E1
1.296634750E0,-1.151942180E1,-1.080727640E0,-1.362233870E0,1.164992412E1
1.306637750E0,-1.186633477E1,-1.318396856E0,-1.316927305E0,1.201175960E1
1.316639750E0,-1.190489599E1,-1.454385258E0,-1.243817959E0,1.205773063E1
1.326642750E0,-1.170044224E1,-1.410655833E0,-1.308960035E0,1.185764205E1
1.336645750E0,-1.160313288E1,-1.339783340E0,-1.421487361E0,1.176640720E1
1.346648750E0,-1.162694391E1,-1.291243118E0,-1.433879950E0,1.178597239E1
1.356651750E0,-1.162202056E1,-1.306541773E0,-1.297561326E0,1.176699106E1
1.366654750E0,-1.168960618E1,-1.345800417E0,-1.049879411E0,1.181356501E1
1.376656750E0,-1.185539229E1,-1.448706150E0,-8.421670152E-1,1.197323353E1
1.386659750E0,-1.194488158E1,-1.627833847E0,-7.812651944E-1,1.208058005E1
1.396662750E0,-1.253675780E1,-2.291058376E0,-8.749954766E-1,1.277438303E1
1.406665750E0,-1.305871068E1,-2.945937758E0,-6.220571335E-1,1.340132191E1
1.416668750E0,-1.309831036E1,-3.197223020E0,-3.606492448E-1,1.348769948E1
1.426671750E0,-1.268853515E1,-3.078147982E0,-1.255666173E-1,1.305716992E1
1.436673750E0,-1.212247088E1,-2.658958753E0,2.331582723E-1,1.241284515E1
1.446677000E0,-1.148346143E1,-1.997826504E0,7.443949914E-1,1.167969695E1
1.456680000E0,-1.093013707E1,-1.306361240E0,1.130087276E0,1.106578390E1
1.466683000E0,-1.044860483E1,-8.012411834E-1,1.243761241E0,1.055283243E1
1.476686000E0,-1.035337941E1,-6.151362229E-1,1.763346578E0,1.052046810E1
1.486688000E0,-1.035850508E1,-1.655989945E-1,2.534497259E0,1.066535170E1
1.496691000E0,-9.797589869E0,2.972312940E-1,2.034113009E0,1.001093050E1
1.506694000E0,-7.668713960E0,-4.304539631E-1,3.644214005E0,8.501456354E0
1.516697000E0,-1.338400181E0,8.294063441E-2,1.358687797E1,1.365289153E1
1.526700000E0,9.669082687E0,2.382131976E0,2.160173365E1,2.378656363E1
1.536703000E0,1.924869011E1,4.266893356E0,2.003141945E1,2.810651553E1
1.546705000E0,2.008179672E1,3.407588298E0,1.398828231E1,2.470955806E1
1.556708000E0,2.021267378E1,2.644246573E0,1.144662514E1,2.337882478E1
1.566711000E0,2.546272967E1,1.480153353E0,8.682741022E0,2.694311503E1
1.576714000E0,3.226684918E1,1.888292806E0,-3.402293059E0,3.250062774E1
1.586717000E0,3.485228212E1,8.310104401E0,-2.632006305E0,3.592585227E1
1.596720000E0,3.973493640E1,9.685886416E0,8.971922089E0,4.187095595E1
1.606722000E0,4.505235689E1,1.169034059E1,1.107899315E1,4.784478042E1
1.616725000E0,3.566618647E1,1.107715478E1,3.123999508E0,3.747718757E1
1.626728000E0,2.023855589E1,6.031029893E0,-5.353207791E0,2.178598861E1
1.636731000E0,1.153158401E1,1.760803917E0,-9.727215706E0,1.518869927E1
1.646734000E0,7.696404034E0,3.133106254E-1,-2.815188936E-1,7.707921347E0
1.656736000E0,1.334881327E0,-2.234320942E0,1.292180865E0,2.905826838E0
1.666739000E0,1.363415154E0,-3.650761133E0,-1.429007114E1,1.481192395E1
1.676742000E0,7.502195199E0,-3.284315543E0,-2.320874966E1,2.461129257E1
1.686745000E0,1.416625752E1,-8.380454591E-1,-2.409299134E1,2.796171318E1
1.696748000E0,2.299462930E1,2.956310134E0,-1.878158529E1,2.983690152E1
1.706751000E0,2.847570400E1,4.468941554E0,-1.137900793E1,3.098901384E1
1.716753000E0,2.756098196E1,4.024675663E0,-4.320834505E0,2.818643914E1
1.726756000E0,2.114294942E1,3.075323192E0,1.309311453E0,2.140551843E1
1.736759000E0,1.507151643E1,2.523905613E0,5.093379162E0,1.610786201E1
1.746762000E0,1.250095179E1,3.167393742E0,7.657916492E0,1.499832870E1
1.756765000E0,9.640329589E0,3.707234419E0,8.295056006E0,1.324716935E1
1.766767000E0,5.418893657E0,2.773600725E0,8.523973914E0,1.047451196E1
1.776770000E0,4.638730663E-1,1.050180250E0,8.323297473E0,8.402103166E0
1.786773000E0,-3.680365586E0,1.011831433E-2,6.255742484E0,7.258064980E0
1.796776000E0,-6.362973987E0,-5.116433564E-1,4.003287426E0,7.534953689E0
1.806779000E0,-8.122586533E0,-1.095819815E0,2.824759476E0,8.669284812E0
1.816782000E0,-9.436412036E0,-1.815750495E0,1.613084392E0,9.743965478E0
1.826784000E0,-1.024739044E1,-2.098692144E0,3.805952668E-3,1.046009245E1
1.836787000E0,-1.098288129E1,-2.344490232E0,-1.480496877E0,1.132749694E1
1.846790000E0,-1.157455871E1,-2.449972833E0,-2.225755794E0,1.203855328E1
1.856793000E0,-1.176225667E1,-2.442918460E0,-2.130880920E0,1.220078629E1
1.866796000E0,-1.158060239E1,-2.633391218E0,-1.700392239E0,1.199735116E1
1.876798000E0,-1.136999504E1,-2.601951324E0,-1.399077322E0,1.174752549E1
1.886801000E0,-1.160704116E1,-2.456977213E0,-1.341044292E0,1.193978816E1
1.896804000E0,-1.200255150E1,-2.153813846E0,-1.456167197E0,1.228090304E1
1.906807000E0,-1.224883973E1,-1.493647411E0,-1.880104365E0,1.248198101E1
1.916810000E0,-1.200460972E1,-6.598061000E-1,-2.394208961E0,1.225880236E1
1.926812000E0,-1.141664880E1,-4.839579597E-2,-2.431303843E0,1.167276533E1
1.936815000E0,-1.159366507E1,-6.213384376E-1,-8.056533462E-1,1.163822188E1
1.946818000E0,-1.233641582E1,-1.873206697E0,3.152950242E0,1.287000986E1
1.956821000E0,-1.265365534E1,-2.548836971E0,7.651476368E0,1.500522089E1
1.966824000E0,-1.234065388E1,-2.500426995E0,1.068307116E1,1.651277938E1
1.976826000E0,-1.224523551E1,-2.338674592E0,1.059075999E1,1.635785404E1
1.986829000E0,-1.235970996E1,-2.176799104E0,7.697970504E0,1.472275907E1
1.996832000E0,-1.238765614E1,-2.075198616E0,5.366275148E0,1.365860106E1
2.006835000E0,-1.226150130E1,-1.941378508E0,4.038291782E0,1.305454576E1
2.016838000E0,-1.214055749E1,-1.764206704E0,3.411840978E0,1.273366484E1
2.026840000E0,-1.222730444E1,-1.698709995E0,3.119400673E0,1.273276286E1
2.036843000E0,-1.254451355E1,-1.788020513E0,3.117192764E0,1.304908917E1
2.046846000E0,-1.300718969E1,-1.910516026E0,3.285611286E0,1.355109946E1
2.056849000E0,-1.325481343E1,-1.833013083E0,3.682710904E0,1.387848607E1
2.066852000E0,-1.309560661E1,-9.211232107E-1,4.155912910E0,1.377007598E1
2.076854000E0,-1.251130955E1,1.138340182E0,4.255398899E0,1.326412850E1
2.086857000E0,-1.186009462E1,2.926844845E0,4.227680758E0,1.292677646E1
2.096860000E0,-1.156626268E1,3.598362772E0,4.322683687E0,1.286126904E1
2.106863000E0,-1.181080961E1,3.412504052E0,4.355982703E0,1.304281384E1
2.116866000E0,-1.226090254E1,2.870879097E0,4.029021606E0,1.322137258E1
2.126868000E0,-1.268530281E1,2.523507417E0,3.609097967E0,1.342797770E1
2.136871000E0,-1.377138335E1,2.503187466E0,3.411943889E0,1.440688405E1
2.146874000E0,-1.520833894E1,2.098016206E0,3.308471560E0,1.570481548E1
2.156877000E0,-1.586186001E1,1.609200379E0,3.870835712E0,1.640644685E1
2.166880000E0,-1.430159484E1,1.292407298E0,4.688103383E0,1.510576859E1
2.176882000E0,-1.231719602E1,8.518320972E-1,4.116481919E0,1.301477465E1
2.186885000E0,-1.159410244E1,3.738176130E-1,2.570426645E0,1.188150008E1
2.196888000E0,-1.156194509E1,2.713430756E-1,1.227880204E0,1.163012860E1
2.206891000E0,-1.154754457E1,3.571971948E-1,4.565745717E-1,1.156208613E1
2.216894000E0,-1.139035972E1,4.291085918E-1,1.295742989E-3,1.139843982E1
2.226897000E0,-1.080615271E1,5.533804163E-1,-5.599410653E-1,1.083479120E1
2.236899000E0,-1.038385978E1,6.715397076E-1,-7.129008646E-1,1.042994425E1
2.246902000E0,-1.019888662E1,7.596399982E-1,2.782558367E-1,1.023092212E1
2.256905000E0,-1.015970793E1,2.042748543E-1,5.386883075E0,1.150130005E1
2.266908000E0,-8.537550564E0,-7.097308698E-1,1.190504567E1,1.466709242E1
2.276911000E0,-4.570932198E0,-8.561332360E-1,1.789600226E1,1.849035646E1
2.286913000E0,7.992752033E-1,-1.360758326E0,2.298723608E1,2.304134385E1
2.296916000E0,1.271732216E1,-2.263900544E0,2.656975260E1,2.954331197E1
2.306919000E0,3.393875291E1,-2.343549415E0,3.710569144E1,5.034047586E1
2.316922000E0,5.368640698E1,-2.298142862E0,3.806945759E1,6.585434956E1
2.326925000E0,6.709370760E1,-3.950657222E0,3.292752608E1,7.484246967E1
2.336927000E0,6.473849124E1,-8.589120521E-1,3.004802731E1,7.137712465E1
2.346930000E0,4.767035648E1,2.416869845E0,1.216228808E1,4.925672947E1
2.356933000E0,2.918899414E1,1.429298072E0,-1.275601319E1,3.188661388E1
2.366936000E0,1.883620647E1,-1.040922792E0,-3.163271163E1,3.683089246E1
2.376939000E0,1.330330322E1,-2.168539912E0,-3.254937027E1,3.522984454E1
2.386941000E0,8.245497345E0,7.065477186E-1,-1.072065121E1,1.354325657E1
2.396944000E0,-5.944655408E0,5.726536138E0,1.415189559E1,1.638317103E1
2.406947000E0,-2.111189368E1,7.338746225E0,-6.825489914E0,2.336999280E1
2.416950000E0,-1.171995791E1,6.508724608E0,-3.549584538E1,3.794306193E1
2.426953000E0,3.220106683E0,4.281871583E0,-2.957164295E1,3.005304607E1
2.436955000E0,1.210961402E1,1.951514217E0,-1.815580808E1,2.191083126E1
2.446957792E0,1.940022071E1,1.933118585E0,-1.134867843E1,2.255876798E1
2.456960792E0,2.360451026E1,1.673569745E0,-6.604025452E0,2.456800547E1
2.466963792E0,2.465140511E1,4.346866894E-1,-5.503188288E0,2.526194386E1
2.476966792E0,2.186753404E1,-1.261860274E0,-5.535583616E0,2.259256564E1
2.486968792E0,1.872194954E1,-2.183219639E0,-5.431625969E0,1.961582023E1
2.496971792E0,1.724085800E1,-2.311314008E0,-5.368949665E0,1.820480644E1
2.506974792E0,1.553289098E1,-2.598654079E0,-4.428889296E0,1.635966888E1
2.516977792E0,1.328008860E1,-2.448971498E0,-3.305992633E0,1.390279835E1
2.526980792E0,1.070500056E1,-1.556570907E0,-1.670993316E0,1.094587450E1
2.536982792E0,8.408161622E0,-7.876233105E-1,3.520123225E-1,8.452304125E0
2.546985792E0,6.003277838E0,-5.069934312E-1,2.062954108E0,6.368058322E0
2.556988792E0,3.637806042E0,-3.764202452E-1,3.613767554E0,5.141462917E0
2.566991792E0,1.609872955E0,-5.526605509E-2,4.574071568E0,4.849420169E0
2.576994792E0,-2.223801363E-1,3.197378118E-1,5.285882365E0,5.300211087E0
2.586996792E0,-2.068619767E0,4.731079760E-1,6.118580253E0,6.476113280E0
2.596999792E0,-3.773943840E0,4.038736171E-1,6.884481888E0,7.861415705E0
2.607002792E0,-5.121042339E0,2.409211820E-1,7.526816654E0,9.106925200E0
2.617005792E0,-5.868491331E0,1.551404819E-1,7.780867065E0,9.747058600E0
2.627008792E0,-6.225201307E0,1.175530447E-1,7.889769702E0,1.005064257E1
2.637010792E0,-6.456449915E0,4.763152834E-2,7.921262221E0,1.021931551E1
2.647013792E0,-6.617821373E0,-1.194368349E-1,7.928649593E0,1.032827717E1
2.657016792E0,-6.646156395E0,-1.731463977E-1,8.194753454E0,1.055250485E1
2.667019792E0,-6.633408880E0,-2.110750199E-1,8.763705663E0,1.099314345E1
2.677022792E0,-6.564381915E0,-3.292200952E-1,9.496374063E0,1.154905261E1
2.687024792E0,-6.241150757E0,-2.813429838E-1,1.047452670E1,1.219618081E1
2.697027792E0,-5.673304841E0,-1.161677297E-1,1.175637554E1,1.305420425E1
2.707030792E0,-5.046883273E0,8.249800019E-2,1.333705919E1,1.426025892E1
2.717033792E0,-4.390841464E0,4.624472959E-1,1.482563166E1,1.546908854E1
2.727036792E0,-3.970130205E0,9.818211099E-1,1.519390333E1,1.573469431E1
2.737038792E0,-4.048588144E0,1.343811340E0,1.375806808E1,1.440421230E1
2.747041792E0,-4.597873244E0,1.316763875E0,1.083114371E1,1.184010049E1
2.757044792E0,-4.825055698E0,1.457517612E0,7.262520168E0,8.840232987E0
2.767047792E0,-5.286225012E0,1.615531598E0,2.557663343E0,6.090628785E0
2.777049792E0,-7.112715088E0,2.146911938E0,-9.764371399E-1,7.493555650E0
2.787052792E0,-1.018874287E1,2.024183998E0,-1.251223458E0,1.046295189E1
2.797055792E0,-1.237698614E1,1.276435336E0,-2.138249581E0,1.262502216E1
2.807058792E0,-1.319828722E1,1.190607493E0,-2.609983059E0,1.350645562E1
2.817061792E0,-1.260430952E1,1.307948613E0,-3.202499548E0,1.307039981E1
2.827063792E0,-1.203647471E1,1.205328735E0,-3.520516743E0,1.259855464E1
2.837066792E0,-1.158719805E1,9.006947934E-1,-3.015579266E0,1.200700329E1
2.847069792E0,-1.092632585E1,4.692074081E-1,-2.051476901E0,1.112714293E1
2.857072792E0,-1.063453576E1,-5.001691824E-2,-9.870211118E-1,1.068035876E1
2.867075792E0,-1.057311310E1,-5.265313542E-1,3.709075999E-1,1.059271109E1
2.877077792E0,-1.055844126E1,-8.984911971E-1,1.745899072E0,1.073946609E1
2.887080792E0,-1.054885534E1,-1.097044222E0,2.927749994E0,1.100243496E1
2.897083792E0,-1.044164664E1,-1.178957793E0,3.891058892E0,1.120527846E1
2.907086792E0,-1.030678646E1,-1.157121878E0,4.815871769E0,1.143509506E1
2.917089792E0,-1.029951486E1,-1.115791345E0,5.839063464E0,1.189199978E1
2.927091792E0,-1.039577173E1,-1.064452427E0,6.829314578E0,1.248377612E1
2.937094792E0,-1.083151793E1,-1.163847053E0,7.719542052E0,1.335169091E1
2.947097792E0,-1.172443454E1,-1.430170769E0,8.731617898E0,1.468839354E1
2.957100792E0,-1.273211562E1,-1.763234897E0,9.569635583E0,1.602478364E1
2.967102792E0,-1.310705312E1,-1.694990727E0,9.486232653E0,1.626826496E1
2.977105792E0,-1.293764057E1,-1.338407782E0,8.966010554E0,1.579757020E1
2.987108792E0,-1.244875253E1,-8.703956182E-1,8.366111956E0,1.502400936E1
2.997111792E0,-1.206193115E1,-4.582920451E-1,7.900529748E0,1.442631571E1
3.007114792E0,-1.145439842E1,-2.873599149E-1,7.248396803E0,1.355821062E1
3.017116792E0,-1.061674736E1,-4.139128112E-1,6.514654269E0,1.246304010E1
3.027119792E0,-9.833197074E0,-3.425211952E-1,5.979614741E0,1.151368220E1
3.037122792E0,-9.252145221E0,-6.523738503E-3,5.383877022E0,1.070459553E1
3.047125792E0,-8.713926562E0,1.804012940E-1,4.199713526E0,9.674846482E0
3.057128792E0,-8.554605138E0,9.829259961E-2,2.951231242E0,9.049900350E0
3.067130792E0,-8.931797910E0,2.277386343E-2,2.241066729E0,9.208686803E0
3.077133792E0,-8.955848678E0,1.079791976E-1,1.886946923E0,9.153111697E0
3.087136792E0,-9.041946005E0,1.706956469E-1,1.453381584E0,9.159598385E0
3.097139792E0,-9.095277874E0,2.366282659E-1,9.269275224E-1,9.145450627E0
3.107141792E0,-9.116171145E0,2.948589872E-1,4.636783906E-1,9.132716782E0
3.117144792E0,-9.083639576E0,3.681584219E-1,4.015756613E-1,9.099962175E0
3.127147792E0,-4.414527950E0,1.059044337E0,9.184171339E0,1.024493217E1
3.137150792E0,4.028391510E1,2.718972528E0,6.400000194E1,7.567157244E1
3.147153792E0,7.785926426E1,-8.056637542E0,4.603235023E1,9.080722278E1
3.157156792E0,8.615879748E1,-7.291279844E-1,-5.108265004E0,8.631317618E1
3.167158792E0,8.197240625E1,1.083223670E0,5.071351531E0,8.213627315E1
3.177161792E0,7.086335608E1,2.612146821E0,3.140910240E0,7.098101058E1
3.187164792E0,4.364739259E1,1.190549094E0,-2.853407325E0,4.375676200E1
3.197167792E0,2.277048915E1,-5.569074202E-1,-1.458070466E1,2.704444990E1
3.207169792E0,1.183924696E1,-9.447432576E-1,-1.480630895E1,1.898123002E1
3.217172792E0,4.764900128E0,-4.428335784E-1,-3.841120162E0,6.136332692E0
3.227175792E0,-1.973016622E1,1.301058108E0,1.329414414E1,2.382659186E1
3.237178792E0,-2.934029202E1,2.631271310E0,3.501352201E-1,2.946012422E1
3.247181792E0,-5.961250976E0,2.790916961E0,-2.089353292E1,2.190583139E1
3.257183792E0,7.284253099E0,2.078130556E0,-2.915121411E1,3.011930036E1
3.267186792E0,1.503163491E1,1.022537538E0,-2.717506806E1,3.107217333E1
3.277189792E0,2.031205539E1,2.116200608E0,-2.204022805E1,3.004712219E1
3.287192792E0,2.054902433E1,2.381402389E0,-1.531307076E1,2.573759147E1
3.297195792E0,1.872800842E1,1.394175163E0,-7.985434828E0,2.040708684E1
3.307197792E0,1.659832267E1,6.986848216E-1,-3.028229717E0,1.688675964E1
3.317200792E0,1.368468084E1,1.502428540E-1,-1.873196465E0,1.381310710E1
3.327203792E0,1.277431848E1,-5.563052666E-1,-2.929964042E0,1.311782671E1
3.337206792E0,1.202188825E1,-1.709281468E0,-2.233226197E0,1.234644643E1
3.347209792E0,1.226749586E1,-1.602074816E0,-1.183379384E0,1.242813281E1
3.357211792E0,1.229425272E1,-1.189594024E0,-5.938324043E-1,1.236593793E1
3.367214792E0,1.133240212E1,-6.994102418E-1,-3.378202531E-1,1.135898917E1
3.377217792E0,9.372713639E0,-1.763844213E-1,1.140481871E-1,9.375066901E0
3.387220792E0,7.938682246E0,2.562837544E-1,1.173551384E0,8.029046021E0
3.397222792E0,5.961242205E0,3.061087195E-1,3.038747104E0,6.698066522E0
3.407225792E0,3.682183485E0,2.131071466E-1,4.710224861E0,5.982483441E0
3.417228792E0,1.141756564E0,1.424043325E-1,5.831359173E0,5.943789772E0
3.427231792E0,-1.886914617E0,-2.047520236E-1,6.387692506E0,6.663706605E0
3.437234792E0,-4.640619314E0,-6.145971096E-1,6.654921956E0,8.136403595E0
3.447237042E0,-6.469712570E0,-7.659756026E-1,6.739326514E0,9.373495678E0
3.457240042E0,-7.759425325E0,-9.487497698E-1,6.518974777E0,1.017869538E1
3.467243042E0,-8.443085872E0,-1.081370322E0,5.966024643E0,1.039463856E1
3.477246042E0,-8.435809012E0,-9.344867297E-1,6.064616300E0,1.043147688E1
3.487249042E0,-8.365459406E0,-8.192492189E-1,6.131023128E0,1.040391873E1
3.497251042E0,-8.423608797E0,-8.374741130E-1,5.810527298E0,1.026746198E1
3.507254042E0,-8.419626843E0,-8.678543452E-1,5.616444762E0,1.015813660E1
3.517257042E0,-8.419192979E0,-8.938422221E-1,5.509146600E0,1.010111185E1
3.527260042E0,-8.651130390E0,-1.023822902E0,5.593464035E0,1.035263784E1
3.537262042E0,-9.194478811E0,-1.265512884E0,5.760004431E0,1.092326025E1
3.547265042E0,-9.660967922E0,-1.446938244E0,6.044990121E0,1.148781254E1
3.557268042E0,-9.956145308E0,-1.541025938E0,7.369421303E0,1.248230590E1
3.567271042E0,-9.982333817E0,-1.591562838E0,1.023310336E1,1.438389603E1
3.577274042E0,-1.061823255E1,-1.814707936E0,1.238436533E1,1.641379091E1
3.587276042E0,-1.000697398E1,-1.302051111E0,1.223261488E1,1.585786027E1
3.597279042E0,-8.418536922E0,-2.985518876E-1,9.733120809E0,1.287223904E1
3.607282042E0,-8.502314073E0,2.070849895E-2,8.228431077E0,1.183202651E1
3.617285042E0,-9.525573889E0,-1.736886904E-1,6.696717854E0,1.164528899E1
3.627287042E0,-1.025228573E1,-9.828449573E-2,4.968149929E0,1.139304772E1
3.637290042E0,-1.037263312E1,2.582596748E-1,3.710826363E0,1.101945771E1
3.647293042E0,-1.040863326E1,5.455408350E-1,2.719288570E0,1.077180540E1
3.657296042E0,-1.051083674E1,6.850679719E-1,1.828916670E0,1.069074101E1
3.667299042E0,-1.059696506E1,7.466535515E-1,4.267227817E-1,1.063180381E1
3.677301042E0,-1.085206972E1,8.976307062E-1,-2.221123338E-1,1.089139532E1
3.687304042E0,-1.121521924E1,8.846485718E-1,-4.940535064E-1,1.126089848E1
3.697307042E0,-1.139556140E1,8.177454612E-1,-7.991401327E-1,1.145277924E1
3.707310042E0,-1.149778009E1,7.849462359E-1,-8.534946799E-1,1.155610404E1
3.717312042E0,-1.160719786E1,8.371054461E-1,-6.517037594E-1,1.165557830E1
3.727315042E0,-1.149372680E1,1.063607650E0,-3.640383641E-1,1.154857311E1
3.737318042E0,-1.133341486E1,1.306176175E0,7.134779848E-2,1.140865807E1
3.747321042E0,-1.126577193E1,1.332433974E0,8.163730466E-1,1.137363013E1
3.757324042E0,-1.134720961E1,1.034066713E0,1.759674966E0,1.152930682E1
3.767326042E0,-1.151546908E1,6.709313048E-1,2.923629169E0,1.189973884E1
3.777329042E0,-1.169049496E1,4.377376934E-1,4.258735028E0,1.244974340E1
3.787332042E0,-1.197181386E1,1.343568827E-1,5.630158821E0,1.323030866E1
3.797335042E0,-1.226881733E1,6.763167366E-2,6.836315449E0,1.404505827E1
3.807337042E0,-1.221724723E1,2.340656506E-1,7.965376539E0,1.458640257E1
3.817340042E0,-1.231670369E1,2.641181463E-1,8.845739760E0,1.516634630E1
3.827343042E0,-1.260595609E1,1.398036006E-1,9.006288514E0,1.549331814E1
3.837346042E0,-1.279091288E1,3.488120318E-1,8.653847591E0,1.544727161E1
3.847349042E0,-1.249923505E1,5.592552235E-1,7.759372115E0,1.472248277E1
3.857351042E0,-1.176027680E1,6.502283607E-1,6.396085600E0,1.340286605E1
3.867354042E0,-1.097867130E1,8.389963625E-1,4.898392939E0,1.205111579E1
3.877357042E0,-1.023872955E1,1.103573515E0,3.873835334E0,1.100254777E1
3.887360042E0,-9.850041733E0,1.229745466E0,3.573245180E0,1.055005579E1
3.897362042E0,-9.861382992E0,9.979026340E-1,3.246878160E0,1.043000009E1
3.907365042E0,-9.079122017E0,1.131793274E0,2.617936442E0,9.516564707E0
3.917368042E0,-8.726888085E0,1.217724760E0,2.286238516E0,9.103203600E0
3.927371042E0,-9.846849153E0,8.335321395E-1,3.770378793E0,1.057690741E1
3.937374042E0,-9.420381895E0,1.168161421E0,8.594738088E0,1.280537852E1
3.947376042E0,1.020619798E0,2.444913530E0,1.979011889E1,1.996667405E1
3.957379042E0,2.364593895E1,-1.597244431E-1,3.204317213E1,3.982362140E1
3.967382042E0,4.750924464E1,-1.080912923E0,4.214821328E1,6.351982826E1
3.977385042E0,6.246969672E1,-4.232804527E-1,3.838423426E1,7.332115394E1
3.987388042E0,7.549217571E1,1.899809921E0,1.205388421E1,7.647204716E1
3.997390042E0,6.353270182E1,-2.946198836E0,-5.921013361E-1,6.360373316E1
4.007393042E0,4.074224793E1,-4.565255721E0,1.527989600E1,4.375211479E1
4.017396042E0,2.734412276E1,-1.292030445E0,1.691622292E0,2.742684776E1
4.027399042E0,1.934478325E1,-1.102492219E0,-1.572599294E0,1.943988675E1
4.037401042E0,1.541307920E1,-7.816272832E-1,-1.286828324E1,2.009394598E1
4.047404042E0,1.376409071E1,1.124306207E0,-1.657780362E1,2.157632569E1
4.057407042E0,1.186978462E1,2.445810639E0,-1.392584457E1,1.846084840E1
4.067410042E0,9.008742591E0,2.349939107E0,-4.270085936E0,1.024271891E1
4.077413042E0,-2.369077190E0,1.347632204E0,7.826237365E0,8.287257120E0
4.087415042E0,-1.252728531E1,-1.037623208E0,-1.019632203E1,1.618562702E1
4.097418042E0,-8.955006679E0,-2.831086748E0,-3.081216717E1,3.221175007E1
4.107421042E0,-4.785805678E-1,-2.772661954E0,-3.278604451E1,3.290655570E1
4.117424042E0,8.939102252E0,-1.155704366E0,-2.265268179E1,2.438005730E1
4.127426042E0,1.385192407E1,-3.269541530E-1,-1.567420415E1,2.092040572E1
4.137429042E0,1.567427081E1,3.261547198E-2,-1.143378699E1,1.940142557E1
4.147432042E0,1.647565627E1,5.470249314E-1,-8.410780005E0,1.850642338E1
4.157435042E0,1.676354277E1,5.477388033E-1,-8.359512788E0,1.874027316E1
4.167438042E0,1.602485700E1,5.188543985E-1,-6.263309366E0,1.721320121E1
4.177440042E0,1.532139369E1,4.063431520E-1,-4.285678121E0,1.591468681E1
4.187443042E0,1.351263705E1,-3.202247386E-1,-2.609449208E0,1.376601355E1
4.197446042E0,1.226153521E1,-3.093138342E-1,-1.104567980E0,1.231507171E1
4.207449042E0,1.047128384E1,-1.777811567E-1,5.327784097E-1,1.048633607E1
4.217451042E0,7.632210962E0,-5.979014817E-1,1.893883329E0,7.886375873E0
4.227454042E0,5.019721202E0,-8.212817111E-1,2.921008154E0,5.865525827E0
4.237457042E0,3.049374418E0,-8.703994920E-1,3.806132178E0,4.954081325E0
4.247460042E0,1.421660439E0,-1.122839068E0,4.470196366E0,4.823333031E0
4.257462042E0,-1.766326904E-2,-1.118736953E0,4.847344700E0,4.974799996E0
4.267465042E0,-1.403642244E0,-8.207546577E-1,5.184113916E0,5.433128643E0
4.277468042E0,-2.698359046E0,-4.918509699E-1,5.754489337E0,6.374731873E0
4.287471042E0,-3.831486874E0,-2.210579346E-1,6.419669759E0,7.479392896E0
4.297474042E0,-4.856135404E0,-7.666430622E-3,6.967701800E0,8.492995833E0
4.307476042E0,-5.704702050E0,3.078230866E-1,7.234397984E0,9.218182832E0
4.317479042E0,-6.262950931E0,6.871172018E-1,7.274039183E0,9.623322215E0
4.327482042E0,-6.721688973E0,8.967998169E-1,7.401053571E0,1.003797522E1
4.337485042E0,-6.976131731E0,1.186549525E0,7.406724785E0,1.024372421E1
4.347487042E0,-7.004322327E0,1.440985194E0,7.654621586E0,1.047521843E1
4.357490042E0,-6.859989656E0,1.540710919E0,8.401380606E0,1.095520170E1
4.367493042E0,-6.579987549E0,1.745387148E0,9.246728945E0,1.148236076E1
4.377496042E0,-6.231809830E0,2.041014770E0,1.036955749E1,1.226902268E1
4.387499042E0,-5.772792292E0,2.333715568E0,1.188037042E1,1.341322335E1
4.397501042E0,-5.116986710E0,2.708812990E0,1.400141048E1,1.515126121E1
4.407504042E0,-4.570678428E0,2.784528294E0,1.530554422E1,1.621432648E1
4.417507042E0,-4.479723819E0,2.069891975E0,1.395070109E1,1.479778494E1
4.427510042E0,-4.814258814E0,1.409243876E0,1.086016929E1,1.196270593E1
4.437512042E0,-5.144845769E0,1.808740706E0,8.081440262E0,9.749392680E0
4.447514375E0,-4.879879192E0,2.453967066E0,5.106783904E0,7.477594341E0
4.457517375E0,-4.800578084E0,3.053768308E0,8.845305312E-1,5.757902837E0
4.467520375E0,-7.272671519E0,3.643142503E0,-5.921684037E0,1.006134087E1
4.477522375E0,-1.051172669E1,3.429076523E0,-6.101226302E0,1.262853619E1
4.487525375E0,-1.215848505E1,2.561708447E0,-4.410165927E0,1.318486528E1
4.497528375E0,-1.287220438E1,2.017206662E0,-4.848051628E0,1.390202765E1
4.507531375E0,-1.339572782E1,1.497355130E0,-4.317198706E0,1.415364973E1
4.517533375E0,-1.311855342E1,1.493171301E0,-3.662767513E0,1.370189294E1
4.527536375E0,-1.275954140E1,1.702787258E0,-2.925987351E0,1.320101447E1
4.537539375E0,-1.267503042E1,1.846470596E0,-2.476857162E0,1.304609793E1
4.547542375E0,-1.270630835E1,1.939142532E0,-2.243398306E0,1.304773473E1
4.557545375E0,-1.256417423E1,2.035345017E0,-2.016105631E0,1.288665144E1
4.567547375E0,-1.237287438E1,2.145139794E0,-1.627368409E0,1.266246315E1
4.577550375E0,-1.209277989E1,2.350411269E0,-1.182671725E0,1.237572103E1
4.587553375E0,-1.177329153E1,2.625074430E0,-7.933120666E-1,1.208845537E1
4.597556375E0,-1.148641544E1,2.788417861E0,-3.004581530E-1,1.182384408E1
4.607558375E0,-1.121268038E1,2.930300549E0,3.091592485E-1,1.159337923E1
4.617561375E0,-1.104604175E1,3.128236400E0,1.181134638E0,1.154105629E1
4.627564375E0,-1.103881810E1,3.311363009E0,2.278401493E0,1.174783994E1
4.637567375E0,-1.103795037E1,3.732198814E0,3.158175899E0,1.207227118E1
4.647569375E0,-1.115200031E1,4.334018514E0,3.454647274E0,1.245332948E1
4.657572375E0,-1.136402620E1,4.208112466E0,4.173564777E0,1.281670570E1
4.667575375E0,-1.160582260E1,3.440782064E0,5.678738658E0,1.337094507E1
4.677578375E0,-1.174386133E1,2.588224108E0,7.387095097E0,1.411333968E1
4.687580375E0,-1.181881562E1,1.685339313E0,9.124258429E0,1.502587312E1
4.697583375E0,-1.179762531E1,6.783460128E-1,9.994201326E0,1.547669785E1
4.707586375E0,-1.156469913E1,-3.579501700E-1,9.352268264E0,1.487734237E1
4.717589375E0,-1.112994812E1,-9.636035979E-1,7.045141740E0,1.320750920E1
4.727592375E0,-1.128396378E1,-1.414525959E0,4.087783785E0,1.208464723E1
4.737594375E0,-1.127466671E1,-1.753990449E0,2.359297721E0,1.165164699E1
4.747597375E0,-1.042326182E1,-1.887122924E0,1.799975291E0,1.074455821E1
4.757600375E0,-9.615877703E0,-2.020936893E0,1.566696530E0,9.950066730E0
4.767603375E0,-9.561551807E0,-2.171380343E0,1.528481321E0,9.923427870E0
4.777605375E0,-8.916448969E0,-1.819474586E0,2.944070157E0,9.564575217E0
4.787608375E0,-7.011606204E0,-1.178696495E0,5.296604404E0,8.866000519E0
4.797611375E0,5.619639680E0,1.124321629E-1,1.607244982E1,1.702693849E1
4.807614375E0,3.630126894E1,2.015172269E0,3.903143917E1,5.334131878E1
4.817616375E0,6.851837936E1,3.558290633E0,5.678669427E1,8.906266552E1
4.827619375E0,7.634471379E1,4.026106477E0,4.235632738E1,8.740013344E1
4.837622375E0,7.035620602E1,2.617704015E0,1.436171825E1,7.185476359E1
4.847625375E0,5.700482348E1,-1.063128690E0,3.599781014E0,5.712826416E1
4.857628375E0,5.122648335E1,-9.965654489E-1,-4.073001556E1,6.545288311E1
4.867630375E0,3.842455432E1,-2.956366267E0,-3.431011659E1,5.159816447E1
4.877633375E0,3.079367126E1,2.946005293E0,-1.015245037E0,3.095092663E1
4.887636375E0,2.047912438E1,7.800236551E0,9.045806336E0,2.370790665E1
4.897639375E0,6.316288648E0,8.592910833E0,2.386266717E1,2.613733926E1
4.907641375E0,-8.648058847E0,9.262992976E0,2.603766299E1,2.895775984E1
4.917644375E0,-1.375574907E1,4.623423530E0,-8.693113983E-1,1.453796340E1
4.927647375E0,-1.166757387E1,-4.238275036E0,-2.464080995E1,2.759102699E1
4.937650375E0,-6.780037753E0,-7.651791533E0,-3.782151460E1,3.917889473E1
4.947652375E0,2.181730646E0,-6.813948680E0,-3.086797768E1,3.168630447E1
4.957655375E0,1.171490475E1,-4.709410052E0,-2.464590171E1,2.769184008E1
4.967658375E0,1.655635136E1,-3.494774376E0,-2.290006813E1,2.847348483E1
4.977661375E0,1.789954333E1,-2.566936150E0,-1.324618294E1,2.241526656E1
4.987663375E0,1.825024179E1,-3.155136735E-1,-6.763918149E0,1.946590514E1
4.997666375E0,1.605026666E1,2.818288509E-1,-7.061902784E0,1.753741595E1
5.007669375E0,1.377409062E1,-3.925085302E-1,-6.459531398E0,1.521858013E1
5.017672375E0,1.226309875E1,-6.322880799E-1,-4.468315317E0,1.306710454E1
5.027675375E0,1.137256313E1,-3.551850948E-1,-2.529152904E0,1.165581242E1
5.037677375E0,1.008367074E1,-2.797105508E-1,-8.115414923E-1,1.012014097E1
5.047680375E0,7.844246789E0,-4.259798929E-1,6.739793122E-1,7.884663257E0
5.057683375E0,5.116071621E0,-5.566943988E-1,2.185281660E0,5.591024362E0
5.067686375E0,2.578862423E0,-6.319852672E-1,3.319447369E0,4.250725539E0
5.077688375E0,1.092289120E-1,-7.836561940E-1,4.374195026E0,4.445180548E0
5.087691375E0,-2.145311848E0,-9.902681438E-1,5.511045191E0,5.996216559E0
5.097694375E0,-4.101870312E0,-1.187932611E0,6.302732463E0,7.613209602E0
5.107697375E0,-5.541759446E0,-1.027060433E0,6.632573313E0,8.703848553E0
5.117699375E0,-6.147404687E0,-5.782210694E-1,7.441506363E0,9.669588458E0
5.127702375E0,-6.303282686E0,-2.905056438E-1,8.552842203E0,1.062858767E1
5.137705375E0,-6.174621137E0,-1.370502930E-1,9.098446480E0,1.099665664E1
5.147708375E0,-6.000333765E0,-1.023557658E-1,9.583478281E0,1.130741075E1
5.157710375E0,-5.898419135E0,-1.710851446E-1,1.008324273E1,1.168299629E1
5.167713375E0,-5.323858861E0,5.462673515E-2,1.066676444E1,1.192167442E1
5.177716375E0,-4.097929873E0,7.126110620E-1,1.136691005E1,1.210402775E1
5.187719375E0,-2.658350058E0,9.088601377E-1,1.370120273E1,1.398627213E1
5.197721375E0,-7.670108521E-1,7.559991563E-1,1.742801568E1,1.746125914E1
5.207724375E0,1.302636856E0,5.339098459E-1,2.143065582E1,2.147684640E1
5.217727375E0,1.951621660E0,-7.373265848E-3,2.245229771E1,2.253695973E1
5.227730375E0,1.190370315E0,3.718302906E-2,1.818750701E1,1.822645811E1
5.237732375E0,4.401257694E-1,8.168647975E-1,1.343675773E1,1.346875781E1
5.247735375E0,1.796825981E-1,1.563238048E0,9.071531746E0,9.206991216E0
5.257738375E0,-3.499336374E-1,1.756796820E0,4.951509338E0,5.265570562E0
5.267741375E0,-5.027966360E0,1.381525589E0,-2.952580195E0,5.992227339E0
5.277743375E0,-1.054480556E1,2.851297064E0,-9.665463846E0,1.458574683E1
5.287746375E0,-1.276373970E1,3.699150643E0,-9.942654612E0,1.659678123E1
5.297749375E0,-1.372458692E1,2.353462200E0,-7.627062489E0,1.587687477E1
5.307752375E0,-1.407399314E1,1.940048705E0,-6.676877081E0,1.569782658E1
5.317754375E0,-1.442076577E1,1.939490149E0,-5.425798634E0,1.552930772E1
5.327757375E0,-1.449780868E1,1.863087360E0,-4.167668445E0,1.519957274E1
5.337760375E0,-1.407576367E1,1.915737298E0,-3.522101339E0,1.463565408E1
5.347763375E0,-1.383578693E1,1.880281682E0,-3.248265705E0,1.433581840E1
5.357766375E0,-1.346255447E1,1.987621066E0,-3.385664747E0,1.402332829E1
5.367768375E0,-1.292422004E1,2.277479241E0,-3.360781921E0,1.354685316E1
5.377771375E0,-1.258131826E1,2.522026318E0,-3.101883000E0,1.320120692E1
5.387774375E0,-1.230852928E1,3.284906112E0,-2.654221631E0,1.301289336E1
5.397777375E0,-1.215939955E1,4.286650513E0,-2.493799177E0,1.313184696E1
5.407779375E0,-1.213052483E1,4.595158089E0,-2.871355353E0,1.328569878E1
5.417782375E0,-1.214764782E1,4.539398164E0,-3.008217621E0,1.331243240E1
5.427785375E0,-1.217078525E1,4.438309745E0,-3.301871223E0,1.336895511E1
5.437788375E0,-1.240435111E1,4.261472987E0,-4.333977584E0,1.381345142E1
5.447790625E0,-1.305295936E1,4.070276052E0,-6.353693286E0,1.507701275E1
5.457793625E0,-1.433408080E1,3.152317866E0,-9.647583060E0,1.756356567E1
5.467796625E0,-1.581860114E1,1.531850048E0,-1.317731794E1,2.064500944E1
5.477799625E0,-1.625305161E1,-3.697323461E-1,-1.494443889E1,2.208245100E1
5.487801625E0,-1.494176906E1,-1.108784408E0,-1.543009109E1,2.150752371E1
5.497804625E0,-1.165451821E1,-7.201520333E-2,-1.095471175E1,1.599495828E1
5.507807625E0,-9.953245089E0,7.264927905E-1,-5.474438698E0,1.138263408E1
5.517810625E0,-9.881485720E0,6.616738468E-1,-2.909185961E0,1.032206061E1
5.527812625E0,-1.008997170E1,2.654792867E-1,-2.619463150E0,1.042782793E1
5.537815625E0,-1.032088526E1,-1.905752117E-1,-3.384745565E0,1.086340159E1
5.547818625E0,-1.062708992E1,-6.192248885E-1,-3.986776058E0,1.136718359E1
5.557821625E0,-9.863197968E0,-6.688646065E-1,-4.513887346E0,1.086762315E1
5.567823625E0,-8.959024301E0,-5.606644390E-1,-4.883018562E0,1.021872454E1
5.577826625E0,-9.106007515E0,-5.106820010E-1,-4.760687209E0,1.028806647E1
5.587829625E0,-1.134326157E1,-1.275769905E-1,-4.921121358E0,1.236540716E1
5.597832625E0,-1.400129704E1,1.498414701E-1,-8.708889771E0,1.648949764E1
5.607834625E0,-1.423384900E1,1.949178839E0,-1.202472648E1,1.873488197E1
5.617837625E0,5.574558232E0,7.801108079E-1,1.942998888E1,2.022890853E1
5.627840625E0,5.578067380E1,-3.310494989E0,7.279002299E1,9.176508265E1
5.637843625E0,8.805727146E1,-2.454074655E0,8.073787660E1,1.194935574E2
5.647845625E0,8.600197048E1,-3.438847220E0,4.770097718E1,9.840501929E1
5.657848625E0,6.686209238E1,-2.774857291E0,2.386651230E1,7.104822052E1
5.667851625E0,3.645911101E1,-3.204400770E0,2.277805779E1,4.310887237E1
5.677854625E0,2.123807192E1,-1.369079352E0,-3.808668700E-1,2.128556170E1
5.687856625E0,1.435589442E1,-5.113959461E-1,-1.247474574E1,1.902557520E1
5.697859625E0,1.068550477E1,-5.324513311E-1,-2.395367090E1,2.623436422E1
5.707862625E0,1.197923164E1,-4.159997921E-1,-4.127394227E1,4.297922006E1
5.717865625E0,1.506390102E1,-9.932031537E-1,-3.945362919E1,4.224330033E1
5.727867625E0,1.503935441E1,1.780235091E0,-9.483759280E0,1.786877467E1
5.737870625E0,-6.674921188E0,6.433281493E0,1.973520652E1,2.180412943E1
5.747873625E0,-1.906668032E1,4.220188721E0,-1.108365806E1,2.245430398E1
5.757876625E0,-7.129538112E0,-1.040879669E0,-3.120056029E1,3.202169119E1
5.767878625E0,4.235653437E0,-7.743445031E-1,-2.890334830E1,2.922231874E1
5.777881625E0,1.207399045E1,4.975428324E-1,-1.945727784E1,2.290446365E1
5.787884625E0,1.343126485E1,9.634404240E-2,-1.085597917E1,1.727021834E1
5.797887625E0,1.281396026E1,-5.933996373E-1,-7.968869666E0,1.510141002E1
5.807889625E0,1.339259605E1,-4.683234552E-1,-6.480702996E0,1.488557916E1
5.817892625E0,1.563866828E1,4.480005071E-1,-4.774962602E0,1.635753398E1
5.827895625E0,1.769001421E1,1.016540634E0,-2.786943194E0,1.793702901E1
5.837898625E0,1.883071009E1,1.659868549E0,-4.211034905E0,1.936707569E1
5.847900625E0,1.768444766E1,1.800858806E0,-4.545776891E0,1.834793909E1
5.857903625E0,1.512589437E1,1.640946375E0,-2.457678587E0,1.541186457E1
5.867906625E0,1.284983410E1,1.471742133E0,-3.819018272E-1,1.293947875E1
5.877909625E0,1.027933729E1,8.739923137E-1,1.042240462E0,1.036893933E1
5.887912625E0,7.319652143E0,-1.103733400E-1,1.621363319E0,7.497886954E0
5.897914625E0,5.050988018E0,-7.104790941E-1,2.160779780E0,5.539515300E0
5.907917625E0,3.091774333E0,-6.728858829E-1,2.687363942E0,4.151357476E0
5.917920625E0,8.229055560E-1,-4.796156712E-1,3.150403195E0,3.291237615E0
5.927922625E0,-1.082426621E0,-6.090635240E-2,3.786749827E0,3.938887055E0
5.937925625E0,-2.829813225E0,1.271654287E-1,4.604656014E0,5.406188208E0
5.947928625E0,-4.405692807E0,1.525248396E-1,5.285919787E0,6.882902072E0
5.957931625E0,-5.501405472E0,2.776222908E-1,5.905476725E0,8.075716169E0
5.967934625E0,-6.213600431E0,3.848038003E-1,6.413184028E0,8.937887539E0
5.977936625E0,-6.508636315E0,5.463581661E-1,6.972217605E0,9.553673234E0
5.987939625E0,-6.594856433E0,5.897835364E-1,7.288977064E0,9.847292148E0
5.997942625E0,-6.534467559E0,5.208406977E-1,7.261283482E0,9.782473057E0
6.007944625E0,-6.438768520E0,4.082514640E-1,6.903043875E0,9.448620219E0
6.017947625E0,-6.387836348E0,3.472806095E-1,7.291290223E0,9.699895368E0
6.027950625E0,-6.350238166E0,3.787520417E-1,8.349209409E0,1.049658400E1
6.037953625E0,-6.290777830E0,4.690473405E-1,9.530589046E0,1.142917402E1
6.047955625E0,-5.997281519E0,6.567965381E-1,1.089474738E1,1.245368571E1
6.057958625E0,-5.563735621E0,5.794435760E-1,1.259672919E1,1.378290590E1
6.067961625E0,-5.177423531E0,1.986302812E-1,1.380651577E1,1.474669610E1
6.077964625E0,-4.623689286E0,-4.609656114E-2,1.498395555E1,1.568118463E1
6.087966625E0,-4.095787454E0,-1.700100243E-1,1.579797100E1,1.632116007E1
6.097969625E0,-3.910961645E0,-2.005704239E-1,1.461868934E1,1.513413121E1
6.107972625E0,-4.217746924E0,-1.960896660E-1,1.222247932E1,1.293123509E1
6.117975625E0,-4.608298244E0,-2.074312543E-1,8.947293617E0,1.006645437E1
6.127977625E0,-4.828724241E0,-4.524156665E-1,6.139563571E0,7.824033396E0
6.137980625E0,-7.699346938E0,-1.076110020E0,1.565329597E0,7.930208875E0
6.147983625E0,-1.203440596E1,-6.003191592E-1,-4.267141863E0,1.278263704E1
6.157986625E0,-1.615553525E1,-7.189983411E-1,-6.436515588E0,1.740537304E1
6.167988625E0,-1.763292199E1,-1.344859308E0,-7.051823353E0,1.903829817E1
6.177991625E0,-1.493951320E1,-6.255306720E-1,-6.689943269E0,1.638095492E1
6.187994625E0,-1.325496195E1,1.178850935E0,-5.737683270E0,1.449153943E1
6.197997625E0,-1.283573296E1,2.620254863E0,-5.020621088E0,1.402955495E1
6.207999625E0,-1.306520343E1,2.984808586E0,-4.121181327E0,1.402115396E1
6.218002625E0,-1.424557617E1,2.349898907E0,-3.100470605E0,1.476724021E1
6.228005625E0,-1.443424711E1,1.863765929E0,-3.158968197E0,1.489295784E1
6.238008625E0,-1.329812726E1,2.167162308E0,-3.812323502E0,1.400252090E1
6.248010625E0,-1.227696367E1,2.572856748E0,-3.309290463E0,1.297284981E1
6.258013625E0,-1.169444300E1,3.202295480E0,-2.587986126E0,1.239807911E1
6.268016625E0,-1.135662596E1,4.566455277E0,-1.853682698E0,1.237988718E1
6.278018625E0,-1.119484169E1,5.505366960E0,-1.111673371E0,1.252475004E1
6.288021625E0,-1.111184280E1,5.192934440E0,-6.750667481E-1,1.228394618E1
6.298024625E0,-1.078254867E1,4.682751426E0,-6.695167172E-1,1.177453903E1
6.308027625E0,-1.047681647E1,4.432901071E0,-8.175466559E-1,1.140537934E1
6.318029625E0,-1.068167484E1,4.058820479E0,-1.238220420E0,1.149371093E1
6.328032625E0,-1.146942226E1,2.986577076E0,-1.311468490E0,1.192422908E1
6.338035625E0,-1.319701721E1,1.087773242E0,-1.537697849E0,1.333075499E1
6.348038625E0,-1.355317228E1,-6.925429793E-1,-2.737386287E0,1.384418211E1
6.358040625E0,-1.184016614E1,-1.122313695E0,-3.391865720E0,1.236745225E1
6.368043625E0,-1.054927049E1,-8.419949609E-1,-3.201982654E0,1.105661595E1
6.378046625E0,-9.950217401E0,-5.432988298E-1,-2.596004121E0,1.029763261E1
6.388049625E0,-9.253492420E0,-3.944145032E-1,-2.290577150E0,9.540934359E0
6.398051625E0,-8.853835230E0,-5.116718981E-1,-2.536159915E0,9.224115867E0
6.408054625E0,-8.707254889E0,-7.353904255E-1,-2.682989055E0,9.140870694E0
6.418057625E0,-8.995585186E0,-9.530430879E-1,-2.647209942E0,9.425315085E0
6.428060625E0,-9.739610633E0,-1.172972144E0,-4.647651175E0,1.085525405E1
6.438062625E0,-1.097837660E1,-7.711780896E-1,-1.025754939E1,1.504449361E1
6.448066625E0,-1.168639957E1,-1.625704438E0,-1.098017520E1,1.611766414E1
6.458069625E0,2.343092163E0,-3.974823180E0,2.050477027E1,2.101749043E1
6.468072625E0,4.587246865E1,-4.744273636E-1,6.335192462E1,7.821748407E1
6.478074625E0,8.189606501E1,5.867959235E0,7.046735925E1,1.081991087E2
6.488077625E0,8.742435013E1,2.280215591E0,3.809342182E1,9.539038298E1
6.498080625E0,6.845217017E1,2.778340185E0,1.435726969E1,6.999678541E1
6.508083625E0,4.602057628E1,2.694825281E0,1.440660966E1,4.829809444E1
6.518085625E0,2.952656326E1,2.775451661E0,-7.852054576E0,3.067858913E1
6.528088625E0,2.014208619E1,3.202195492E0,-2.088656772E1,2.919257445E1
6.538091625E0,1.769103981E1,4.341166736E0,-3.007214122E1,3.515895755E1
6.548094625E0,1.597921012E1,4.022489682E0,-2.996877181E1,3.420004186E1
6.558096625E0,1.427477015E1,3.526266895E0,-1.086112940E1,1.828025582E1
6.568099625E0,1.603862017E0,4.679940670E0,1.428688909E1,1.511917385E1
6.578102625E0,-1.613268316E1,3.149949451E0,6.373339346E-1,1.644967605E1
6.588104625E0,-9.923464050E0,-7.617594677E-1,-2.950901226E1,3.114220963E1
6.598107625E0,6.587031105E0,-1.398854836E0,-3.684410105E1,3.745441971E1
6.608110625E0,1.825745608E1,-1.398760842E0,-3.176157490E1,3.666181767E1
6.618113625E0,2.407739798E1,-1.278427629E0,-2.033320828E1,3.154036826E1
6.628115625E0,2.569513544E1,-2.910796577E-1,-1.085157505E1,2.789411038E1
6.638118625E0,2.283798941E1,-6.767209939E-3,-6.208295837E0,2.366678565E1
6.648121625E0,1.901017985E1,-3.427349566E-2,-4.586673194E0,1.955570718E1
6.658124625E0,1.668707756E1,-1.565638220E-1,-2.983778014E0,1.695246298E1
6.668126625E0,1.307378714E1,-4.370904432E-1,-1.772479929E0,1.320063041E1
6.678129625E0,9.749777187E0,-3.881792882E-1,-6.815830314E-1,9.781277717E0
6.688132625E0,7.190239812E0,-3.360837031E-1,7.679247719E-1,7.238937025E0
6.698135625E0,4.919203472E0,-3.574130667E-1,2.327657268E0,5.453833079E0
6.708137625E0,2.967173091E0,-2.139268349E-1,3.562319657E0,4.641120790E0
6.718140625E0,1.338410121E0,3.291312175E-1,4.602247546E0,4.804201441E0
6.728143625E0,-2.040847832E-1,6.715580533E-1,5.662398030E0,5.705733280E0
6.738145625E0,-1.738810492E0,7.772064959E-1,6.490629230E0,6.764301861E0
6.748148625E0,-3.106462539E0,8.042676292E-1,7.281062273E0,7.956809898E0
6.758151625E0,-4.303786948E0,9.079269952E-1,7.946031026E0,9.082198114E0
6.768154625E0,-5.265416526E0,9.016204076E-1,8.294948418E0,9.866291086E0
6.778156625E0,-5.694503921E0,7.567362709E-1,8.610525570E0,1.035090215E1
6.788159625E0,-5.662352421E0,7.133453992E-1,8.655954927E0,1.036805924E1
6.798162625E0,-5.490012172E0,8.214152469E-1,8.610737239E0,1.024498670E1
6.808165625E0,-5.240150122E0,9.745226153E-1,8.879410951E0,1.035629309E1
6.818167625E0,-4.942308744E0,1.135331936E0,9.431096333E0,1.070798638E1
6.828170625E0,-4.417410627E0,1.453727154E0,1.050255942E1,1.148610438E1
6.838173625E0,-3.298726591E0,2.132524426E0,1.247813830E1,1.308178860E1
6.848176625E0,-2.001214235E0,2.308787718E0,1.453751128E1,1.485512010E1
6.858178625E0,-1.356425393E0,1.491274319E0,1.642569649E1,1.654893635E1
6.868181625E0,-1.070172027E0,1.193788963E0,1.727170674E1,1.734595786E1
6.878184625E0,-9.232484543E-1,1.475793815E0,1.677287492E1,1.686296796E1
6.888186625E0,-1.146478776E0,1.869640334E0,1.610204843E1,1.625072098E1
6.898189625E0,-2.032071746E0,1.869645889E0,1.521153035E1,1.546012765E1
6.908192625E0,-3.392373843E0,1.312227897E0,1.486446653E1,1.530302282E1
6.918195625E0,-4.955364992E0,3.902002687E-1,1.336974513E1,1.426386986E1
6.928197625E0,-7.040469230E0,-3.924703405E-1,8.532584524E0,1.106920226E1
6.938200625E0,-9.199089925E0,-2.639307430E-1,3.941722092E0,1.001149779E1
6.948203625E0,-1.171105143E1,1.532795689E-1,1.060086164E0,1.175993210E1
6.958206625E0,-1.362309680E1,-8.238277350E-2,-7.336698823E-1,1.364308707E1
6.968208625E0,-1.411303032E1,-3.619367286E-1,-1.142703667E0,1.416384110E1
6.978211625E0,-1.351700375E1,-5.081112361E-1,-9.075847869E-1,1.355696417E1
6.988214625E0,-1.319030344E1,-5.923248094E-1,-4.116450052E-1,1.321001154E1
6.998216625E0,-1.279060415E1,-5.280211882E-1,7.327474840E-1,1.282245217E1
7.008219625E0,-1.206198962E1,-6.273294217E-1,2.393266244E0,1.231311736E1
7.018222625E0,-1.167588394E1,-8.245233344E-1,4.966271803E0,1.271495026E1
7.028225625E0,-1.149380164E1,-7.435548196E-1,8.240724263E0,1.416226982E1
7.038227625E0,-1.143139080E1,-5.698662571E-2,1.125009437E1,1.603884555E1
7.048230625E0,-1.148010045E1,7.779700691E-1,1.259067030E1,1.705646277E1
7.058233625E0,-1.348044111E1,1.296745640E0,1.293402816E1,1.872679701E1
7.068236625E0,-1.962693246E1,-8.150477752E-1,1.030604269E1,2.218322106E1
7.078238625E0,-2.718165670E1,-3.311408325E0,9.149842921E0,2.887087653E1
7.088241625E0,-2.762674442E1,-9.807540661E-1,9.697805965E0,2.929584145E1
7.098244625E0,-2.173401170E1,1.243991037E0,6.523023389E0,2.272585780E1
7.108246625E0,-1.650200266E1,1.408863076E0,5.788872135E0,1.754457259E1
7.118249625E0,-1.318437436E1,1.005389190E0,6.052715462E0,1.454214218E1
7.128252625E0,-1.121854280E1,5.323075261E-1,5.606684005E0,1.255284666E1
7.138255625E0,-1.051257103E1,1.084226540E-1,5.262906901E0,1.175687433E1
7.148257625E0,-1.033153188E1,3.237160197E-2,4.937763119E0,1.145089968E1
7.158260625E0,-1.029972653E1,1.785874877E-1,4.633866072E0,1.129552898E1
7.168263625E0,-1.042984696E1,3.372610034E-1,4.567402818E0,1.139107638E1
7.178266625E0,-1.058108636E1,4.385215858E-1,5.276750184E0,1.183198133E1
7.188268625E0,-1.058291888E1,4.071509083E-1,7.241960188E0,1.283004019E1
7.198271625E0,-1.001711773E1,1.983511132E-1,9.425124571E0,1.375554303E1
7.208274625E0,-8.783941122E0,-5.608784471E-2,1.100995507E1,1.408473919E1
7.218276625E0,-7.225602602E0,-3.125643014E-1,1.209160811E1,1.408950020E1
7.228279625E0,-5.261721085E0,-8.174843831E-1,1.364183712E1,1.464423810E1
7.238282625E0,-3.023388807E0,-1.749682513E0,1.512837125E1,1.552642539E1
7.248285625E0,-1.480655921E0,-1.632575208E0,1.309344080E1,1.327764421E1
7.258287625E0,-3.659398055E-1,3.506673168E-1,1.026460464E1,1.027710991E1
7.268290625E0,1.024377218E1,1.275286212E0,1.863176559E1,2.130032658E1
7.278293625E0,4.887581846E1,1.632034926E0,4.821723487E1,6.867613055E1
7.288296625E0,8.640012377E1,1.447516973E0,5.022961729E1,9.995044345E1
7.298298625E0,8.888549915E1,-6.618148232E0,3.669255759E1,9.638866960E1
7.308301625E0,6.951327609E1,-6.474383910E0,2.294870293E1,7.348915679E1
7.318304625E0,4.575699783E1,-4.411489444E0,1.351010871E0,4.598901304E1
7.328306625E0,3.042212749E1,-1.468522802E0,-1.199729836E1,3.273526490E1
7.338309625E0,2.163742272E1,4.209268753E0,-1.602628840E1,2.725321862E1
7.348312625E0,1.092785198E1,6.061748825E0,-1.329373132E1,1.824516484E1
7.358315625E0,-1.506012138E1,6.547618532E0,8.870234331E0,1.866439448E1
7.368317625E0,-2.215691041E1,-4.068730925E0,-4.590645267E1,5.113595258E1
7.378320625E0,-5.358339892E0,-7.473602314E0,-6.039869714E1,6.109475554E1
7.388323625E0,5.604873122E0,-5.299603441E0,-4.362718929E1,4.430386038E1
7.398326625E0,1.762044871E1,-4.578080126E0,-2.175426646E1,2.836700794E1
7.408328625E0,2.396208153E1,-5.477737697E0,-1.300961395E1,2.781073564E1
7.418331625E0,2.439172558E1,-6.128773119E0,-1.004333899E1,2.708111510E1
7.428334625E0,2.502654609E1,-5.193558338E0,-6.128065606E0,2.628410633E1
7.438336625E0,2.370999169E1,-4.237537117E0,-4.454977818E0,2.449422900E1
7.448338542E0,2.210029065E1,-2.809172261E0,-3.058781711E0,2.248711722E1
7.458341542E0,2.023145036E1,-1.157054781E0,-3.034210249E0,2.049040730E1
7.468344542E0,1.914371388E1,1.017899015E-1,-2.754435306E0,1.934112345E1
7.478346542E0,1.767599258E1,6.001750984E-1,1.477485268E0,1.774778540E1
7.488349542E0,1.651231481E1,1.985746157E0,6.494013598E0,1.785418552E1
7.498352542E0,1.492729720E1,3.737990481E0,7.967494401E0,1.732852393E1
7.508355542E0,1.119455518E1,4.157579075E0,8.219756148E0,1.449716940E1
7.518357542E0,6.498262185E0,3.719204254E0,9.020871470E0,1.172331070E1
7.528360542E0,9.758254480E-1,2.506398464E0,7.569731709E0,8.033374553E0
7.538363542E0,-3.320876428E0,1.346504276E0,6.512611252E0,7.433397564E0
7.548365542E0,-6.769869445E0,3.109252172E-1,5.497819374E0,8.726615877E0
7.558368542E0,-8.959673926E0,-2.677476592E-1,4.239188371E0,9.915551609E0
7.568371542E0,-9.234188422E0,-6.280532339E-1,3.841535314E0,1.002108179E1
7.578374542E0,-9.227522596E0,-8.717064178E-1,3.849969631E0,1.003639933E1
7.588376542E0,-1.008513372E1,-1.080024366E0,3.744069538E0,1.081177282E1
7.598379542E0,-1.145638765E1,-1.611403318E0,4.261115137E0,1.232893105E1
7.608382542E0,-1.275009814E1,-2.103387896E0,4.742312042E0,1.376512865E1
7.618384542E0,-1.420021113E1,-2.499453726E0,5.914815313E0,1.558455342E1
7.628387542E0,-1.535357208E1,-2.992954927E0,5.482023121E0,1.657535919E1
7.638390542E0,-1.470314769E1,-2.551264735E0,3.331093561E0,1.529011734E1
7.648393542E0,-1.275599097E1,-1.411325485E0,1.706822714E0,1.294682930E1
7.658395542E0,-1.173780127E1,-4.878563715E-1,7.720491055E-1,1.177327662E1
7.668398542E0,-1.189473119E1,5.464175519E-1,1.329803897E0,1.198130129E1
7.678401542E0,-1.250250247E1,1.272389355E0,2.978838579E0,1.291530186E1
7.688404542E0,-1.257008459E1,1.816415469E0,5.986656543E0,1.404088489E1
7.698406542E0,-1.192686982E1,1.615409830E0,9.430898112E0,1.529057265E1
7.708409542E0,-1.115593783E1,8.429099771E-1,1.392923596E1,1.786586299E1
7.718412542E0,-1.082113795E1,-3.031020081E-1,1.782493871E1,2.085467184E1
7.728414542E0,-9.579254837E0,-9.227353612E-1,1.828868489E1,2.066614523E1
7.738417542E0,-8.655341554E0,-1.396491684E0,1.652032082E1,1.870257005E1
7.748420542E0,-9.386123058E0,-1.513901435E0,1.528393642E1,1.799971989E1
7.758423542E0,-1.011722791E1,-1.033845980E0,1.458341660E1,1.777929070E1
7.768425542E0,-1.060603526E1,-8.589607302E-1,1.349222909E1,1.718330711E1
7.778428542E0,-1.116353219E1,-1.149904806E0,1.212202415E1,1.651938866E1
7.788431542E0,-1.180062376E1,-1.492601490E0,1.114629928E1,1.630099898E1
7.798433542E0,-1.243764516E1,-1.766481563E0,1.018032756E1,1.616955607E1
7.808436542E0,-1.302476876E1,-1.696388066E0,9.010797887E0,1.592849058E1
7.818439542E0,-1.306142496E1,-4.324438436E-1,7.634303096E0,1.513507229E1
7.828442542E0,-1.620173410E1,1.100055099E0,7.555635826E0,1.791072142E1
7.838444542E0,-2.843230597E1,-1.167065360E0,8.563740828E0,2.971692651E1
7.848447542E0,-2.979064924E1,-7.755360194E-1,8.433702260E0,3.097114096E1
7.858450542E0,-2.074440554E1,1.639772546E0,4.075889964E0,2.120453004E1
7.868452542E0,-1.417457226E1,2.289097366E0,2.622547264E0,1.459576033E1
7.878455542E0,-1.105187610E1,1.521495214E0,2.007894240E0,1.133536732E1
7.888458542E0,-1.000940876E1,5.094549994E-1,1.199273213E0,1.009386271E1
7.898461542E0,-9.894610380E0,-2.910570363E-1,4.674030304E-1,9.909918989E0
7.908463542E0,-9.749501199E0,-7.822866299E-1,-3.311272377E-1,9.786439150E0
7.918466542E0,-9.362498553E0,-9.813484356E-1,-1.408480230E0,9.518573447E0
7.928469542E0,-8.843244168E0,-9.629101912E-1,-2.853376334E0,9.341944121E0
7.938471542E0,-8.384420173E0,-8.491700792E-1,-4.551742221E0,9.577992937E0
7.948474542E0,-8.220429747E0,-7.634019506E-1,-6.024915460E0,1.022046252E1
7.958477542E0,-8.116043499E0,-6.357619838E-1,-6.880665411E0,1.065917032E1
7.968480542E0,-8.067578267E0,-5.045969499E-1,-7.143574938E0,1.078754375E1
7.978482542E0,-8.065394332E0,-3.616556237E-1,-6.741393505E0,1.051797352E1
7.988485542E0,-7.958957466E0,-3.140814712E-1,-6.243765632E0,1.012068478E1
7.998488542E0,-7.831559501E0,-3.719522415E-1,-6.559792435E0,1.022264885E1
8.008490542E0,-7.923204666E0,-4.224094369E-1,-7.075679408E0,1.063112605E1
8.018493542E0,-8.305841196E0,-5.599757101E-1,-6.919413739E0,1.082491835E1
8.028496542E0,-9.221137437E0,-5.800253375E-1,-6.675383703E0,1.139853291E1
8.038498542E0,-1.105165157E1,-1.557666821E-1,-6.596198954E0,1.287140654E1
8.048501542E0,-1.404704098E1,6.583994061E-1,-8.748864845E0,1.656186844E1
8.058504542E0,-1.902694147E1,1.056573742E0,-1.388176241E1,2.357634784E1
8.068507542E0,-2.152692204E1,2.083345249E0,-2.006678575E1,2.950295900E1
8.078509542E0,-1.145851720E1,2.854369484E0,-1.511280245E1,1.917920331E1
8.088512542E0,1.395185884E1,-2.394268310E0,4.542698566E1,4.758148707E1
8.098515542E0,5.574291482E1,-6.099018978E0,9.536946256E1,1.106336521E2
8.108518542E0,8.647473424E1,-5.065500222E0,7.055536218E1,1.117210727E2
8.118520542E0,9.479870882E1,-6.762927631E0,5.044656770E1,1.075982740E2
8.128523542E0,7.494175158E1,-9.328845488E0,3.554430243E1,8.346670547E1
8.138526542E0,4.663278444E1,-6.305248520E0,4.232148323E0,4.724705094E1
8.148528542E0,2.989604648E1,-3.539082822E0,-1.403383212E1,3.321516440E1
8.158531542E0,2.453277212E1,9.310096098E-1,-3.437660411E1,4.224304199E1
8.168534542E0,2.406516093E1,4.515333948E0,-5.521583277E1,6.040122846E1
8.178537542E0,2.643104028E1,7.618646007E0,-4.125982008E1,4.958847053E1
8.188539542E0,2.135821349E1,1.076133497E1,6.447786680E0,2.477001346E1
8.198542542E0,-5.967358392E0,8.952478927E0,2.809805573E1,3.008748878E1
8.208545542E0,-2.279648353E1,3.499116518E0,-3.585950887E0,2.334057672E1
8.218547542E0,-1.216045556E1,-1.754864607E0,-2.498976944E1,2.784680962E1
8.228550542E0,6.050692910E-1,-2.930754586E0,-3.147846208E1,3.162038909E1
8.238553542E0,1.067052186E1,-2.593981569E0,-2.598314122E1,2.820837473E1
8.248556542E0,1.598251614E1,-1.582867443E0,-1.882135103E1,2.474246443E1
8.258558542E0,1.740645231E1,-5.761311284E-1,-1.761347766E1,2.476996376E1
8.268561542E0,1.706781667E1,1.972592005E-2,-1.388030763E1,2.199940214E1
8.278564542E0,1.645787138E1,2.511202793E-1,-1.131806825E1,1.997556660E1
8.288566542E0,1.731035800E1,7.692104284E-1,-1.030411896E1,2.015973825E1
8.298569542E0,1.998368746E1,1.042046481E0,-5.373553762E0,2.071976605E1
8.308572542E0,2.254865514E1,2.177496092E0,-8.710415894E-1,2.267029006E1
8.318575542E0,2.060655392E1,1.842884499E0,1.265011485E0,2.072743452E1
8.328577542E0,1.753837252E1,1.004092204E0,3.098310935E0,1.783822419E1
8.338580542E0,1.477700387E1,9.065346269E-1,4.256010518E0,1.540439139E1
8.348583542E0,1.019825746E1,1.687261768E-1,4.368489897E0,1.109579324E1
8.358585542E0,5.316197839E0,-2.972838458E-1,4.611404285E0,7.043819038E0
8.368588542E0,1.629858738E0,-2.538227710E-1,6.133685950E0,6.351611515E0
8.378591542E0,-1.011335004E0,-4.106132274E-1,7.361773730E0,7.442251955E0
8.388593542E0,-3.085880924E0,-6.973307526E-1,7.771679919E0,8.390943929E0
8.398596542E0,-4.841151913E0,-9.320464674E-1,7.849935545E0,9.269679095E0
8.408599542E0,-5.962937313E0,-9.001611619E-1,7.900340883E0,9.938928392E0
8.418602542E0,-6.610166783E0,-5.809305230E-1,7.839229293E0,1.027060374E1
8.428604542E0,-7.053126113E0,-3.969400618E-1,7.744314950E0,1.048229762E1
8.438607542E0,-7.356631104E0,-2.599492460E-1,7.209011713E0,1.030327349E1
8.448610750E0,-7.457265778E0,-9.067694840E-2,6.919977411E0,1.017374673E1
8.458612750E0,-7.308231946E0,-1.995479743E-2,7.527631171E0,1.049170546E1
8.468615750E0,-7.256965898E0,-6.153519760E-2,8.167143486E0,1.092563835E1
8.478618750E0,-7.312445449E0,-2.573890426E-1,9.063812837E0,1.164863987E1
8.488621750E0,-7.395620338E0,-7.792709284E-1,1.081914522E1,1.312845637E1
8.498623750E0,-7.469954236E0,-1.518940127E0,1.338258561E1,1.540133089E1
8.508626750E0,-7.509920540E0,-2.395144954E0,1.592743771E1,1.777129421E1
8.518629750E0,-7.030638306E0,-3.014639911E0,1.725605374E1,1.887562766E1
8.528631750E0,-4.232765497E0,-2.006935297E0,1.808944219E1,1.868614491E1
8.538634750E0,-3.009560142E0,-1.389102850E0,1.815081456E1,1.845099261E1
8.548637750E0,-5.673864419E0,-2.831147559E0,1.627139549E1,1.746328850E1
8.558639750E0,-9.270053489E0,-3.166897313E0,1.053567338E1,1.438622757E1
8.568642750E0,-1.177731442E1,-1.215445223E0,8.222167540E-1,1.186838162E1
8.578645750E0,-1.341975519E1,9.053251304E-1,-4.187770003E0,1.408711683E1
8.588648750E0,-1.379315956E1,1.079991914E0,-4.839312379E0,1.465730457E1
8.598650750E0,-1.336204084E1,5.183853422E-1,-2.511312464E0,1.360586451E1
8.608653750E0,-1.233655616E1,5.861624654E-1,6.889926231E-1,1.236967724E1
8.618656750E0,-1.137343671E1,4.627419224E-1,3.389648455E0,1.187682236E1
8.628658750E0,-1.074681283E1,2.205004026E-1,5.215581291E0,1.194758949E1
8.638661750E0,-1.036190465E1,8.658081852E-2,6.988168225E0,1.249844228E1
8.648664750E0,-1.007784458E1,5.330065973E-2,8.562431636E0,1.322425906E1
8.658666750E0,-1.019886908E1,2.357080603E-1,9.821786817E0,1.416121411E1
8.668669750E0,-1.046334917E1,6.005234463E-1,1.052178390E1,1.485093400E1
8.678672750E0,-1.094424289E1,1.095671880E0,1.084900461E1,1.544920226E1
8.688675750E0,-1.159140921E1,2.215070592E0,1.093676781E1,1.608975436E1
8.698677750E0,-1.201997854E1,3.374961419E0,1.116722529E1,1.675043789E1
8.708680750E0,-1.247072403E1,3.127006731E0,1.061314781E1,1.667141372E1
8.718683750E0,-1.288939636E1,2.390418650E0,8.780388354E0,1.577801824E1
8.728685750E0,-1.284364073E1,3.132185610E0,6.695892811E0,1.481906456E1
8.738688750E0,-1.357831063E1,4.004382609E0,6.081753320E0,1.540757356E1
8.748691750E0,-1.755666612E1,3.548854689E0,7.201213866E0,1.930513859E1
8.758693750E0,-2.574482040E1,1.125350958E0,6.941133807E0,2.668785362E1
8.768696750E0,-2.467689195E1,1.420658226E0,6.808706651E0,2.563836486E1
8.778699750E0,-1.821778623E1,2.739793586E0,6.647740991E0,1.958536863E1
8.788702750E0,-1.285414701E1,3.029230760E0,6.804931104E0,1.485639329E1
8.798704750E0,-9.691836542E0,2.432722670E0,6.371441925E0,1.185095386E1
8.808707750E0,-9.322392501E0,9.979298966E-1,4.336177014E0,1.032982561E1
8.818710750E0,-9.814266129E0,5.872523133E-3,1.738123444E0,9.966991885E0
8.828712750E0,-9.863381571E0,-2.107209344E-1,-1.631702073E-1,9.866981496E0
8.838715750E0,-9.852414533E0,-5.723119464E-2,-9.926679142E-1,9.902461165E0
8.848718750E0,-9.806550727E0,2.463070523E-1,-1.100028568E0,9.871127959E0
8.858720750E0,-9.676935498E0,4.639859907E-1,-8.099434483E-1,9.721850237E0
8.868723750E0,-9.722841403E0,4.422397571E-1,-3.638751537E-1,9.739693326E0
8.878726750E0,-1.038927898E1,1.079118267E-1,9.552727774E-2,1.039027854E1
8.888729750E0,-1.255953154E1,-9.530699851E-1,6.170303553E-1,1.261074547E1
8.898731750E0,-1.374150642E1,-2.120157711E0,2.722481149E0,1.416813224E1
8.908734750E0,-1.242023800E1,-2.123175751E0,8.313643720E0,1.509592194E1
8.918737750E0,-6.217870068E0,-2.898377091E-1,1.981201321E1,2.076684332E1
8.928739750E0,1.636544328E1,7.795139533E-1,3.559822779E1,3.918761536E1
8.938742750E0,4.520168075E1,-3.379765784E0,4.977610724E1,6.732217771E1
8.948745750E0,7.058121623E1,-5.256703005E0,5.092239072E1,8.719191985E1
8.958747750E0,8.991160598E1,-5.560319678E0,2.933597911E1,9.473971562E1
8.968750750E0,7.934642638E1,-7.511475314E0,2.088685774E1,8.239258745E1
8.978753750E0,4.860656588E1,-6.191796164E0,1.225383443E1,5.050834628E1
8.988756750E0,3.143322802E1,-3.270942961E0,-5.740102848E0,3.212001980E1
8.998758750E0,2.361206720E1,-4.008015484E0,-1.869121891E1,3.038018384E1
9.008761750E0,1.795633500E1,-7.695524029E0,-3.836357722E1,4.305130792E1
9.018764750E0,1.894821924E1,-1.140170566E1,-5.048297012E1,5.511410143E1
9.028766750E0,2.107496501E1,-5.090860766E0,-2.103362753E1,3.020735839E1
9.038769750E0,-5.688879485E0,1.078311234E1,2.845053057E1,3.095273091E1
9.048772750E0,-2.056927207E1,1.379031313E1,-4.595511553E0,2.518702873E1
9.058774750E0,-5.652081787E0,4.836679671E0,-4.052141029E1,4.119859453E1
9.068777750E0,3.424893132E0,1.962307593E0,-3.867048353E1,3.887141419E1
9.078780750E0,1.074449733E1,3.558405312E-1,-2.571249465E1,2.786939588E1
9.088783750E0,1.658223815E1,-1.867988423E-1,-1.418092117E1,2.181980846E1
9.098785750E0,2.068789804E1,-1.648032798E-1,-1.325922340E1,2.457281609E1
9.108788750E0,2.129751939E1,-1.753911621E-2,-1.132621927E1,2.412193779E1
9.118791750E0,2.012764123E1,8.500796136E-1,-6.908736724E0,2.129730546E1
9.128793750E0,2.005099827E1,3.331256113E0,-4.664930575E0,2.085428915E1
9.138796750E0,2.007564545E1,4.680671864E0,-3.136768073E0,2.085136790E1
9.148799750E0,2.082669691E1,6.396334691E0,-2.079870687E0,2.188584620E1
9.158801750E0,2.005939955E1,6.339365854E0,-6.348368812E-1,2.104685457E1
9.168804750E0,1.613929286E1,4.483004985E0,2.841231667E0,1.698960579E1
9.178807750E0,1.091156397E1,2.654999018E0,4.398475004E0,1.206058997E1
9.188810750E0,6.589400981E0,1.390907008E0,3.399489319E0,7.543961507E0
9.198812750E0,3.683050627E0,9.201213634E-1,3.850449979E0,5.407166567E0
9.208815750E0,8.997186738E-1,5.427745172E-1,4.858511712E0,4.970838352E0
9.218818750E0,-2.120670512E0,-2.109139656E-1,5.516974268E0,5.914282137E0
9.228820750E0,-4.665343096E0,-8.168605582E-1,6.138968325E0,7.753684251E0
9.238823750E0,-6.503508307E0,-1.059459635E0,6.858367054E0,9.510797740E0
9.248826750E0,-7.510124608E0,-1.109693796E0,7.429644701E0,1.062228847E1
9.258828750E0,-8.080411152E0,-1.116978111E0,7.005964810E0,1.075287066E1
9.268831750E0,-8.439990941E0,-9.318214957E-1,6.120506911E0,1.046720322E1
9.278834750E0,-8.586805170E0,-7.165211682E-1,5.531955419E0,1.023958771E1
9.288836750E0,-8.584660411E0,-6.247757234E-1,5.460733409E0,1.019344635E1
9.298839750E0,-8.603852143E0,-6.098911243E-1,5.528665776E0,1.024521274E1
9.308842750E0,-8.785267271E0,-6.551548592E-1,5.597881606E0,1.043774053E1
9.318845750E0,-9.163135981E0,-9.048563299E-1,6.121235474E0,1.105673323E1
9.328847750E0,-9.591400673E0,-1.404044971E0,7.443967456E0,1.222206859E1
9.338850750E0,-9.682696760E0,-2.120727814E0,9.079579269E0,1.344213014E1
9.348853750E0,-9.646183822E0,-2.856350228E0,9.739585490E0,1.400239710E1
9.358855750E0,-9.326838139E0,-3.210282192E0,9.925228740E0,1.399306925E1
9.368858750E0,-8.781537332E0,-3.263954369E0,1.114821249E1,1.456198605E1
9.378861750E0,-8.462431385E0,-3.235166772E0,1.269803337E1,1.559868906E1
9.388863750E0,-8.078828895E0,-3.074318640E0,9.953986516E0,1.318335158E1
9.398866750E0,-8.299829088E0,-2.250635112E0,8.797293824E0,1.230223150E1
9.408869750E0,-9.858490959E0,-1.636857563E0,9.355878335E0,1.368947063E1
9.418871750E0,-1.089975728E1,-1.491425615E0,7.395077716E0,1.325579999E1
9.428874750E0,-1.116168915E1,-1.111289501E0,5.249469999E0,1.238447432E1
9.438877750E0,-1.088679751E1,-4.288300451E-1,5.782903297E0,1.233483789E1
9.448880875E0,-1.058800245E1,-1.649005446E-1,6.645150089E0,1.250164020E1
9.458882875E0,-1.045105832E1,-2.209964658E-1,7.187617335E0,1.268602784E1
9.468885875E0,-1.046721534E1,-8.607423037E-2,7.772115537E0,1.303747620E1
9.478888875E0,-1.057169573E1,1.737522058E-1,8.141053795E0,1.334420089E1
9.488890875E0,-1.072267084E1,4.039271191E-1,8.324581522E0,1.358077629E1
9.498893875E0,-1.082504857E1,6.944740954E-1,8.370456437E0,1.370140547E1
9.508896875E0,-1.085972490E1,1.109560041E0,8.225088224E0,1.366809514E1
9.518898875E0,-1.091539975E1,1.541214218E0,7.840515096E0,1.352756334E1
9.528901875E0,-1.083850535E1,2.035124723E0,7.691828588E0,1.344541401E1
9.538904875E0,-1.073127560E1,2.561742361E0,7.637095726E0,1.341819776E1
9.548906875E0,-1.069110289E1,2.834210331E0,7.748757665E0,1.350465381E1
9.558909875E0,-1.031461003E1,3.101225480E0,7.649345643E0,1.321064981E1
9.568912875E0,-9.807652343E0,3.843623940E0,7.789160755E0,1.310093564E1
9.578914875E0,-1.266894698E1,4.841312127E0,8.672773274E0,1.609837001E1
9.588917875E0,-2.421042448E1,3.417705443E0,8.613643890E0,2.592335289E1
9.598920875E0,-2.939054767E1,2.559075446E0,6.905667520E0,3.029919806E1
9.608923875E0,-2.398721988E1,2.830700832E0,4.498290483E0,2.456896828E1
9.618925875E0,-1.696778718E1,2.795368154E0,3.242323179E0,1.749950126E1
9.628928875E0,-1.297467216E1,2.305839260E0,4.345181141E0,1.387586435E1
9.638931875E0,-1.111016114E1,1.408295166E0,5.495019727E0,1.247454279E1
9.648933875E0,-1.029664973E1,6.891006504E-1,5.629440783E0,1.175527366E1
9.658936875E0,-1.045553261E1,7.261089939E-1,6.133178412E0,1.214336337E1
9.668939875E0,-1.042308641E1,1.070627379E0,6.431861204E0,1.229454399E1
9.678941875E0,-9.742533072E0,9.106421497E-1,6.243161030E0,1.160703577E1
9.688944875E0,-9.270086818E0,4.435460982E-1,6.203972991E0,1.116335629E1
9.698947875E0,-8.567691207E0,3.033857808E-1,6.640701528E0,1.084418242E1
9.708949875E0,-7.445010599E0,3.137441234E-1,7.550603127E0,1.060840355E1
9.718952875E0,-6.070137241E0,1.798308250E-1,9.546171876E0,1.131407543E1
9.728955875E0,-5.678260941E0,4.036467085E-1,9.238191426E0,1.085125609E1
9.738957875E0,-2.670972442E0,-3.284325118E-1,1.094336464E1,1.126939179E1
9.748960875E0,1.796682140E0,-1.367994109E0,1.454974833E1,1.472394822E1
9.758963875E0,1.218920749E1,-2.272165876E0,2.434477946E1,2.732046493E1
9.768965875E0,3.701087533E1,-3.955717403E0,4.497175887E1,5.837732170E1
9.778968875E0,6.434659214E1,-3.578774891E0,5.339142664E1,8.368952138E1
9.788971875E0,8.252105284E1,-5.908098324E-1,4.198658220E1,9.259020630E1
9.798974875E0,6.863515059E1,-1.953445699E0,2.705214789E1,7.379985469E1
9.808976875E0,4.134980171E1,-3.146501933E0,1.124268946E1,4.296631985E1
9.818979875E0,2.861505484E1,-2.222935536E0,-3.311151924E0,2.889163431E1
9.828982875E0,2.557413784E1,-2.222011384E0,-3.799670654E1,4.585546389E1
9.838984875E0,2.358160321E1,-6.456806011E0,-5.057134728E1,5.617155436E1
9.848987875E0,2.284061598E1,-8.673764377E0,-1.798381925E1,3.033719963E1
9.858990875E0,2.109630501E1,-4.234963977E-1,7.429352925E0,2.237026417E1
9.868992875E0,1.196905397E1,7.390976479E0,2.361997732E1,2.749160080E1
9.878995875E0,2.010996627E0,1.487338938E1,2.362408440E1,2.798855450E1
9.888998875E0,-2.600649734E0,1.447374973E1,-4.225610844E0,1.530060774E1
9.899000875E0,-1.755361621E0,6.595854553E0,-2.925524777E1,3.004090734E1
9.909003875E0,9.189273620E-1,2.834686294E0,-3.861223357E1,3.872705069E1
9.919006875E0,8.186686635E0,2.409663590E0,-3.380798110E1,3.486843705E1
9.929008875E0,1.744011357E1,3.027250308E0,-2.422467999E1,3.000261532E1
9.939011875E0,2.115872988E1,3.115379250E0,-2.029828403E1,2.948589108E1
9.949014875E0,1.961395164E1,2.214980545E0,-1.392949674E1,2.415872756E1
9.959017875E0,1.692148659E1,1.329949200E0,-9.400711277E0,1.940306279E1
9.969019875E0,1.468753680E1,9.209414354E-1,-5.918193834E0,1.586180597E1
9.979022875E0,1.337668694E1,3.691305580E-1,-2.089644893E0,1.354395167E1
9.989025875E0,1.090955487E1,-9.736719185E-1,-1.242927428E0,1.102321609E1
9.999027875E0,8.010595397E0,-2.438774977E0,-2.049174267E0,8.620694704E0
1.000903087E1,6.804603660E0,-2.435456390E0,-1.508764656E0,7.383119231E0
1.001903387E1,5.865011653E0,-1.915530014E0,-1.442923254E-1,6.171583039E0
1.002903587E1,4.405821446E0,-1.690393500E0,7.839233387E-1,4.783641771E0
1.003903888E1,2.646844491E0,-1.655013021E0,1.785070739E0,3.596016046E0
1.004904187E1,7.545609605E-1,-1.970553482E0,3.094487734E0,3.745436904E0
1.005904387E1,-1.033313518E0,-2.042630356E0,4.566834469E0,5.108429569E0
1.006904687E1,-2.562770301E0,-1.904024740E0,6.054193053E0,6.844439740E0
1.007904988E1,-3.903827457E0,-1.651633769E0,7.262426028E0,8.408959194E0
1.008905187E1,-4.969654418E0,-1.270323096E0,8.136254400E0,9.618202611E0
1.009905487E1,-5.499848943E0,-8.311726418E-1,8.722508520E0,1.034511195E1
1.010905788E1,-5.540209934E0,-2.455553928E-1,9.357741843E0,1.087757123E1
1.011905988E1,-5.077370655E0,1.701114735E-1,1.010686431E1,1.131182288E1
1.012906287E1,-4.368519718E0,3.485500765E-1,1.119161286E1,1.201905363E1
1.013906587E1,-3.864869213E0,4.340866920E-1,1.341842437E1,1.397067492E1
1.014906787E1,-3.432963459E0,2.864383206E-1,1.627670125E1,1.663725605E1
1.015907088E1,-3.355559188E0,-3.431446180E-1,1.853487021E1,1.883929243E1
1.016907387E1,-3.746989346E0,-1.226094391E0,1.879202257E1,1.920112884E1
1.017907587E1,-3.352140906E0,-1.724220666E0,1.778893740E1,1.818395115E1
1.018907888E1,-1.590788813E0,-1.258277539E0,1.584633215E1,1.597560997E1
1.019908188E1,-3.158939545E0,-9.540151144E-1,7.962823645E0,8.619489793E0
1.020908487E1,-8.888686389E0,6.565385297E-2,-2.179180675E0,9.152151909E0
1.021908687E1,-1.320285741E1,1.109259640E0,-5.447086008E0,1.432538469E1
1.022908988E1,-1.595547745E1,9.880607468E-1,-9.129810360E0,1.840942589E1
1.023909288E1,-1.694460765E1,7.161636110E-1,-8.718255841E0,1.906936296E1
1.024909487E1,-1.611802770E1,1.079216573E0,-6.227837816E0,1.731304391E1
1.025909787E1,-1.384720186E1,1.478705144E0,-3.591538779E0,1.438161045E1
1.026910088E1,-1.200126278E1,1.392346885E0,-1.305656358E0,1.215210585E1
1.027910288E1,-1.076761488E1,1.225127773E0,7.013840425E-1,1.085976095E1
1.028910587E1,-9.902560254E0,1.160335800E0,2.730131646E0,1.033734480E1
1.029910887E1,-9.395898433E0,1.362378004E0,4.617114676E0,1.055730691E1
1.030911088E1,-8.974323540E0,1.628427047E0,5.688221673E0,1.074923827E1
1.031911388E1,-8.611153561E0,1.906498112E0,5.987710211E0,1.066017703E1
1.032911687E1,-8.440825338E0,2.242926289E0,6.169655682E0,1.069312405E1
1.033911887E1,-8.398255854E0,2.519547098E0,6.200868119E0,1.073916125E1
1.034912188E1,-8.383946548E0,2.736368287E0,6.071159334E0,1.070687848E1
1.035912488E1,-8.465092453E0,2.971474888E0,6.000035557E0,1.079295511E1
1.036912687E1,-8.554134437E0,4.488362788E0,5.776835057E0,1.125568478E1
1.037912987E1,-8.419105271E0,6.082960185E0,7.159668229E0,1.261525217E1
1.038913288E1,-9.310992184E0,5.467887477E0,8.870688660E0,1.397431523E1
1.039913488E1,-1.137093293E1,3.727117876E0,8.400983580E0,1.462074035E1
1.040913787E1,-1.535462692E1,1.851559136E0,7.697713811E0,1.727563709E1
1.041914087E1,-2.496960123E1,-2.367705140E0,6.980344065E0,2.603482699E1
1.042914288E1,-3.213671121E1,-6.183466220E0,5.041462319E0,3.311223043E1
1.043914587E1,-2.817248377E1,-4.218834798E0,1.431946861E0,2.852258545E1
1.044914887E1,-2.195895409E1,-4.617127394E-1,3.308542312E0,2.221160272E1
1.045915125E1,-1.650767329E1,2.610395288E0,6.281044555E0,1.785410210E1
1.046915425E1,-1.257052664E1,4.135674528E0,8.623470721E0,1.579513188E1
1.047915725E1,-1.071980103E1,3.908753736E0,1.088844525E1,1.577183343E1
1.048915925E1,-1.099463887E1,1.634149717E0,1.037188585E1,1.520291240E1
1.049916225E1,-1.058629272E1,-5.308869816E-3,8.111470392E0,1.333662527E1
1.050916525E1,-9.975038831E0,-5.733993092E-1,5.947407693E0,1.162763281E1
1.051916725E1,-9.571659304E0,-5.717269325E-1,4.292450366E0,1.050564913E1
1.052917025E1,-9.566684493E0,-4.012409082E-1,3.558658715E0,1.021501338E1
1.053917325E1,-9.761065237E0,-5.747265175E-1,3.854207400E0,1.051016745E1
1.054917525E1,-9.452616425E0,-4.602927796E-1,5.011686543E0,1.070891352E1
1.055917825E1,-9.033249441E0,-2.206335364E-1,6.866991697E0,1.134917837E1
1.056918125E1,-9.105166100E0,6.139663412E-1,7.712176314E0,1.194816588E1
1.057918325E1,-8.276658912E0,1.958644458E0,3.092757835E0,9.050111705E0
1.058918625E1,-1.217994316E0,2.498880115E0,1.152892879E0,3.009497295E0
1.059918925E1,2.167883036E1,2.892840947E0,2.360818699E1,3.218208675E1
1.060919125E1,5.549763582E1,4.319013974E0,5.555210848E1,7.864272516E1
1.061919425E1,7.790326339E1,8.611855227E0,5.990740005E1,9.865079360E1
1.062919725E1,7.508008266E1,5.555478183E0,3.955368207E1,8.504337667E1
1.063919925E1,6.077493038E1,2.158329796E0,1.289918694E1,6.216622535E1
1.064920225E1,4.754707379E1,3.988676696E0,6.899275929E0,4.821030778E1
1.065920525E1,3.573710150E1,2.776005392E0,5.026565952E0,3.619548307E1
1.066920725E1,2.572489777E1,2.712986148E0,7.666790226E-1,2.587891914E1
1.067921025E1,1.753193824E1,6.883210704E-1,-1.281352991E0,1.759217183E1
1.068921325E1,1.544010503E1,1.236844278E0,-7.699671459E0,1.729773302E1
1.069921625E1,2.038802242E1,5.512369001E0,-2.208703852E1,3.055969471E1
1.070921825E1,2.459834747E1,2.795007381E0,-3.987511989E1,4.693523144E1
1.071922125E1,1.340540028E1,-5.483683657E-1,-7.125219358E0,1.519125457E1
1.072922425E1,-1.409026945E1,6.933035559E-1,-2.495875815E1,2.866977453E1
1.073922625E1,-6.311098074E0,-3.930893341E0,-6.160962743E1,6.205665213E1
1.074922925E1,4.593498357E0,-5.957773637E0,-4.470316117E1,4.533175391E1
1.075923125E1,1.754879576E1,-4.046799189E0,-2.509863057E1,3.089139156E1
1.076923425E1,2.498095184E1,-3.025069882E0,-1.635056796E1,3.000899991E1
1.077923725E1,2.580954440E1,-4.713536432E0,-1.081284543E1,2.837723796E1
1.078924025E1,2.290979321E1,-6.442016063E0,-8.378432039E0,2.523006777E1
1.079924225E1,2.006176884E1,-4.631998179E0,-5.143089266E0,2.122218988E1
1.080924525E1,1.834338091E1,-2.962937368E0,-1.925814097E0,1.868066865E1
1.081924825E1,1.477825167E1,-2.065420025E0,-3.137528211E-2,1.492191900E1
1.082925025E1,1.148562957E1,-1.045669781E0,3.697310524E0,1.211128470E1
1.083925325E1,9.139551821E0,-9.837282524E-2,5.916488786E0,1.088787970E1
1.084925625E1,6.663050755E0,7.199826468E-1,6.952938166E0,9.657016595E0
1.085925825E1,3.749500140E0,1.311504597E0,7.298721449E0,8.309640811E0
1.086926125E1,8.895433491E-1,1.359553945E0,7.013856797E0,7.199573701E0
1.087926425E1,-8.762853724E-1,1.917370279E0,7.145043758E0,7.449552681E0
1.088926625E1,-1.943184128E0,2.476708350E0,7.717090899E0,8.334479033E0
1.089926925E1,-3.214683976E0,2.667779278E0,8.086104001E0,9.101445888E0
1.090927225E1,-3.981194306E0,2.726625071E0,9.351090635E0,1.052270348E1
1.091927425E1,-5.074516044E0,2.475351503E0,1.033547056E1,1.177709768E1
1.092927725E1,-6.676699326E0,1.948276176E0,9.644064206E0,1.189041918E1
1.093927925E1,-8.091486948E0,1.842250953E0,7.835573030E0,1.141324907E1
1.094928225E1,-9.457608778E0,2.181743510E0,5.719166307E0,1.126566606E1
1.095928525E1,-1.056734073E1,2.783291900E0,4.782852834E0,1.192858269E1
1.096928725E1,-1.136792512E1,3.492532554E0,6.211704179E0,1.341688392E1
1.097929025E1,-1.194743916E1,4.054058214E0,8.154059172E0,1.502216267E1
1.098929325E1,-1.264105342E1,5.330027089E0,8.493544419E0,1.613523217E1
1.099929525E1,-1.422477178E1,7.140537309E0,9.662446098E0,1.861972797E1
1.100929825E1,-1.595730528E1,7.420463403E0,9.542181151E0,2.001879342E1
1.101930125E1,-1.645367893E1,6.423271644E0,7.764637533E0,1.929434023E1
1.102930325E1,-1.611079703E1,5.550399876E0,6.941732562E0,1.839979268E1
1.103930625E1,-1.570983475E1,4.197483982E0,5.663079230E0,1.721883405E1
1.104930925E1,-1.440908420E1,3.321178145E0,4.549374098E0,1.547089967E1
1.105931125E1,-1.314794504E1,2.469215435E0,3.848556651E0,1.392037614E1
1.106931425E1,-1.196697237E1,1.916434432E0,3.482029785E0,1.260974544E1
1.107931725E1,-1.092613757E1,1.745463746E0,3.150127791E0,1.150436574E1
1.108931925E1,-1.011746063E1,1.643614313E0,2.938930162E0,1.066310406E1
1.109932225E1,-9.523296399E0,1.131848969E0,3.311982521E0,1.014610687E1
1.110932525E1,-9.026198283E0,6.450109633E-1,4.085640488E0,9.928784054E0
1.111932725E1,-8.937493683E0,-1.864766607E-2,4.977689077E0,1.023017740E1
1.112933025E1,-1.177239106E1,-1.998444993E0,6.501493356E0,1.359604316E1
1.113933325E1,-1.610486913E1,-4.565597490E0,9.598378741E0,1.929612304E1
1.114933525E1,-1.700976317E1,-5.779538809E0,9.941385766E0,2.053207888E1
1.115933825E1,-2.646623817E1,-1.143801920E1,5.323625557E0,2.931946513E1
1.116934125E1,-3.143134989E1,-1.380356760E1,2.913610842E0,3.445224757E1
1.117934325E1,-2.731209171E1,-8.883869453E0,2.156429744E0,2.880145273E1
1.118934625E1,-1.998644033E1,-1.552123514E0,8.282797319E-1,2.006372178E1
1.119934925E1,-1.468553471E1,4.926456943E0,1.477301958E0,1.556011982E1
1.120935125E1,-1.228605258E1,7.548961229E0,5.737048847E0,1.551926652E1
1.121935425E1,-1.353175744E1,5.577471900E0,8.575901282E0,1.696357082E1
1.122935725E1,-1.625366205E1,2.436960001E0,7.899837438E0,1.823534304E1
1.123935925E1,-1.601026703E1,1.279150783E0,5.609906405E0,1.701281655E1
1.124936225E1,-1.423201531E1,1.292719978E0,4.536898479E0,1.499349301E1
1.125936525E1,-1.306406907E1,1.291227476E0,4.042915760E0,1.373616893E1
1.126936725E1,-1.217385621E1,1.358473088E0,3.670289079E0,1.278746441E1
1.127937025E1,-1.156936170E1,1.629610232E0,3.824952611E0,1.229373914E1
1.128937325E1,-1.123040329E1,1.675097038E0,4.298292319E0,1.214097298E1
1.129937525E1,-1.097012852E1,1.388151800E0,4.960870146E0,1.211944379E1
1.130937825E1,-1.079087744E1,9.896348172E-1,5.583407993E0,1.219003109E1
1.131938125E1,-1.058200554E1,6.468340521E-1,5.920667206E0,1.214296240E1
1.132938325E1,-1.029558085E1,4.528191244E-1,5.823670084E0,1.183719407E1
1.133938625E1,-1.006133672E1,4.010445514E-1,5.471894574E0,1.146005949E1
1.134938925E1,-9.993775649E0,5.358529488E-1,5.399437047E0,1.137174615E1
1.135939125E1,-9.944459063E0,9.252382618E-1,5.895449334E0,1.159761418E1
1.136939425E1,-9.808717706E0,1.294178127E0,6.635201052E0,1.191267111E1
1.137939725E1,-9.340055185E0,1.479678705E0,7.392046520E0,1.200285098E1
1.138939925E1,-8.075278466E0,1.438924343E0,8.130941620E0,1.154958169E1
1.139940225E1,-6.384025133E0,1.680937968E0,8.725114625E0,1.094115874E1
1.140940425E1,-6.833227535E0,2.352277408E0,1.018741555E1,1.249038203E1
1.141940725E1,-8.440672726E0,2.770940242E0,1.464115785E1,1.712561150E1
1.142941025E1,4.476133629E0,4.458366280E0,2.298909081E1,2.384137367E1
1.143941225E1,3.869106807E1,4.018679344E0,4.636731617E1,6.052335534E1
1.144941525E1,6.140779090E1,7.988563234E-1,5.771260789E1,8.427514500E1
1.145941750E1,6.905755345E1,-1.938511179E0,5.633936357E1,8.914497968E1
1.146941950E1,7.017378692E1,6.798192188E-1,4.204933920E1,8.181057054E1
1.147942250E1,5.494174805E1,1.552092086E0,2.451465277E1,6.018282869E1
1.148942550E1,3.503975321E1,-2.045297746E-1,8.674002358E0,3.609798407E1
1.149942750E1,2.357688334E1,-1.095141246E0,-4.540054221E0,2.403499229E1
1.150943050E1,1.772276563E1,-6.234398392E0,-2.736779463E1,3.319578780E1
1.151943350E1,2.441480337E1,-6.765638984E0,-5.342105566E1,5.912415481E1
1.152943550E1,3.413458551E1,-6.743249996E0,-5.800448686E1,6.763994267E1
1.153943850E1,3.352927707E1,-1.784336329E0,-1.793031606E1,3.806432071E1
1.154944150E1,1.862310586E1,9.884788227E0,2.892910412E1,3.579695763E1
1.155944350E1,-6.445162450E0,1.077639623E1,1.745088648E1,2.149893657E1
1.156944650E1,-9.867543619E0,1.318172323E0,-1.485558578E1,1.788279687E1
1.157944950E1,-3.346422914E0,-4.024996968E0,-2.470446742E1,2.525291780E1
1.158945150E1,1.555317264E0,-4.052282123E0,-2.660640529E1,2.695813058E1
1.159945450E1,6.646403148E0,-2.661545853E0,-1.863072479E1,1.995901819E1
1.160945750E1,1.086600481E1,-2.830024309E0,-1.618832059E1,1.970128985E1
1.161945950E1,1.287845271E1,-3.188052247E0,-1.766148564E1,2.208950648E1
1.162946250E1,1.270016877E1,-3.364800128E0,-1.602803788E1,2.072472352E1
1.163946550E1,1.350105956E1,-3.525795902E0,-1.220389570E1,1.853766210E1
1.164946750E1,1.536990920E1,-3.038522571E0,-8.888076525E0,1.801290184E1
1.165947050E1,1.831156972E1,-2.043389178E0,-4.572998896E0,1.898423936E1
1.166947350E1,2.062359037E1,-4.861464263E-1,-2.519541543E0,2.078261070E1
1.167947550E1,1.938762580E1,-3.380193142E-1,2.764528477E-1,1.939254283E1
1.168947850E1,1.682845037E1,-3.139557926E-1,4.109113843E0,1.732570710E1
1.169948150E1,1.366302158E1,1.465302375E-1,5.967263083E0,1.490999191E1
1.170948350E1,9.171246654E0,3.404208388E-1,6.345383808E0,1.115757802E1
1.171948650E1,4.390628625E0,1.835791826E-2,6.343403941E0,7.714708698E0
1.172948950E1,5.944665349E-1,-2.640662340E-1,6.659809644E0,6.691501022E0
1.173949150E1,-2.237172775E0,-2.617845591E-1,7.000870131E0,7.354295056E0
1.174949450E1,-4.450762560E0,-1.861788730E-1,7.071075895E0,8.357276127E0
1.175949750E1,-5.921960025E0,-3.809630932E-2,6.939858529E0,9.123195617E0
1.176949950E1,-6.904947728E0,1.801682094E-1,6.779643066E0,9.678549675E0
1.177950250E1,-7.486803573E0,2.892405439E-1,6.581494376E0,9.972560155E0
1.178950450E1,-7.872454342E0,3.400994977E-1,6.351499411E0,1.012090657E1
1.179950750E1,-8.129458766E0,4.690538456E-1,5.967612162E0,1.009556864E1
1.180951050E1,-8.314305625E0,5.497123117E-1,5.591582401E0,1.003472249E1
1.181951250E1,-8.281216816E0,7.731903358E-1,5.710404255E0,1.008885980E1
1.182951550E1,-8.108726293E0,1.042314356E0,6.094092114E0,1.019685344E1
1.183951850E1,-8.088977907E0,1.454148592E0,6.366704510E0,1.039620306E1
1.184952050E1,-8.322988740E0,1.776574150E0,6.679170359E0,1.081848760E1
1.185952350E1,-8.615384606E0,1.969003532E0,8.028645751E0,1.193989026E1
1.186952650E1,-9.280346342E0,2.252925174E0,1.048503766E1,1.418226057E1
1.187952850E1,-1.068259870E1,2.355705192E0,1.176390792E1,1.606414615E1
1.188953150E1,-1.260940361E1,2.499320410E0,1.075472879E1,1.676030588E1
1.189953450E1,-1.385327712E1,3.260139938E0,6.832041135E0,1.578665846E1
1.190953650E1,-1.387517377E1,3.579839377E0,3.874997760E0,1.484423473E1
1.191953950E1,-1.315746079E1,3.379994995E0,4.003036580E0,1.416218354E1
1.192954250E1,-1.225717085E1,3.012250446E0,5.198951225E0,1.365067704E1
1.193954450E1,-1.168828939E1,2.519797067E0,6.064762480E0,1.340696946E1
1.194954750E1,-1.124561306E1,2.048272919E0,6.330626020E0,1.306660097E1
1.195955050E1,-1.107695832E1,1.355340442E0,6.312677407E0,1.282130451E1
1.196955250E1,-1.099089432E1,7.822218720E-1,6.265014414E0,1.267525284E1
1.197955550E1,-1.066290294E1,7.469651350E-1,6.245298187E0,1.237979020E1
1.198955750E1,-1.022140308E1,7.619473826E-1,5.976316327E0,1.186482202E1
1.199956050E1,-9.872498549E0,7.351330018E-1,6.004689356E0,1.157855528E1
1.200956350E1,-9.651118287E0,7.488926697E-1,6.135873978E0,1.146097177E1
1.201956550E1,-9.433003110E0,6.602863757E-1,6.532910446E0,1.149332174E1
1.202956850E1,-9.157844836E0,1.171789910E0,6.836605471E0,1.148818471E1
1.203957150E1,-8.633778192E0,3.887407598E0,6.328894660E0,1.138898465E1
1.204957350E1,-8.731211516E0,5.071361471E0,7.307198743E0,1.246386438E1
1.205957650E1,-1.016513181E1,2.821342071E0,8.696936308E0,1.367210946E1
1.206957950E1,-1.197528009E1,1.461976132E-1,9.299473754E0,1.516274774E1
1.207958150E1,-1.388041288E1,-1.727106998E0,9.937059996E0,1.715791134E1
1.208958450E1,-1.853261552E1,-2.120521700E0,1.244675044E1,2.242489793E1
1.209958650E1,-2.686064456E1,-4.126614267E0,1.357472512E1,3.037756300E1
1.210958950E1,-3.569023256E1,-6.677129096E0,7.515673615E0,3.707913299E1
1.211959250E1,-2.928826115E1,-5.738824062E0,2.751528947E0,2.997177430E1
1.212959450E1,-2.026430235E1,-3.115802296E0,1.014507703E0,2.052752785E1
1.213959750E1,-1.569627622E1,-2.169281924E0,2.284848633E0,1.600935366E1
1.214960050E1,-1.280278623E1,-1.664160552E0,4.055511248E0,1.353247713E1
1.215960250E1,-1.104285735E1,-1.247385053E0,4.236560632E0,1.189323816E1
1.216960550E1,-1.047182529E1,-1.092601946E0,4.075786468E0,1.129003717E1
1.217960850E1,-1.058262067E1,-1.030345106E0,3.653457576E0,1.124282987E1
1.218961050E1,-1.077372405E1,-1.000830189E0,3.109724700E0,1.125811613E1
1.219961350E1,-1.099401907E1,-9.664411785E-1,2.467379994E0,1.130886501E1
1.220961650E1,-1.144201636E1,-8.087388488E-1,2.196809446E0,1.167903115E1
1.221961850E1,-1.164183443E1,-5.679835450E-1,2.749671872E0,1.197562565E1
1.222962150E1,-1.190349967E1,-3.298679667E-1,3.890235604E0,1.252741196E1
1.223962350E1,-1.250207914E1,1.237161928E-1,6.236779963E0,1.397192588E1
1.224962650E1,-1.271637023E1,5.746339123E-1,1.045273296E1,1.647106258E1
1.225962950E1,-1.076900067E1,8.194647619E-1,1.441428238E1,1.801150839E1
1.226963150E1,-7.025404463E0,9.145764488E-1,1.636497433E1,1.783269870E1
1.227963450E1,-1.448274041E0,1.083229736E0,2.386078905E1,2.392923188E1
1.228963750E1,1.255037012E1,9.886315812E-1,3.572951182E1,3.788254476E1
1.229963950E1,3.392582354E1,9.439172653E-1,4.348951777E1,5.516512158E1
1.230964250E1,5.115006726E1,-1.186758198E0,4.765163136E1,6.991720637E1
1.231964550E1,8.017660938E1,2.415267123E0,4.705118780E1,9.299428198E1
1.232964750E1,9.189815306E1,2.434545540E0,3.469350916E1,9.825903076E1
1.233965050E1,5.977547750E1,-3.900271765E0,1.028397998E1,6.077894434E1
1.234965350E1,6.316653514E1,-6.732720330E0,-7.802335585E1,1.006130446E2
1.235965550E1,3.918104136E1,-1.901351393E1,-3.566825639E1,5.629291454E1
1.236965850E1,2.349353946E1,-1.101356631E1,3.975859891E0,2.624980955E1
1.237966150E1,2.197019010E1,3.045680147E0,1.350815691E1,2.596990034E1
1.238966350E1,1.065859939E1,1.523567350E1,2.601829234E1,3.197941563E1
1.239966650E1,-2.104347425E0,1.629110996E1,2.226694799E1,2.767030023E1
1.240966850E1,-9.846507676E0,1.086081131E1,7.780501614E0,1.659660029E1
1.241967150E1,-1.288956710E1,3.166744701E0,-8.309620836E0,1.565947031E1
1.242967450E1,-1.228084739E1,-2.239331567E0,-2.440892809E1,2.741586382E1
1.243967650E1,-8.580721727E0,-3.202961478E0,-3.981897726E1,4.085876525E1
1.244967950E1,1.500445238E0,-3.064078704E0,-3.801093398E1,3.816373955E1
1.245968325E1,1.183243963E1,-1.943681141E0,-2.761659365E1,3.010748693E1
1.246968525E1,1.580485785E1,-6.480833097E-1,-2.378420923E1,2.856400099E1
1.247968825E1,1.635868389E1,4.323331120E-1,-1.670701773E1,2.338627572E1
1.248969125E1,1.451863763E1,8.257418210E-1,-1.118798174E1,1.834785066E1
1.249969325E1,1.234352136E1,5.002246213E-1,-1.202949430E1,1.724301242E1
1.250969625E1,1.153004736E1,-1.960602106E-1,-1.014930691E1,1.536192900E1
1.251969925E1,1.404551252E1,2.715845656E-1,-5.732358795E0,1.517267667E1
1.252970125E1,1.649427498E1,1.211699058E0,-4.519652701E0,1.714516206E1
1.253970425E1,1.545623866E1,1.129108964E0,-5.187125816E0,1.634247457E1
1.254970625E1,1.302500967E1,-1.025358601E-1,-2.551328470E0,1.327292987E1
1.255970925E1,1.154585706E1,-6.370272481E-1,-1.122899294E-1,1.156396247E1
1.256971225E1,9.855093727E0,-5.403569859E-1,-1.856286317E-1,9.871642013E0
1.257971425E1,7.641577032E0,-4.280577741E-1,1.703118503E-1,7.655451595E0
1.258971725E1,4.694275119E0,-3.607433850E-1,1.972971599E0,5.104798880E0
1.259972025E1,2.006794817E0,-2.241006612E-1,4.667173274E0,5.085268225E0
1.260972225E1,-6.354169250E-3,-7.948295653E-2,6.538933663E0,6.539419803E0
1.261972525E1,-1.505379703E0,-1.728926651E-1,7.663987071E0,7.812346494E0
1.262972825E1,-2.600593600E0,-2.869388240E-1,8.366934659E0,8.766471157E0
1.263973025E1,-3.309074408E0,-1.674761700E-1,8.767220424E0,9.372415680E0
1.264973325E1,-3.758165129E0,-5.456795236E-2,8.949661739E0,9.706864995E0
1.265973525E1,-4.137303270E0,9.239781138E-2,9.114719281E0,1.001019097E1
1.266973825E1,-4.581622077E0,1.874178614E-1,9.159717114E0,1.024337854E1
1.267974125E1,-4.952046112E0,1.660747386E-1,9.389460064E0,1.061660500E1
1.268974325E1,-4.964944485E0,1.047173100E-1,1.021296204E1,1.135633009E1
1.269974625E1,-4.563045473E0,-2.390940367E-1,1.211361820E1,1.294674846E1
1.270974925E1,-3.600320712E0,-1.000824561E0,1.473511208E1,1.520156200E1
1.271975125E1,-2.133175367E0,-1.380238763E0,1.726874454E1,1.745465652E1
1.272975425E1,-3.340935302E-1,-1.196174992E0,1.978822673E1,1.982716244E1
1.273975625E1,1.676890233E0,-7.168584795E-1,2.192626114E1,2.200197206E1
1.274975925E1,2.619314631E0,-6.219341227E-1,2.265053235E1,2.280995894E1
1.275976225E1,2.374272441E0,-4.749526629E-1,2.143431617E1,2.157064346E1
1.276976425E1,2.655781376E0,1.713363190E-1,1.813046508E1,1.832474543E1
1.277976725E1,1.478990049E0,5.616514490E-1,9.897291913E0,1.002293625E1
1.278977025E1,-7.062509140E0,5.861043221E-1,-1.712276997E0,7.290709577E0
1.279977225E1,-1.392742917E1,1.735539121E0,-7.282058639E0,1.581182334E1
1.280977525E1,-1.615761803E1,1.192551911E0,-8.621449923E0,1.835266191E1
1.281977825E1,-1.637325866E1,4.057421314E-1,-8.184059481E0,1.830920685E1
1.282978025E1,-1.472913740E1,6.567162850E-1,-6.661515276E0,1.617883032E1
1.283978325E1,-1.339674991E1,8.164812201E-1,-4.427398841E0,1.413299014E1
1.284978525E1,-1.228369031E1,5.796810461E-1,-1.716381158E0,1.241656321E1
1.285978825E1,-1.145084449E1,2.498340928E-1,3.428117653E-1,1.145869872E1
1.286979125E1,-1.082007844E1,1.487155247E-2,2.119025105E0,1.102563313E1
1.287979325E1,-1.036156785E1,-1.239059715E-1,4.366538097E0,1.124473637E1
1.288979625E1,-9.958828011E0,1.466067630E-1,7.068544636E0,1.221327442E1
1.289979925E1,-9.718287007E0,1.287603957E0,9.697203702E0,1.378908213E1
1.290980125E1,-9.808345823E0,3.109554254E0,1.078322695E1,1.490472941E1
1.291980425E1,-1.026203889E1,3.906683822E0,1.168422908E1,1.603411456E1
1.292980725E1,-1.112026981E1,2.914688483E0,1.069782836E1,1.570348182E1
1.293980925E1,-1.162188256E1,1.899522530E0,9.359041094E0,1.504220696E1
1.294981225E1,-1.275273056E1,5.737410790E-1,9.070144202E0,1.565978389E1
1.295981425E1,-1.828897725E1,-2.369928252E0,9.622145333E0,2.080117616E1
1.296981725E1,-3.041313681E1,-8.242407092E0,8.242676648E0,3.257050634E1
1.297982025E1,-3.111754386E1,-8.080370806E0,5.731622631E0,3.265647602E1
1.298982225E1,-2.317867158E1,-3.731386343E0,5.721995190E0,2.416433920E1
1.299982525E1,-1.638730718E1,-1.361276937E-1,6.177465808E0,1.751352196E1
1.300982825E1,-1.238156101E1,8.880409802E-1,6.453777738E0,1.399081544E1
1.301983025E1,-1.007186638E1,9.357258278E-1,6.623729399E0,1.209098286E1
1.302983325E1,-8.854687754E0,7.818633646E-1,5.554121629E0,1.048165410E1
1.303983525E1,-8.555698568E0,4.653278536E-1,3.288731360E0,9.177813571E0
1.304983825E1,-8.600589981E0,2.386384107E-1,1.577624391E0,8.747342170E0
1.305984125E1,-8.871123108E0,1.350696400E-1,4.490872121E-1,8.883509910E0
1.306984325E1,-9.422282825E0,3.147514524E-1,-3.036728060E-1,9.432428069E0
1.307984625E1,-1.033471744E1,1.006569085E0,-1.058664268E0,1.043744872E1
1.308984925E1,-1.114263424E1,1.731923934E0,-2.037919108E0,1.145909999E1
1.309985125E1,-1.126462587E1,1.852325413E0,-2.775345826E0,1.174842329E1
1.310985425E1,-1.134228859E1,1.304191046E0,-2.313795859E0,1.164912340E1
1.311985625E1,-1.193441975E1,1.732820897E0,-1.281817845E-1,1.206024351E1
1.312985925E1,-1.332264464E1,3.205501508E0,5.817656223E0,1.488667941E1
1.313986225E1,-1.318589697E1,4.297999374E0,1.853347740E1,2.314801206E1
1.314986425E1,-8.929856050E0,4.548517773E0,2.935602571E1,3.101947111E1
1.315986725E1,-2.411071892E0,5.958505123E0,3.448073133E1,3.507474709E1
1.316987025E1,1.484806392E1,7.891122748E0,4.286408555E1,4.604415979E1
1.317987225E1,4.015677793E1,8.933163820E0,5.316360977E1,6.722155631E1
1.318987525E1,5.811593011E1,7.334883555E0,5.739160043E1,8.200644883E1
1.319987725E1,6.351666173E1,3.976575298E0,4.614798477E1,7.861180552E1
1.320988025E1,4.853784472E1,1.410603354E0,2.358325680E1,5.398223942E1
1.321988325E1,3.382784760E1,1.258429347E-1,5.555167111E0,3.428117546E1
1.322988525E1,2.842820356E1,-1.418089106E0,-1.401716522E1,3.172782147E1
1.323988825E1,3.275337027E1,-8.128152352E-1,-3.274047599E1,4.631827609E1
1.324989125E1,2.815874749E1,-1.045626234E1,-6.825276608E1,7.457002454E1
1.325989325E1,2.078113775E1,-2.522224071E1,-5.909044111E1,6.752553104E1
1.326989625E1,1.865732143E1,-1.348422542E1,-1.449939445E1,2.720574237E1
1.327989925E1,9.834035565E0,1.971341833E0,1.170727881E1,1.541605725E1
1.328990125E1,-2.504339075E-1,5.161583424E0,1.882333090E1,1.951979628E1
1.329990425E1,-2.292368737E0,3.155345262E0,3.355832253E0,5.145169410E0
1.330990625E1,9.880893981E-1,7.868006804E-1,-9.138537329E0,9.225412754E0
1.331990925E1,3.217771305E0,-1.377221161E0,-1.585423174E1,1.623599256E1
1.332991225E1,3.536614128E0,-4.683478235E0,-1.427774287E1,1.543685685E1
1.333991425E1,3.971230651E0,-5.990251411E0,-8.932353396E0,1.146476001E1
1.334991725E1,6.904451884E0,-5.909234730E0,-8.844575579E0,1.268136539E1
1.335992025E1,1.063505148E1,-3.793886354E0,-1.276522489E1,1.704256026E1
1.336992225E1,1.222668113E1,-2.745222433E0,-1.556859291E1,1.998522111E1
1.337992525E1,1.338146996E1,-1.679114806E0,-1.588879814E1,2.084075505E1
1.338992725E1,1.551132294E1,1.336503563E-2,-1.630971112E1,2.250795404E1
1.339993025E1,1.741192765E1,2.082175367E0,-1.651600089E1,2.408918770E1
1.340993325E1,1.949981165E1,3.502237177E0,-1.331563149E1,2.387078469E1
1.341993525E1,1.861540391E1,3.915790860E0,-6.925891870E0,2.024437352E1
1.342993825E1,1.854113609E1,5.696304279E0,-5.957286564E0,2.029065975E1
1.343994125E1,1.726465734E1,6.187599033E0,-3.765420354E0,1.872253095E1
1.344994325E1,1.179836907E1,5.115858198E0,8.817080802E-1,1.288995450E1
1.345994575E1,7.310457396E0,4.618884044E0,3.685034587E0,9.399806224E0
1.346994775E1,4.488009909E0,4.147939355E0,4.742350341E0,7.735471582E0
1.347995075E1,1.442323329E0,2.225828592E0,5.659798942E0,6.250434671E0
1.348995375E1,-1.775893534E0,-1.572431041E-1,8.010348644E0,8.206351725E0
1.349995575E1,-3.457738112E0,-1.034918140E0,8.916332610E0,9.619147343E0
1.350995875E1,-4.136399582E0,-1.294126233E0,9.377506016E0,1.033064293E1
1.351996175E1,-4.342805710E0,-1.314792194E0,9.571551130E0,1.059260265E1
1.352996375E1,-4.130263807E0,-1.095119903E0,9.693495398E0,1.059349894E1
1.353996675E1,-3.938880638E0,-8.479807556E-1,9.703711068E0,1.050694344E1
1.354996875E1,-3.750091293E0,-7.006540176E-1,9.692223043E0,1.041601115E1
1.355997175E1,-3.539828927E0,-6.239884689E-1,9.738576261E0,1.038073302E1
1.356997475E1,-3.341023302E0,-5.567916088E-1,9.850010158E0,1.041610070E1
1.357997675E1,-3.071214353E0,-4.932211918E-1,1.013060985E1,1.059739971E1
1.358997975E1,-2.853597651E0,-4.985969392E-1,1.037967902E1,1.077633310E1
1.359998275E1,-2.997792913E0,-9.225922506E-1,1.251355956E1,1.290066323E1
1.360998475E1,-3.096022335E0,-1.486734394E0,1.433104141E1,1.473684096E1
1.361998775E1,-3.126095150E0,-1.775087057E0,1.490127007E1,1.532877212E1
1.362998975E1,-3.445697818E0,-2.456908216E0,1.661290563E1,1.714344962E1
1.363999275E1,-3.502054452E0,-2.932822161E0,1.682345100E1,1.743256535E1
1.364999575E1,-3.081187657E0,-2.722401920E0,1.509549236E1,1.564541719E1
1.365999775E1,-2.279875576E0,-1.476005484E0,1.332590738E1,1.359986148E1
1.367000075E1,-1.678291810E0,-1.138982791E-1,1.284022362E1,1.294994126E1
1.368000275E1,-1.240116672E0,7.040209906E-1,1.350630217E1,1.358137450E1
1.369000575E1,-1.444115501E0,5.511862486E-1,1.449126565E1,1.457347096E1
1.370000875E1,-2.035750814E0,-2.284659183E-1,1.492983606E1,1.506972073E1
1.371001075E1,-2.428720543E0,-5.157768262E-1,1.482121350E1,1.502774364E1
1.372001375E1,-2.528759971E0,-1.450594801E-1,1.392825713E1,1.415669510E1
1.373001675E1,-3.772646343E0,1.190267989E-1,1.150415589E1,1.210754437E1
1.374001875E1,-5.353462729E0,2.547107072E-1,8.768424951E0,1.027665884E1
1.375002175E1,-6.215936978E0,8.035695447E-1,6.665842216E0,9.149702125E0
1.376002375E1,-7.102502925E0,1.898790605E0,5.835255758E0,9.386221994E0
1.377002675E1,-7.781491547E0,2.672916057E0,6.662128065E0,1.058678616E1
1.378002975E1,-8.696330536E0,2.871808805E0,7.648479086E0,1.193200247E1
1.379003175E1,-9.334525473E0,2.837348239E0,7.977339942E0,1.260245466E1
1.380003475E1,-9.939329885E0,2.586016492E0,7.808556554E0,1.290160127E1
1.381003775E1,-1.039470052E1,2.546649820E0,7.387848219E0,1.300444253E1
1.382003975E1,-1.067956283E1,2.695672835E0,6.943892523E0,1.302065120E1
1.383004275E1,-1.119748697E1,2.773706852E0,6.838294147E0,1.341042248E1
1.384004475E1,-1.167810237E1,3.344105662E0,5.659721174E0,1.340125223E1
1.385004775E1,-1.180672123E1,3.928174970E0,4.928302324E0,1.338347446E1
1.386005075E1,-1.200526929E1,4.033339190E0,4.832398339E0,1.355530853E1
1.387005275E1,-1.272320797E1,3.656052278E0,5.056656893E0,1.417097450E1
1.388005575E1,-1.537781464E1,2.516564141E0,5.737327759E0,1.660503562E1
1.389005775E1,-2.227503118E1,-1.412358578E-1,5.452304063E0,2.293304561E1
1.390006075E1,-2.440342235E1,-5.063808623E-1,3.699071413E0,2.468737680E1
1.391006375E1,-1.966703500E1,8.074917108E-1,2.846995853E0,1.988843116E1
1.392006575E1,-1.461607213E1,2.667894175E0,3.309620831E0,1.522172178E1
1.393006875E1,-1.018105027E1,3.279542169E0,4.443236024E0,1.158238006E1
1.394007075E1,-8.679003482E0,1.941370468E0,3.971845193E0,9.740101384E0
1.395007375E1,-8.609981194E0,6.740944292E-1,2.369723892E0,8.955544137E0
1.396007675E1,-8.879126192E0,8.149986221E-3,9.187367427E-1,8.926534913E0
1.397007875E1,-9.309878874E0,1.348058392E-1,-2.245509151E-1,9.313562175E0
1.398008175E1,-9.566934169E0,8.797873429E-1,-4.813030314E-1,9.619350694E0
1.399008475E1,-8.708993266E0,8.562548581E-1,-5.528627184E-1,8.768431632E0
1.400008675E1,-8.088063403E0,4.939972270E-1,-4.877472478E-1,8.117801442E0
1.401008975E1,-8.218949232E0,5.808956590E-1,-2.384365904E-1,8.242901082E0
1.402009175E1,-9.023402145E0,1.686505540E0,-1.609044989E0,9.319609057E0
1.403009475E1,-1.034122539E1,3.479319600E0,3.223709153E0,1.137712214E1
1.404009775E1,-3.964482964E0,4.092984298E0,1.325211318E1,1.442526081E1
1.405009975E1,2.600644588E1,2.883747942E0,3.968555783E1,4.753519465E1
1.406010275E1,6.332832526E1,2.029794694E0,6.592185074E1,9.143460642E1
1.407010475E1,7.608495240E1,1.772465457E0,5.833153333E1,9.588863017E1
1.408010775E1,7.233887990E1,3.016845481E0,4.707431003E1,8.635974506E1
1.409011075E1,5.221959317E1,2.501081591E0,2.769018203E1,5.915984703E1
1.410011275E1,3.215276065E1,1.237151403E0,9.340968520E0,3.350498849E1
1.411011575E1,2.214268530E1,1.227574541E0,-1.095474215E1,2.473483024E1
1.412011875E1,2.942665071E1,1.295474309E0,-5.327668556E1,6.087701742E1
1.413012075E1,3.258096628E1,6.307102087E-1,-5.833943876E1,6.682370294E1
1.414012375E1,2.195058088E1,3.808248870E0,-1.318380484E1,2.588712943E1
1.415012575E1,1.772668327E1,1.492461917E1,5.140640452E0,2.373616947E1
1.416012875E1,9.588199323E0,1.698868513E1,1.339292583E1,2.366261716E1
1.417013175E1,1.760826429E0,1.129735040E1,8.109855391E0,1.401785969E1
1.418013375E1,-2.275831642E0,1.981381795E0,-4.141921985E0,5.124529365E0
1.419013675E1,-3.728983430E0,-5.255386212E0,-1.865793305E1,1.973937353E1
1.420013875E1,-5.505697328E-1,-7.186125126E0,-1.931641022E1,2.061715852E1
1.421014175E1,7.043596905E0,-4.702683122E0,-1.267441412E1,1.524363012E1
1.422014475E1,1.197875567E1,-3.338394102E0,-1.014787200E1,1.605038220E1
1.423014675E1,1.261328499E1,-4.571418978E0,-1.064538468E1,1.712650124E1
1.424014975E1,1.180281062E1,-5.545746662E0,-1.260766582E1,1.813876737E1
1.425015275E1,1.104504187E1,-5.623663734E0,-1.407783710E1,1.875643999E1
1.426015475E1,1.024952818E1,-5.178170806E0,-1.217906959E1,1.673905663E1
1.427015775E1,9.707882472E0,-3.822382759E0,-9.197991818E0,1.390886931E1
1.428015975E1,1.032363813E1,-2.025022928E0,-7.287905855E0,1.279811681E1
1.429016275E1,1.142624642E1,-3.180444581E-1,-5.652648382E0,1.275196821E1
1.430016575E1,1.227696133E1,1.137335046E0,-4.042459677E0,1.297531467E1
1.431016775E1,1.207147146E1,1.962193572E0,-2.608833497E0,1.250506454E1
1.432017075E1,1.041937343E1,2.218457300E0,-1.925752993E0,1.082559098E1
1.433017275E1,7.544106871E0,1.824764270E0,-1.368577661E0,7.881390609E0
1.434017575E1,5.094018847E0,1.578742964E0,-4.383236575E-1,5.351035880E0
1.435017875E1,3.382414865E0,1.573483832E0,3.982795858E-1,3.751694059E0
1.436018075E1,1.992853301E0,1.546076909E0,1.348382547E0,2.860061814E0
1.437018375E1,7.545404953E-1,1.834036638E0,2.329071710E0,3.059018924E0
1.438018675E1,-5.842567116E-1,1.653577091E0,3.106466047E0,3.567324544E0
1.439018875E1,-1.914348584E0,1.374280450E0,4.300406088E0,4.903760779E0
1.440019175E1,-3.064811652E0,1.088918858E0,5.835923510E0,6.681079101E0
1.441019375E1,-3.846628824E0,7.812625632E-1,7.002713174E0,8.027759108E0
1.442019675E1,-4.182567735E0,5.411689449E-1,7.816330428E0,8.881540297E0
1.443019975E1,-4.029204040E0,5.500860950E-1,8.692311160E0,9.596528185E0
1.444020175E1,-3.838981251E0,5.978814550E-1,9.129470637E0,9.921818048E0
1.445020475E1,-3.560545904E0,6.150700763E-1,9.274971582E0,9.953938727E0
1.446020675E1,-3.073675154E0,6.789093190E-1,9.803618349E0,1.029656882E1
1.447020975E1,-2.289080263E0,8.375259340E-1,1.097551380E1,1.124291961E1
1.448021275E1,-1.348098665E0,6.128798189E-1,1.261901409E1,1.270560933E1
1.449021475E1,-9.482634276E-2,2.068722423E-1,1.413903055E1,1.414086182E1
1.450021775E1,1.441712295E0,3.197849184E-1,1.475052067E1,1.482425906E1
1.451021975E1,2.758671614E0,6.784723127E-1,1.460263757E1,1.487641145E1
1.452022275E1,3.876584987E0,9.515609649E-1,1.511586873E1,1.563402913E1
1.453022575E1,4.857442256E0,1.500667724E0,1.602727190E1,1.681428540E1
1.454022775E1,4.823605589E0,2.087669996E0,1.630454920E1,1.713078695E1
1.455023075E1,3.695074257E0,1.925424964E0,1.555200670E1,1.610048905E1
1.456023275E1,2.190490360E0,1.576588849E0,1.526504524E1,1.550178978E1
1.457023575E1,4.766656047E-1,1.246763202E0,1.433067889E1,1.439270600E1
1.458023875E1,-1.103998754E0,1.155110435E0,1.285736298E1,1.295626783E1
1.459024075E1,-2.410939161E0,1.126619658E0,1.100707239E1,1.132420161E1
1.460024375E1,-3.172158930E0,1.327275561E0,8.735832571E0,9.388238567E0
1.461024575E1,-3.483707936E0,1.591838680E0,5.959880973E0,7.084514985E0
1.462024875E1,-4.110036533E0,1.853676412E0,2.294434266E0,5.058947039E0
1.463025175E1,-6.467021096E0,2.405985107E0,-1.066950503E0,6.982084902E0
1.464025375E1,-9.460311361E0,2.444030893E0,-2.561605536E0,1.010111880E1
1.465025675E1,-1.282816900E1,1.428230224E0,-3.287237982E0,1.331944800E1
1.466025975E1,-1.433022514E1,5.728844984E-1,-3.257570379E0,1.470698181E1
1.467026175E1,-1.443726661E1,1.020924584E-1,-2.845658010E0,1.471539533E1
1.468026475E1,-1.417171414E1,-2.078743271E-1,-2.406251448E0,1.437604742E1
1.469026675E1,-1.461831980E1,-6.321223113E-1,-1.386340917E0,1.469750977E1
1.470026975E1,-1.571464584E1,-1.473303778E0,-5.948664844E-1,1.579476445E1
1.471027275E1,-1.569192823E1,-2.071131000E0,1.176003889E-1,1.582845618E1
1.472027475E1,-1.610172449E1,-2.365872331E0,1.020906311E0,1.630659785E1
1.473027775E1,-1.626888236E1,-1.916756760E0,1.168671298E0,1.642304120E1
1.474027975E1,-1.654563926E1,-1.108277893E0,1.345509810E0,1.663721296E1
1.475028275E1,-1.680768106E1,-5.602213662E-1,1.657845705E0,1.689853375E1
1.476028575E1,-1.735622941E1,-5.155193295E-1,1.809054848E0,1.745786754E1
1.477028775E1,-1.772967470E1,-9.614665867E-1,2.392736924E0,1.791622095E1
1.478029075E1,-1.738041583E1,-1.354957741E0,3.494715904E0,1.777998325E1
1.479029275E1,-1.696540152E1,-1.659932138E0,4.354282040E0,1.759374876E1
1.480029575E1,-1.547480591E1,-1.563386421E0,4.210049941E0,1.611329624E1
1.481029875E1,-1.320392511E1,-1.276987752E0,4.302398819E0,1.394578688E1
1.482030075E1,-1.144807642E1,-1.119061474E0,2.836542785E0,1.184722445E1
1.483030375E1,-1.053617273E1,-8.693336177E-1,2.166712803E0,1.079172466E1
1.484030575E1,-9.927951204E0,-5.995643933E-1,1.502456095E0,1.005888000E1
1.485030875E1,-9.445334303E0,-3.482812508E-1,5.831357638E-1,9.469724771E0
1.486031175E1,-9.799121840E0,-1.354772823E-1,-1.082174899E-1,9.800655792E0
1.487031375E1,-1.076228690E1,-1.314182183E-1,-8.734461106E-1,1.079847203E1
1.488031675E1,-1.036137256E1,-5.475119679E-1,-1.435826634E0,1.047470328E1
1.489031875E1,-9.304626321E0,-7.007919388E-1,-1.030172102E0,9.387674625E0
1.490032175E1,-9.088872249E0,-4.130713969E-1,-6.068769577E-1,9.118471713E0
1.491032475E1,-1.210040349E1,-5.240955891E-3,-5.986379385E-2,1.210055270E1
1.492032675E1,-1.316728412E1,3.073148612E0,7.858944350E0,1.563920138E1
1.493032975E1,-4.273349851E-1,8.051159871E0,3.288722940E1,3.386109343E1
1.494033175E1,1.874478525E1,3.090923856E0,4.427705352E1,4.818068340E1
1.495033475E1,4.664403448E1,-5.294205000E-1,5.551555169E1,7.251153507E1
1.496033775E1,7.285011366E1,-4.655666538E0,7.092551900E1,1.017803691E2
1.497033975E1,8.150237432E1,-7.785843045E0,6.110315565E1,1.021609123E2
1.498034275E1,6.399714849E1,-6.204701554E0,4.126894173E1,7.640195605E1
1.499034575E1,3.857815600E1,-2.992409966E0,2.256644003E1,4.479366979E1
1.500034775E1,1.991859625E1,-1.407816279E0,1.050512518E1,2.256302459E1
1.501035075E1,1.178748623E1,9.549747156E-1,-5.702169621E0,1.312903450E1
1.502035275E1,1.334804377E1,3.261444452E0,-3.653382440E1,3.903239190E1
1.503035575E1,1.104515531E1,-5.227179828E-1,-7.381969896E1,7.464326255E1
1.504035875E1,1.040546992E1,-9.802030245E0,-8.075379973E1,8.200932735E1
1.505036075E1,1.367767120E1,-5.611217936E0,-1.111140660E1,1.849399397E1
1.506036375E1,-4.612165593E0,2.982734871E-1,2.036830795E1,2.088609603E1
1.507036575E1,-8.611293894E0,3.570553122E0,-5.911324525E0,1.103843240E1
1.508036875E1,2.202572461E0,1.867111560E0,-1.108062686E1,1.145066472E1
1.509037175E1,7.307085891E0,-4.709109943E-1,-1.450539486E1,1.624874584E1
1.510037375E1,9.349036508E0,-3.379570779E0,-1.637165536E1,1.915351355E1
1.511037675E1,1.130740527E1,-5.237369771E0,-1.203731437E1,1.732583023E1
1.512037975E1,1.554107592E1,-4.175352564E0,-1.252535105E1,2.039222962E1
1.513038175E1,1.692305481E1,-4.007716691E0,-1.430162758E1,2.251639688E1
1.514038475E1,1.356368324E1,-4.574164538E0,-1.276545410E1,1.917950215E1
1.515038675E1,1.138918209E1,-4.609106037E0,-1.094500771E1,1.645449850E1
1.516038975E1,1.212675338E1,-3.231515186E0,-1.116714343E1,1.679898599E1
1.517039275E1,1.305303420E1,-2.028876243E0,-1.085545292E1,1.709792089E1
1.518039475E1,1.403297609E1,-5.656054093E-1,-9.858665206E0,1.715918433E1
1.519039775E1,1.528909484E1,1.000980608E0,-7.964390114E0,1.726817573E1
1.520039975E1,1.517480282E1,2.154730251E0,-4.780986403E0,1.605538334E1
1.521040275E1,1.282200019E1,1.880893593E0,-6.896592057E-1,1.297756061E1
1.522040575E1,1.055676428E1,1.733457366E0,1.625909529E0,1.082098555E1
1.523040775E1,7.392506695E0,9.860392912E-1,3.049393129E0,8.057308929E0
1.524041075E1,4.438379327E0,6.693715601E-1,4.559678062E0,6.398275812E0
1.525041275E1,2.390666279E0,8.142478030E-1,6.003022900E0,6.512646826E0
1.526041575E1,6.850521845E-1,9.219884524E-1,7.433929541E0,7.522145147E0
1.527041875E1,-2.744677180E-1,1.057192962E0,8.420495739E0,8.491038687E0
1.528042075E1,-1.345598396E0,6.918473800E-1,9.413304425E0,9.534127545E0
1.529042375E1,-2.042436228E0,5.973028364E-1,1.033879178E1,1.055551666E1
1.530042575E1,-2.271326947E0,5.256616539E-1,1.052123894E1,1.077644260E1
1.531042875E1,-2.231173824E0,3.067331656E-1,1.049789919E1,1.073676438E1
1.532043175E1,-2.026344398E0,1.219803006E-1,1.065542435E1,1.084707421E1
1.533043375E1,-1.797926719E0,-4.326396888E-2,1.093285486E1,1.107978915E1
1.534043675E1,-1.695443302E0,-5.206885970E-1,1.075335703E1,1.089863900E1
1.535043875E1,-1.387132338E0,-1.070929753E0,1.103680665E1,1.117506724E1
1.536044175E1,-4.483456390E-1,-1.516245584E0,1.265693680E1,1.275531511E1
1.537044475E1,1.513842232E0,-1.342894789E0,1.509865687E1,1.523366417E1
1.538044675E1,4.174478990E0,-8.077274998E-1,1.834201851E1,1.882839190E1
1.539044975E1,5.825504941E0,-5.568322104E-1,2.106276772E1,2.186062108E1
1.540045175E1,7.501079550E0,-3.494619133E-1,2.310259229E1,2.429234629E1
1.541045475E1,8.397095182E0,-2.645066207E-1,2.406128305E1,2.548581004E1
1.542045775E1,6.503038191E0,-1.086709561E0,2.413696474E1,2.502126116E1
1.543045975E1,4.679230233E0,-2.005094301E0,2.420278567E1,2.473237621E1
1.544046275E1,1.688605714E0,-2.702618450E0,2.225486296E1,2.248186961E1
1.545046475E1,-2.137262571E0,-2.720665004E0,1.898392585E1,1.929661499E1
1.546046829E1,-5.898297513E0,-2.478996073E0,1.368827337E1,1.510973736E1
1.547047129E1,-9.206389005E0,-1.467271352E0,7.265044996E0,1.181911006E1
1.548047329E1,-1.108025498E1,3.463398656E-1,3.970046882E0,1.177511248E1
1.549047629E1,-1.242507598E1,1.281373310E0,2.335752153E0,1.270748476E1
1.550047829E1,-1.302025471E1,1.696250948E0,1.936695180E0,1.327234298E1
1.551048129E1,-1.283088678E1,1.647499788E0,3.327721179E0,1.335738146E1
1.552048429E1,-1.195796765E1,1.815791717E0,5.111482726E0,1.313077856E1
1.553048629E1,-1.066943896E1,2.318626828E0,7.109214360E0,1.302896338E1
1.554048929E1,-9.901223581E0,2.429968339E0,9.702110100E0,1.407373138E1
1.555049129E1,-9.831428876E0,2.809224009E0,1.214488910E1,1.587599019E1
1.556049429E1,-1.352078806E1,1.911001199E0,1.496429019E1,2.025817406E1
1.557049729E1,-2.558571299E1,-6.007604047E-1,1.409575063E1,2.921779950E1
1.558049929E1,-2.797591909E1,8.824641252E-1,1.325454445E1,3.096956152E1
1.559050229E1,-2.319327559E1,3.416458524E0,9.886715469E0,2.544302191E1
1.560050429E1,-1.795570467E1,3.364430876E0,6.566637771E0,1.941255926E1
1.561050729E1,-1.409762524E1,2.331252429E0,5.894231944E0,1.545702900E1
1.562051029E1,-1.125795303E1,1.860197812E0,5.792563482E0,1.279670403E1
1.563051229E1,-9.939981265E0,1.511957821E0,5.626954547E0,1.152179940E1
1.564051529E1,-9.665343393E0,1.039835649E0,5.331736815E0,1.108726921E1
1.565051729E1,-9.983914905E0,4.795691858E-1,4.844763154E0,1.110766733E1
1.566052029E1,-1.042456108E1,2.314827161E-1,4.182217779E0,1.123458960E1
1.567052229E1,-1.061404361E1,2.412933207E-1,3.363631562E0,1.113688293E1
1.568052529E1,-1.071439118E1,3.540517583E-1,2.380441253E0,1.098134926E1
1.569052829E1,-1.103371582E1,4.610220370E-1,1.395321948E0,1.113114322E1
1.570053029E1,-1.139307517E1,6.642968347E-1,6.435166343E-1,1.143055404E1
1.571053329E1,-1.170206309E1,6.688779089E-1,8.719017148E-1,1.175354801E1
1.572053529E1,-1.188510667E1,2.484246946E-1,2.149701937E0,1.208050884E1
1.573053829E1,-1.189725134E1,2.533941335E-1,3.477342657E0,1.239760904E1
1.574054129E1,-1.192205405E1,4.213178713E-1,7.096259269E0,1.388055392E1
1.575054329E1,-1.242385041E1,-7.480439463E-1,1.616971475E1,2.040517836E1
1.576054629E1,-1.040619146E1,-2.543821522E0,2.370323699E1,2.601159919E1
1.577054829E1,-3.811984071E0,-2.390333280E0,2.770464103E1,2.806763350E1
1.578055129E1,4.294362406E0,-1.129575352E0,3.159118236E1,3.190172867E1
1.579055429E1,1.412276593E1,-2.310141934E0,3.292515211E1,3.590062555E1
1.580055629E1,3.415538055E1,-3.546985627E0,3.959308763E1,5.240976737E1
1.581055929E1,6.232589732E1,-5.458162388E0,4.790588233E1,7.879900110E1
1.582056129E1,8.142937300E1,-8.214409454E0,4.476864999E1,9.328693012E1
1.583056429E1,7.994724884E1,-7.351096129E0,3.912251073E1,8.930941752E1
1.584056729E1,6.004901493E1,-6.426568304E0,9.251197972E0,6.109639628E1
1.585056929E1,3.935853943E1,-8.036166440E0,-1.791625351E1,4.398484668E1
1.586057229E1,2.834926615E1,-5.855152517E-1,-3.181868583E1,4.261986024E1
1.587057429E1,2.985179007E1,1.650469355E1,-3.299405570E1,4.745673810E1
1.588057729E1,1.972994169E1,1.271476693E1,-1.515431768E1,2.793902721E1
1.589058029E1,1.901830280E0,4.567795166E-1,-3.224083667E0,3.770984146E0
1.590058229E1,-2.928805065E1,-7.078345739E0,2.712739688E-1,3.013248213E1
1.591058529E1,-4.208442249E1,-8.276622074E0,-1.548585247E1,4.560057803E1
1.592058729E1,-1.745854867E1,-3.054181707E0,-1.927034820E1,2.618158259E1
1.593059029E1,2.141631026E0,-9.281484941E-1,-1.544712870E1,1.562247830E1
1.594059329E1,9.110818019E0,-2.684604933E0,-1.149563065E1,1.491186215E1
1.595059529E1,1.357284232E1,-3.754330817E0,-1.329907217E1,1.936962491E1
1.596059829E1,1.790655999E1,-2.765121677E0,-2.309870506E1,2.935712799E1
1.597060029E1,2.043311849E1,-1.442744329E0,-2.848101327E1,3.508221714E1
1.598060329E1,1.970309595E1,-7.163431205E-1,-2.283977632E1,3.017251265E1
1.599060529E1,1.780320695E1,3.809542128E-1,-1.466211427E1,2.306679212E1
1.600060829E1,1.910507782E1,1.257990587E0,-9.092747784E0,2.119586283E1
1.601061129E1,1.953906284E1,9.479419769E-1,-6.519701001E0,2.061989505E1
1.602061329E1,1.900758134E1,9.150191561E-1,-3.381951765E0,1.932777810E1
1.603061629E1,1.712857392E1,9.414343914E-1,-3.430269063E-1,1.715785565E1
1.604061829E1,1.477571749E1,1.596142962E0,1.935150054E0,1.498713800E1
1.605062129E1,1.142585232E1,2.013076335E0,4.134217109E0,1.231642516E1
1.606062429E1,7.003417178E0,1.203615867E0,5.195100249E0,8.802591092E0
1.607062629E1,3.609440029E0,6.550849850E-1,6.036527445E0,7.063770754E0
1.608062929E1,1.324116603E0,4.701033477E-1,7.018883064E0,7.158142315E0
1.609063129E1,-5.671916127E-1,2.637667286E-1,7.933982838E0,7.958603074E0
1.610063429E1,-2.012390603E0,1.154923215E-1,8.626793109E0,8.859154235E0
1.611063629E1,-2.796334699E0,1.763429426E-1,9.185589289E0,9.603417890E0
1.612063929E1,-3.251802101E0,2.438419576E-1,9.780925305E0,1.031019765E1
1.613064229E1,-3.416309128E0,3.916395974E-1,1.016509205E1,1.073096669E1
1.614064429E1,-3.396031861E0,5.239249578E-1,1.028227844E1,1.084125360E1
1.615064729E1,-3.269286152E0,5.741582413E-1,1.022195388E1,1.074738251E1
1.616064929E1,-3.122853454E0,6.115455574E-1,1.027119212E1,1.075284098E1
1.617065229E1,-2.960941129E0,5.271012750E-1,1.057953568E1,1.099870826E1
1.618065529E1,-2.793735319E0,1.785350090E-1,1.128379304E1,1.162586845E1
1.619065729E1,-2.556399467E0,-3.590929352E-1,1.238373851E1,1.264994488E1
1.620066029E1,-1.829501099E0,-7.193292935E-1,1.306309843E1,1.321018734E1
1.621066229E1,-5.024293140E-1,-5.222966909E-1,1.370649329E1,1.372563978E1
1.622066529E1,1.297604742E0,4.823762879E-2,1.556922324E1,1.562327806E1
1.623066829E1,3.561449592E0,9.829214097E-1,1.869060963E1,1.905226879E1
1.624067029E1,6.007365042E0,2.580091508E0,2.291434001E1,2.382881208E1
1.625067329E1,7.299730094E0,3.027905197E0,2.712063516E1,2.824859502E1
1.626067529E1,6.131826535E0,1.014245017E0,2.838094870E1,2.905350648E1
1.627067829E1,2.583967627E0,-1.095205419E0,2.502132570E1,2.517822677E1
1.628068029E1,-1.068979779E0,-1.553909546E0,1.940987563E1,1.950129802E1
1.629068329E1,-5.439793360E0,-1.134357863E0,1.160097526E1,1.286315461E1
1.630068629E1,-1.155011734E1,1.166518134E0,-4.535059530E-1,1.161772968E1
1.631068829E1,-1.617440655E1,3.385068331E0,-6.792882916E0,1.786654341E1
1.632069129E1,-1.619880816E1,2.796033275E0,-3.417749589E0,1.678988386E1
1.633069329E1,-2.006821715E1,2.665012083E0,8.565574515E0,2.198191747E1
1.634069629E1,-4.217935321E1,2.164472735E0,1.638228677E1,4.530079579E1
1.635069829E1,-3.835340306E1,1.329720135E0,3.906195579E0,3.857473326E1
1.636070129E1,-2.249264116E1,1.348962591E0,4.334228137E-1,2.253722391E1
1.637070429E1,-1.637884392E1,8.791376442E-1,1.937179330E0,1.651641835E1
1.638070629E1,-1.397790701E1,5.363110051E-2,2.850550667E0,1.426570713E1
1.639070929E1,-1.241857973E1,-2.421732353E-1,2.991217427E0,1.277603820E1
1.640071129E1,-1.185139279E1,-4.013526266E-1,2.478584137E0,1.211445312E1
1.641071429E1,-1.162574757E1,-4.220305007E-1,1.630501932E0,1.174711253E1
1.642071729E1,-1.129534130E1,-1.418691113E-1,1.307210694E0,1.137161649E1
1.643071929E1,-1.100902303E1,6.877195381E-2,1.321238164E0,1.108823646E1
1.644072229E1,-1.079076284E1,2.023377082E-1,1.540915864E0,1.090210644E1
1.645072429E1,-1.065951039E1,3.577990195E-1,2.081958436E0,1.086681797E1
1.646072662E1,-1.056306758E1,4.502620639E-1,3.307226396E0,1.107785535E1
1.647072862E1,-1.045252714E1,4.214352907E-1,6.066003259E0,1.209253186E1
1.648073162E1,-1.016338700E1,3.590347555E-1,9.241746533E0,1.374166003E1
1.649073463E1,-9.796362539E0,2.508344052E-1,1.110695102E1,1.481202207E1
1.650073662E1,-9.637362127E0,-2.746204948E-1,1.014883328E1,1.399832069E1
1.651073962E1,-9.986904001E0,-5.779649614E-1,8.104813921E0,1.287479335E1
1.652074162E1,-9.883767303E0,-7.442242527E-1,6.690204055E0,1.195832581E1
1.653074463E1,-9.946629549E0,-1.003044675E0,6.530246454E0,1.194092361E1
1.654074662E1,-9.507272689E0,-8.866608180E-1,7.345558816E0,1.204705921E1
1.655074962E1,-8.258580490E0,-8.333782116E-1,7.459359666E0,1.115978125E1
1.656075262E1,-6.036878863E0,-5.775639155E-1,5.545461318E0,8.217641250E0
1.657075463E1,-3.865472646E0,-4.820746446E-1,8.250753407E0,9.124100313E0
1.658075762E1,-1.797034142E0,-1.741684252E0,1.979114099E1,1.994873573E1
1.659075962E1,3.571624916E0,-2.603981769E0,2.864094398E1,2.898000858E1
1.660076262E1,1.134650326E1,-1.605110690E0,2.603556501E1,2.844591644E1
1.661076463E1,1.183317872E1,2.536895787E0,2.303379161E1,2.601952180E1
1.662076762E1,5.932981442E0,4.143537571E0,2.102574081E1,2.223625303E1
1.663077062E1,7.814430082E0,3.482565098E-3,2.668961351E1,2.781008448E1
1.664077262E1,2.538966286E1,-2.669161852E0,4.210239917E1,4.923790635E1
1.665077563E1,4.780870161E1,-5.463234848E0,5.319783235E1,7.173233755E1
