"Time (s)","Linear Acceleration x (m/s^2)","Linear Acceleration y (m/s^2)","Linear Acceleration z (m/s^2)","Absolute acceleration (m/s^2)"
-1.773208263E-3,-3.628989610E-1,3.291660815E-1,-1.798716386E0,1.864249608E0
8.228791645E-3,-4.983725157E-1,6.861999929E-2,-1.995312640E0,2.057755185E0
1.823179168E-2,-5.645466247E-1,2.701817089E-1,-2.237340006E0,2.323230800E0
2.823479171E-2,-5.017144918E-1,6.305625665E-1,-2.905347556E0,3.015024213E0
3.823679173E-2,-7.512213233E-1,1.029832086E0,-3.513383140E0,3.737478922E0
4.823979165E-2,-1.129039455E0,1.379042423E0,-3.633385547E0,4.046971538E0
5.824279168E-2,-1.162737251E0,1.397124937E0,-3.089183432E0,3.584267049E0
6.824479171E-2,-7.908151594E-1,1.207019092E0,-1.626503606E0,2.174349946E0
7.824779162E-2,-1.164817983E-1,9.804114193E-1,3.828090227E-1,1.058922711E0
8.825079165E-2,3.320522672E-1,7.152413589E-1,1.147445905E0,1.392286255E0
9.825279168E-2,3.004366645E-1,6.391787311E-1,1.509271610E0,1.666347032E0
1.082557917E-1,-2.778938940E-1,7.787371507E-1,1.497093614E0,1.710247308E0
1.182587916E-1,-1.026831441E0,1.084546529E0,1.034830286E0,1.817002395E0
1.282607917E-1,-9.275359252E-1,7.266153628E-1,1.397017933E0,1.827553524E0
1.382637917E-1,-1.983588973E-1,5.280453810E-1,1.321640307E0,1.436979915E0
1.482667917E-1,3.690413149E-1,3.914055991E-1,9.617313194E-1,1.101960510E0
1.582687916E-1,7.628495349E-1,1.001335680E-1,8.856678146E-1,1.173189508E0
1.682717917E-1,1.162054443E0,-1.192238501E-1,1.159029239E0,1.645580029E0
1.782747917E-1,1.853880480E0,-2.996051905E-1,1.313505660E0,2.291709673E0
1.882767917E-1,2.548258681E0,-1.273615955E0,5.804022270E-1,2.907333255E0
1.982797916E-1,3.028870572E0,-2.526289230E0,-1.705434000E-1,3.947819559E0
2.082827917E-1,3.446529000E0,-3.139140288E0,-2.152787513E0,5.134905839E0
2.182847917E-1,2.503102097E0,-3.716871215E0,-5.729204807E0,7.273543803E0
2.282877917E-1,2.261877846E0,-3.386785074E0,-3.589511549E0,5.428719710E0
2.382907916E-1,2.130995817E0,-1.052833571E0,-7.870340574E-1,2.503801971E0
2.482927917E-1,1.718405902E0,7.674640113E-1,3.090791416E-1,1.907209944E0
2.582957917E-1,6.235491968E-1,7.882187033E-1,-1.150229765E0,1.527458948E0
2.682987917E-1,4.080472134E-1,3.505075416E-1,-2.224126468E0,2.288251868E0
2.783007916E-1,2.833043227E-1,-6.406893593E-1,-4.325275465E0,4.381638055E0
2.883037917E-1,8.980737059E-1,-9.154970929E-1,-5.112015408E0,5.270424351E0
2.983067917E-1,9.163297364E-1,-1.416585348E0,-2.698332149E0,3.182353000E0
3.083087917E-1,-1.255479062E-1,-3.131199185E0,-2.130979153E0,3.789623037E0
3.183117916E-1,6.761253865E-1,-4.240494639E0,-3.632227798E0,5.624234979E0
3.283147917E-1,2.610814533E0,-4.107991177E0,-4.244154704E0,6.457924836E0
3.383167917E-1,2.731851897E0,-4.354573816E0,-4.829086769E0,7.053042388E0
3.483197917E-1,7.633693524E-1,-4.505876076E0,-5.222738868E0,6.939931791E0
3.583227916E-1,-1.276727259E0,-3.777727866E0,-6.925545130E0,7.991522738E0
3.683247917E-1,-3.536675231E-1,-2.846689751E0,-7.312105726E0,7.854655524E0
3.783277917E-1,1.394039069E0,-2.180770825E0,-5.188802798E0,5.798515396E0
3.883307917E-1,2.326549221E0,-1.753711537E0,-2.955120810E0,4.149828241E0
3.983327916E-1,2.173097524E0,-1.533474405E0,-7.454170847E-1,2.762162781E0
4.083357917E-1,7.736706845E-1,-1.118883426E0,7.268223542E-1,1.542315527E0
4.183387917E-1,3.780853495E-2,1.361883768E-1,-6.766590911E-1,6.912628190E-1
4.283407917E-1,-1.271754786E-2,9.630656540E-2,2.131503063E-1,2.342429159E-1
4.383437916E-1,-1.687745735E0,-1.304549188E0,2.519678661E0,3.301380742E0
4.483467917E-1,-4.067332856E0,-1.288504720E0,-2.816206169E-1,4.275833386E0
4.583487917E-1,-4.450477216E0,1.696086934E0,4.566952583E0,6.598523640E0
4.683517917E-1,-2.650803641E0,4.582046585E0,1.386618309E1,1.484226884E1
4.783547916E-1,-5.318134730E-1,6.344418433E0,1.941885578E1,2.043591032E1
4.883567917E-1,6.831335668E-1,9.078700433E0,2.321071666E1,2.493244555E1
4.983597917E-1,6.128713770E-1,1.056667297E1,2.402761713E1,2.625560081E1
5.083627917E-1,-6.635910027E-1,1.026994198E1,2.146299793E1,2.380278013E1
5.183647916E-1,-2.618303939E0,9.226583533E0,1.843343388E1,2.077924070E1
5.283677917E-1,-3.760949865E0,8.412050021E0,1.695616642E1,1.929815818E1
5.383707917E-1,-3.495337463E0,8.306568589E0,1.643257048E1,1.874155379E1
5.483727917E-1,-2.618547476E0,8.429467122E0,1.634995868E1,1.858046974E1
5.583757916E-1,-2.729867937E0,7.540914291E0,1.526471078E1,1.724322947E1
5.683787917E-1,-3.514670112E0,6.312335930E0,1.279680687E1,1.469546723E1
5.783807917E-1,-4.663722247E0,4.765108581E0,9.351934388E0,1.148543607E1
5.883837917E-1,-5.370761717E0,3.789425221E0,6.078763638E0,8.952999067E0
5.983867917E-1,-4.737335184E0,3.086520610E0,5.604983634E0,7.961456881E0
6.083887917E-1,-3.935816404E0,2.142054949E0,5.366365196E0,6.991203443E0
6.183917917E-1,-3.344917840E0,1.898989410E0,4.296788415E0,5.766890568E0
6.283947916E-1,-2.725835405E0,1.644204882E0,2.845701864E0,4.269848644E0
6.383967916E-1,-2.306034557E0,1.574732358E0,6.133045095E-1,2.858971808E0
6.483997917E-1,-1.951476064E0,2.007607873E0,-1.589463834E0,3.219494289E0
6.584027917E-1,-1.843952785E0,1.304669056E0,-3.376657112E0,4.062528334E0
6.684047917E-1,-1.418947038E0,-2.953349689E-1,-3.252604923E0,3.560908905E0
6.784077917E-1,-4.226896647E-1,-2.292660221E0,-1.744739569E0,2.911884888E0
6.884107917E-1,5.655395185E-1,-3.641369335E0,-1.221004463E0,3.882042952E0
6.984127917E-1,1.640282570E0,-4.465912988E0,-1.541816627E0,5.001210278E0
7.084157916E-1,3.157999313E0,-4.850160426E0,-2.267055556E0,6.215831136E0
7.184187917E-1,4.474118386E0,-4.707825749E0,-3.861111208E0,7.555761932E0
7.284207917E-1,4.790906497E0,-4.352962324E0,-6.078440287E0,8.879667920E0
7.384237917E-1,3.868330472E0,-4.403030862E0,-8.256338083E0,1.012510642E1
7.484267916E-1,2.185040608E0,-5.065067528E0,-1.023646667E1,1.162817963E1
7.584287917E-1,6.607353687E-1,-5.834973337E0,-1.218586639E1,1.352696658E1
7.684317917E-1,-3.313459966E-1,-6.340047639E0,-1.344479531E1,1.486837298E1
7.784347917E-1,-8.664333256E-1,-6.534413765E0,-1.406852014E1,1.553616841E1
7.884367916E-1,-1.003182524E0,-6.642796585E0,-1.394829671E1,1.548186367E1
7.984397917E-1,-8.808928321E-1,-6.857183577E0,-1.293741370E1,1.466879722E1
8.084427917E-1,-5.246888965E-1,-7.052794576E0,-1.138176899E1,1.340006997E1
8.184447917E-1,-2.334084783E-1,-7.066819122E0,-9.861040345E0,1.213402360E1
8.284478333E-1,-3.311891451E-1,-7.245208316E0,-8.758358969E0,1.137152504E1
8.384508333E-1,-4.951065534E-1,-7.557646683E0,-7.917287868E0,1.095657798E1
8.484528334E-1,-5.726518158E-1,-7.752736110E0,-7.432104040E0,1.075495317E1
8.584558334E-1,-8.068896668E-1,-7.676743941E0,-7.694923519E0,1.089932642E1
8.684588333E-1,-9.444237804E-1,-7.410251241E0,-8.440149985E0,1.127119743E1
8.784608333E-1,-8.044521819E-1,-6.900010339E0,-9.482790982E0,1.175502492E1
8.884638334E-1,-5.175318680E-1,-6.406412952E0,-1.010967916E1,1.197979878E1
8.984668334E-1,8.517734058E-2,-5.726561866E0,-9.560108714E0,1.114434586E1
9.084688333E-1,6.841654542E-1,-4.749717833E0,-8.607148218E0,9.854486405E0
9.184718333E-1,9.950691098E-2,-4.878706241E0,-6.867655356E0,8.424747254E0
9.284748334E-1,3.007284771E-1,-5.053597630E0,-5.534696009E0,7.500809726E0
9.384768334E-1,9.956067979E-1,-4.416536176E0,-5.232055237E0,6.918918029E0
9.484798333E-1,8.908305406E-1,-3.956120568E0,-5.913282173E0,7.170172596E0
9.584828333E-1,4.213119876E-1,-4.067313852E0,-6.612992742E0,7.775102493E0
9.684848334E-1,-5.316876482E-1,-4.585858970E0,-7.289005131E0,8.628000350E0
9.784878334E-1,-1.180082651E0,-5.010524701E0,-8.100453068E0,9.597671215E0
9.884908333E-1,-8.398410659E-1,-4.453831179E0,-8.716595816E0,9.824509545E0
9.984928333E-1,-3.681445713E-1,-3.804305215E0,-8.661648946E0,9.467440576E0
1.008495833E0,4.950753439E-1,-3.610912651E0,-7.842609569E0,8.648139373E0
1.018498833E0,1.604700800E0,-3.815342712E0,-5.809002344E0,7.132770352E0
1.028500833E0,2.461710534E0,-4.496450949E0,-5.739070814E0,7.695129869E0
1.038503833E0,1.639882035E0,-4.523620037E0,-7.155689199E0,8.623006392E0
1.048506833E0,3.258309028E-1,-4.501880089E0,-6.897432886E0,8.243037701E0
1.058508833E0,-1.117053394E0,-5.199996123E0,-6.820988728E0,8.649488724E0
1.068511833E0,-2.238051466E0,-5.524152310E0,-6.860684305E0,9.088130844E0
1.078514833E0,-2.600643594E0,-4.837291582E0,-3.536100157E0,6.531978358E0
1.088516833E0,-1.763563656E0,-3.180264925E0,-2.182113054E0,4.240973844E0
1.098519833E0,-5.889679229E-1,-3.982497650E-1,-1.189596144E0,1.385866182E0
1.108522833E0,-8.317841144E-1,2.933547508E0,-2.344803643E0,3.846513996E0
1.118524833E0,-2.020318404E0,5.346491094E0,-5.498233942E0,7.930777386E0
1.128527833E0,-5.079549327E0,6.371627866E0,-8.367601826E0,1.167973559E1
1.138530833E0,-6.379819230E0,5.135949816E0,-7.050111873E0,1.080667161E1
1.148532833E0,-3.391015827E0,1.656033507E0,1.269064482E0,3.981451993E0
1.158535833E0,5.609793846E-1,-1.602292625E0,1.093528730E1,1.106627976E1
1.168538833E0,3.134142965E0,-4.069360670E0,2.039222774E1,2.102915834E1
1.178540833E0,4.598280502E0,-4.102140161E0,3.008948640E1,3.071398589E1
1.188543833E0,4.931211898E0,-1.775167163E0,3.239574052E1,3.281694796E1
1.198546833E0,4.600558285E0,1.560450388E0,2.733373343E1,2.776208070E1
1.208548833E0,3.744372717E0,4.071301069E0,1.858012649E1,1.938599804E1
1.218551833E0,2.753332229E0,5.453722597E0,1.152827916E1,1.304703602E1
1.228554833E0,2.371450721E0,6.277392969E0,8.592692147E0,1.090246758E1
1.238556833E0,2.323547845E0,6.088685778E0,7.751139235E0,1.012675311E1
1.248559833E0,2.186095300E0,5.136050388E0,8.283674986E0,9.988858669E0
1.258562833E0,1.876128697E0,4.241646540E0,8.946393145E0,1.007717096E1
1.268564833E0,1.224733525E0,3.797905730E0,8.040097523E0,8.975924929E0
1.278567833E0,6.222589356E-1,3.706265243E0,6.148073609E0,7.205721153E0
1.288570833E0,3.749993353E-1,3.704302917E0,4.422442741E0,5.781045269E0
1.298572833E0,3.214233448E-1,3.573569700E0,3.388442175E0,4.935104228E0
1.308575833E0,3.719400720E-1,3.693307520E0,3.088995736E0,4.829156709E0
1.318578833E0,6.940528035E-1,3.626083544E0,3.546348572E0,5.119255743E0
1.328580833E0,1.150502318E0,2.904710795E0,4.869070614E0,5.785226791E0
1.338583833E0,1.346696211E0,1.867265049E0,6.437348231E0,6.836645500E0
1.348586833E0,8.595151193E-1,7.147194949E-1,6.885039713E0,6.975196201E0
1.358588833E0,6.547397800E-1,-9.794787884E-2,6.294195528E0,6.328915809E0
1.368591833E0,2.417783838E-1,-2.765466955E-1,4.813437865E0,4.827433992E0
1.378594833E0,-2.897021998E-1,1.768198013E-3,3.114445742E0,3.127891106E0
1.388596833E0,-3.773098991E-1,3.914849751E-1,1.573674012E0,1.664954397E0
1.398599833E0,-1.872088417E-1,7.030909909E-1,-2.012377739E-2,7.278660992E-1
1.408602833E0,2.360864483E-1,1.079941262E0,-1.334435769E0,1.732838354E0
1.418604833E0,6.839221369E-1,1.489929313E0,-1.899199618E0,2.508903751E0
1.428607833E0,8.484937026E-1,1.508038140E0,-1.441801173E0,2.252312415E0
1.438610833E0,8.550808834E-1,9.987877563E-1,-6.382762134E-1,1.461552881E0
1.448612833E0,6.943874104E-1,4.379856884E-1,4.026392698E-3,8.209881551E-1
1.458615833E0,3.201692266E-1,-5.952640951E-2,4.187957114E-1,5.305106738E-1
1.468618833E0,-1.264609123E-1,-4.217789608E-1,5.370252424E-1,6.944681167E-1
1.478620833E0,-3.966039200E-1,-4.785232651E-1,2.927928919E-1,6.870275556E-1
1.488623833E0,-5.634899232E-1,-3.253200755E-1,-1.948689866E-1,6.792112830E-1
1.498626833E0,-5.771515040E-1,-1.730974638E-1,-6.846276766E-1,9.120206391E-1
1.508628833E0,-4.987169533E-1,-1.088421187E-1,-9.620418066E-1,1.089077428E0
1.518631833E0,-5.399954453E-1,1.083342880E-2,-1.033618743E0,1.166224742E0
1.528634833E0,-5.721797628E-1,3.026162142E-1,-1.161885020E0,1.330016185E0
1.538636833E0,-6.259915057E-1,3.609524229E-1,-1.122647864E0,1.335099338E0
1.548639833E0,-5.746403076E-1,2.210940412E-1,-8.897889322E-1,1.082043623E0
1.558641833E0,-4.798771148E-1,3.548850596E-2,-5.118611652E-1,7.025263922E-1
1.568644833E0,-3.708951015E-1,-2.519287482E-1,-1.252713329E-1,4.655364404E-1
1.578647833E0,-2.954838536E-1,-4.114045385E-1,1.948292255E-2,5.068964256E-1
1.588649833E0,-2.847552179E-1,-3.181736085E-1,-6.182728887E-2,4.314424560E-1
1.598652833E0,-3.682992301E-1,-4.335301101E-2,1.620643526E-1,4.047081181E-1
1.608655833E0,-3.665775540E-1,4.163670704E-1,1.277097387E0,1.392378676E0
1.618657833E0,-3.535633696E-1,6.524095184E-1,2.452744414E0,2.562537882E0
1.628660833E0,-4.559769863E-1,8.774796662E-1,3.407797043E0,3.548375158E0
1.638663833E0,-4.940889186E-1,1.464649753E0,4.925635993E0,5.162481254E0
1.648665833E0,-3.174807865E-2,2.073014242E0,5.983360468E0,6.332377000E0
1.658668833E0,6.367663892E-1,2.539013649E0,6.566859965E0,7.069350150E0
1.668671833E0,9.986485925E-1,3.347229245E0,7.924964093E0,8.660617674E0
1.678673833E0,6.357347211E-1,4.030642455E0,1.011498375E1,1.090702221E1
1.688676833E0,3.107875519E-2,3.666019150E0,1.325680967E1,1.375440529E1
1.698679833E0,-9.765047483E-2,3.056042875E0,1.577806123E1,1.607159450E1
1.708681833E0,3.901977836E-1,2.977828180E0,1.679634682E1,1.706273663E1
1.718684833E0,9.970404620E-1,3.781586443E0,1.679033822E1,1.723977793E1
1.728687833E0,1.507280779E0,5.010980199E0,1.515138940E1,1.602954830E1
1.738689833E0,1.270806953E0,5.632096589E0,1.247935686E1,1.375026581E1
1.748692833E0,4.992856316E-1,5.595616980E0,1.014956886E1,1.160060186E1
1.758695833E0,-7.410059452E-1,5.359733284E0,8.021501039E0,9.675758864E0
1.768697833E0,-2.349348392E0,5.016084818E0,6.193264400E0,8.308854837E0
1.778700833E0,-3.589809465E0,4.601259366E0,4.700519360E0,7.493544022E0
1.788702833E0,-4.335774726E0,4.182168955E0,3.198845038E0,6.820710316E0
1.798705833E0,-4.753727853E0,3.607392334E0,1.878080644E0,6.256068643E0
1.808708833E0,-4.616863831E0,2.976688265E0,9.901938111E-1,5.581808707E0
1.818710833E0,-3.563959801E0,2.597600411E0,3.127149403E-1,4.421213407E0
1.828713292E0,-1.689907743E0,2.355398213E0,-1.889077502E-1,2.905060251E0
1.838716292E0,4.088786144E-2,2.211625705E0,-1.800053644E-1,2.219315662E0
1.848718292E0,1.125488295E0,1.609829101E0,-8.204672670E-1,2.128717964E0
1.858721292E0,1.758354226E0,6.440088236E-1,-2.670209380E0,3.261376256E0
1.868724292E0,1.830310208E0,-7.170493180E-1,-4.985704440E0,5.359239120E0
1.878726292E0,1.520357931E0,-2.633964245E0,-6.203687062E0,6.909051240E0
1.888729292E0,1.249119045E0,-4.687625665E0,-5.803605364E0,7.564123742E0
1.898732292E0,1.302282222E0,-6.569008232E0,-4.486655694E0,8.060886269E0
1.908734292E0,1.366870274E0,-8.193344859E0,-3.053488519E0,8.850029744E0
1.918737292E0,1.654801498E0,-9.357678693E0,-1.770784822E0,9.666446990E0
1.928740292E0,2.200053042E0,-9.709855907E0,-9.325466967E-1,9.999558913E0
1.938742292E0,2.632650668E0,-9.278669946E0,-1.032853927E0,9.700069728E0
1.948745292E0,2.843509158E0,-8.708978063E0,-2.161436130E0,9.412951152E0
1.958748292E0,2.456495987E0,-8.322898693E0,-4.190646248E0,9.636728240E0
1.968750292E0,1.547476732E0,-8.193924903E0,-6.949464920E0,1.085495980E1
1.978753292E0,5.756080949E-1,-8.544456126E0,-9.659240654E0,1.290891108E1
1.988755292E0,-3.378083394E-1,-9.010790870E0,-1.133159754E1,1.448149058E1
1.998758292E0,-1.492962848E0,-9.436920159E0,-1.210258801E1,1.541937212E1
2.008761292E0,-2.645335325E0,-9.682140689E0,-1.282243405E1,1.628362559E1
2.018763292E0,-2.970806843E0,-9.453224536E0,-1.318048713E1,1.648982682E1
2.028766292E0,-2.331148933E0,-9.009754744E0,-1.245044121E1,1.554424080E1
2.038769292E0,-1.548139953E0,-8.617322958E0,-1.103982382E1,1.409016331E1
2.048771292E0,-8.549476399E-1,-8.232465656E0,-9.764632623E0,1.280048735E1
2.058774292E0,-2.837107590E-1,-7.949017199E0,-8.911057252E0,1.194463510E1
2.068777292E0,1.020010500E-1,-7.745681444E0,-8.491430651E0,1.149392795E1
2.078779292E0,2.187115566E-1,-7.673577674E0,-8.481525468E0,1.143975102E1
2.088782292E0,1.035500413E-1,-7.792209494E0,-8.618888258E0,1.161957341E1
2.098785292E0,1.285743336E-2,-8.040275279E0,-8.615444248E0,1.178439949E1
2.108787292E0,-1.484760813E-1,-8.225515071E0,-8.440734122E0,1.178673559E1
2.118790292E0,-3.727454529E-1,-8.155478291E0,-8.300410302E0,1.164249013E1
2.128793292E0,-4.759979623E-1,-7.946338590E0,-8.173653191E0,1.140962215E1
2.138795292E0,-4.817926261E-1,-7.606041749E0,-7.862239257E0,1.094983111E1
2.148798292E0,-3.217820714E-1,-7.329852610E0,-7.449204222E0,1.045566481E1
2.158801292E0,-1.169644129E-1,-7.181601720E0,-7.171711155E0,1.015000122E1
2.168803292E0,1.579556421E-1,-7.176384834E0,-7.048392207E0,1.006008360E1
2.178806292E0,4.329429035E-1,-7.179451114E0,-6.952335902E0,1.000334606E1
2.188809292E0,5.683345972E-1,-7.010718597E0,-6.904723780E0,9.856388280E0
2.198811292E0,7.378127807E-1,-6.737472947E0,-6.795956213E0,9.598069090E0
2.208814292E0,1.032404495E0,-6.453531570E0,-6.643754944E0,9.319517612E0
2.218816292E0,1.300283644E0,-6.262776099E0,-6.306223251E0,8.982291117E0
2.228819292E0,1.454538894E0,-6.153971695E0,-6.132158073E0,8.808542084E0
2.238822292E0,1.422734134E0,-5.970127049E0,-5.911038596E0,8.520972168E0
2.248824292E0,1.107337807E0,-5.904269274E0,-5.456856705E0,8.115656337E0
2.258827292E0,1.116902316E0,-5.254529595E0,-5.329355829E0,7.567006383E0
2.268830292E0,9.536918364E-1,-3.736191292E0,-4.246056803E0,5.735647467E0
2.278832292E0,2.203598502E-1,-1.820072172E0,-2.632586056E0,3.208072711E0
2.288835292E0,-1.580211784E0,-2.471045029E-1,-1.998204088E0,2.559482271E0
2.298838292E0,-3.537501150E0,1.087782086E0,-1.973027732E0,4.194046100E0
2.308840292E0,-4.243607112E0,2.891546373E0,-1.643792653E0,5.391780414E0
2.318843292E0,-4.185884276E0,5.477868090E0,-6.158603275E-1,6.921556900E0
2.328846292E0,-3.604812543E0,8.426438849E0,1.872526374E0,9.354458839E0
2.338848292E0,-2.333252176E0,8.747837489E0,4.473483086E0,1.009855323E1
2.348851292E0,-1.561776098E0,6.551332099E0,8.222417800E0,1.062860533E1
2.358854292E0,-1.909625203E0,4.824755444E0,1.217091623E1,1.323087810E1
2.368856292E0,-1.926097248E0,3.844123877E0,1.423447114E1,1.486967746E1
2.378859292E0,-1.665321809E0,3.380998377E0,1.571246248E1,1.615815349E1
2.388862292E0,-1.870182956E0,2.868114534E0,1.700951408E1,1.735071280E1
2.398864292E0,-2.815861183E0,2.559744659E0,1.665427819E1,1.708351102E1
2.408867292E0,-3.727433918E0,2.985590066E0,1.599027539E1,1.668821197E1
2.418869292E0,-3.522250735E0,3.766905839E0,1.597276181E1,1.678466413E1
2.428872292E0,-2.287656173E0,4.364239849E0,1.589712925E1,1.664327728E1
2.438875292E0,-8.080222725E-1,4.732926091E0,1.538889160E1,1.612052959E1
2.448877292E0,7.700818098E-1,4.904498894E0,1.464797103E1,1.546642139E1
2.458880292E0,1.692492212E0,4.963783228E0,1.266864526E1,1.371124526E1
2.468883292E0,1.741125405E0,4.943306279E0,9.633321117E0,1.096670736E1
2.478885292E0,1.191771747E0,4.555499057E0,6.682616124E0,8.174977052E0
2.488888292E0,5.153950761E-1,4.044567306E0,4.118613229E0,5.795440597E0
2.498891292E0,4.250514282E-1,3.940540370E0,2.156810982E0,4.512245642E0
2.508893292E0,6.760608479E-1,4.122652778E0,8.610562992E-1,4.265529528E0
2.518896292E0,1.035347764E0,4.108602796E0,3.736838579E-1,4.253492865E0
2.528899292E0,1.272696480E0,3.774527977E0,3.842193711E-1,4.001804881E0
2.538901292E0,1.255381121E0,3.214514991E0,2.588930744E-1,3.460652252E0
2.548904292E0,1.104971877E0,2.524825965E0,9.264153063E-2,2.757587977E0
2.558907292E0,8.634969270E-1,1.962713828E0,-3.579273659E-1,2.173932960E0
2.568909292E0,6.069205195E-1,1.647842727E0,-1.424455993E0,2.261153034E0
2.578912292E0,4.321701939E-1,1.321555230E0,-2.365829646E0,2.744162753E0
2.588915292E0,3.014408873E-1,5.023079842E-1,-2.756881489E0,2.818434931E0
2.598917292E0,-1.916494366E-1,-3.847137532E-1,-2.571375648E0,2.607049463E0
2.608920292E0,-9.672638087E-1,-9.911761433E-1,-1.752975372E0,2.234043884E0
2.618923292E0,-9.082582399E-1,-1.065377018E0,-9.795448619E-1,1.708645474E0
2.628925292E0,-8.858815303E-1,-1.345611844E0,-5.513988680E-1,1.702791248E0
2.638928292E0,-8.077171209E-1,-1.517077643E0,-7.423098743E-1,1.872152630E0
2.648931292E0,-8.857933836E-1,-1.618299085E0,-7.022552776E-1,1.974002108E0
2.658933292E0,-9.781578293E-1,-1.804235280E0,-9.548520702E-1,2.263581269E0
2.668936292E0,-9.695781367E-1,-1.755375069E0,-9.691806722E-1,2.227270655E0
2.678939292E0,-8.783327018E-1,-1.409694697E0,-9.340377367E-1,1.905553454E0
2.688941292E0,-6.822990230E-1,-1.195671401E0,-9.902943832E-1,1.695831661E0
2.698944292E0,-9.075499959E-3,-1.069055501E0,-3.515527314E-1,1.125411637E0
2.708946292E0,4.159758916E-1,-6.767339355E-1,1.465364867E0,1.666823013E0
2.718949292E0,4.404289475E-1,-2.941210869E-1,2.485182427E0,2.540987321E0
2.728952292E0,3.114892177E-1,-2.663234237E-1,1.724502940E0,1.772530420E0
2.738954292E0,-3.576860221E-1,-4.117012846E-1,-7.363164783E-2,5.503261376E-1
2.748957292E0,-1.330535968E0,-1.939787480E-1,-1.871401954E0,2.304365204E0
2.758960292E0,-1.729389458E0,5.711124632E-1,-2.698828577E0,3.255861335E0
2.768962292E0,-1.274697690E0,1.675459419E0,-1.957150787E0,2.874449107E0
2.778965292E0,-9.330312847E-1,2.690238433E0,-9.182198489E-1,2.991831863E0
2.788968292E0,-9.225602371E-1,3.104999273E0,3.874832869E-1,3.262250937E0
2.798970292E0,-1.291650669E0,2.833749863E0,1.880565126E0,3.637997379E0
2.808973292E0,-1.576675681E0,2.295096463E0,3.138667833E0,4.195784759E0
2.818976292E0,-1.871494925E0,2.481462429E0,4.107114095E0,5.150585911E0
2.828978917E0,-1.918396026E0,3.033999165E0,5.145401840E0,6.273799035E0
2.838981917E0,-1.548309229E0,3.757446214E0,7.241019956E0,8.303495259E0
2.848984917E0,-8.559471484E-1,4.728121434E0,9.783688114E0,1.089992344E1
2.858986917E0,1.524388124E-1,5.332129163E0,1.285690455E1,1.391958454E1
2.868989917E0,1.235504681E0,5.528186889E0,1.562567343E1,1.662073982E1
2.878992917E0,2.451042874E0,5.702135707E0,1.677752580E1,1.788874883E1
2.888994917E0,2.674480187E0,5.781580657E0,1.646413960E1,1.765353823E1
2.898997917E0,1.569730065E0,5.918668628E0,1.478951692E1,1.600701413E1
2.909000917E0,-5.308160841E-1,6.797798671E0,1.243041449E1,1.417769505E1
2.919002917E0,-2.454835086E0,7.359354737E0,1.095936379E1,1.342735909E1
2.929005917E0,-3.521062873E0,6.438760918E0,1.148520156E1,1.362957742E1
2.939008917E0,-3.276467410E0,5.032099757E0,1.288521093E1,1.421569299E1
2.949010917E0,-1.896580942E0,4.650127471E0,1.301305328E1,1.394848595E1
2.959013917E0,4.636637360E-2,5.562759721E0,1.176426226E1,1.301323604E1
2.969015917E0,1.773912497E0,6.809801835E0,1.035264968E1,1.251788808E1
2.979018917E0,2.155796783E0,7.314589038E0,9.630865871E0,1.228430910E1
2.989021917E0,9.846290159E-1,6.069717411E0,8.696205990E0,1.065058507E1
2.999023917E0,-5.060686210E-1,4.217941636E0,7.677990568E0,8.774888959E0
3.009026917E0,-1.456568901E0,2.758963097E0,6.844793912E0,7.522278514E0
3.019029917E0,-1.797369772E0,1.226161122E0,6.180219846E0,6.552032245E0
3.029031917E0,-1.918351003E0,-1.771489996E-1,5.553958492E0,5.878597389E0
3.039034917E0,-1.422254516E0,-1.161496180E0,3.752895618E0,4.178050599E0
3.049037917E0,-2.865147364E-1,-2.075596080E0,1.275996941E0,2.453234187E0
3.059039917E0,1.048114575E0,-3.300080806E0,-8.751276237E-1,3.571403904E0
3.069042917E0,2.714164362E0,-4.982218915E0,-2.322254441E0,6.130420800E0
3.079045917E0,4.468944185E0,-7.427787040E0,-3.217454386E0,9.246377408E0
3.089047917E0,6.080259941E0,-1.029498210E1,-3.432015041E0,1.243925016E1
3.099050917E0,7.321976411E0,-1.237657450E1,-3.780673985E0,1.486890819E1
3.109053917E0,7.769395412E0,-1.330170927E1,-5.020746803E0,1.620206385E1
3.119055917E0,7.427778854E0,-1.341181468E1,-6.598665894E0,1.669104740E1
3.129058917E0,6.287030350E0,-1.322987505E1,-7.932724518E0,1.665786489E1
3.139061917E0,5.029957337E0,-1.291973289E1,-9.234642751E0,1.665828909E1
3.149063917E0,4.234125559E0,-1.225548802E1,-1.020819305E1,1.650248500E1
3.159066917E0,3.441812636E0,-1.237218441E1,-1.182724964E1,1.745854677E1
3.169068917E0,2.154124187E0,-1.284092061E1,-1.378096343E1,1.895902018E1
3.179071917E0,2.108263305E0,-1.288501797E1,-1.440306040E1,1.944007745E1
3.189074917E0,2.626683292E0,-1.271587907E1,-1.355065798E1,1.876734870E1
3.199076917E0,3.301006420E0,-1.268160971E1,-1.148489750E1,1.742477371E1
3.209079917E0,3.901414896E0,-1.274647170E1,-9.109955555E0,1.614573842E1
3.219082917E0,4.319153430E0,-1.270594816E1,-6.920040561E0,1.509911144E1
3.229084917E0,4.410456826E0,-1.230942624E1,-5.413141167E0,1.415189744E1
3.239087917E0,4.211197750E0,-1.176484114E1,-4.743595213E0,1.336590322E1
3.249090917E0,4.066851630E0,-1.123607041E1,-4.812415480E0,1.288207682E1
3.259092917E0,3.978262804E0,-1.067478916E1,-5.266368452E0,1.255039184E1
3.269095917E0,3.775233151E0,-1.002256266E1,-5.554181271E0,1.206453800E1
3.279098917E0,3.574570743E0,-9.374721572E0,-5.955196184E0,1.166736140E1
3.289100917E0,3.443256021E0,-8.961139823E0,-6.325127299E0,1.149631568E1
3.299103917E0,3.412771270E0,-8.887134538E0,-6.394034981E0,1.146786167E1
3.309106917E0,3.598054916E0,-8.986134331E0,-6.200455306E0,1.149531450E1
3.319108917E0,3.743554983E0,-9.006834059E0,-5.682031226E0,1.128816825E1
3.329111917E0,3.757101813E0,-8.962062514E0,-5.150118788E0,1.099809538E1
3.339113917E0,3.874676456E0,-9.002446309E0,-5.116900172E0,1.105621203E1
3.349116917E0,4.057091750E0,-9.042755844E0,-5.529697809E0,1.134940459E1
3.359119917E0,4.101613035E0,-8.956336920E0,-5.977168266E0,1.152240170E1
3.369121917E0,4.052661315E0,-8.942003641E0,-6.505702767E0,1.177742168E1
3.379124917E0,3.970955539E0,-9.071869715E0,-7.391985124E0,1.235753827E1
3.389127917E0,3.759673126E0,-9.137874840E0,-8.422028879E0,1.298331503E1
3.399129917E0,3.503326514E0,-9.162170021E0,-8.929215195E0,1.326459725E1
3.409132917E0,3.171148531E0,-9.379501671E0,-9.113449266E0,1.345682697E1
3.419135917E0,3.051079466E0,-9.770296236E0,-9.134137884E0,1.371860960E1
3.429137917E0,3.273401715E0,-1.045248972E1,-8.378200489E0,1.378999433E1
3.439140917E0,3.503411591E0,-1.139843122E1,-7.193392045E0,1.392634252E1
3.449143917E0,3.452676178E0,-1.174233520E1,-5.503156713E0,1.341969234E1
3.459145917E0,2.620299886E0,-1.099099840E1,-4.003188023E0,1.198722368E1
3.469148917E0,7.788883743E-1,-8.282594420E0,-4.324617069E0,9.376051953E0
3.479150917E0,-1.622731567E0,-3.091491328E0,-6.331252842E0,7.230168665E0
3.489153917E0,-4.291623862E0,2.539016572E0,-9.839515575E0,1.103089785E1
3.499156917E0,-6.958295969E0,4.520271336E0,-1.305470417E1,1.546854992E1
3.509158917E0,-7.978069675E0,5.608473837E0,-1.068239990E1,1.446437839E1
3.519161917E0,-7.304814833E0,6.292391077E0,-4.810229498E-1,9.653283809E0
3.529164917E0,-1.657329396E0,2.364629797E0,9.289034720E0,9.727506404E0
3.539166917E0,6.864546391E0,-4.234614971E-1,2.333634994E1,2.432871853E1
3.549169917E0,1.275947123E1,1.389246984E0,3.707219859E1,3.923113587E1
3.559172917E0,1.380229641E1,4.185087301E0,3.916541058E1,4.173664730E1
3.569174917E0,1.362999651E1,7.106602993E0,3.410837362E1,3.741205370E1
3.579177917E0,1.092027165E1,8.635155212E0,2.889073937E1,3.207012721E1
3.589180917E0,7.344067776E0,7.544507990E0,2.346257963E1,2.571667893E1
3.599182917E0,5.642732674E0,6.080804316E0,2.250321058E1,2.398355895E1
3.609185917E0,5.107255774E0,5.797945259E0,2.310971653E1,2.436717524E1
3.619187917E0,5.139580352E0,5.108159169E0,2.077602494E1,2.200344947E1
3.629190917E0,5.882680185E0,4.447738673E0,1.710532539E1,1.862741158E1
3.639193917E0,7.254173852E0,4.813892486E0,1.376544609E1,1.628754448E1
3.649195917E0,7.977351052E0,5.095619230E0,1.054503243E1,1.417043309E1
3.659198917E0,7.004609426E0,4.664630028E0,6.650535375E0,1.072627369E1
3.669201917E0,4.698358814E0,3.814364180E0,2.760980387E0,6.651839020E0
3.679203917E0,2.215166779E0,2.831092595E0,2.067458510E-2,3.594784636E0
3.689206917E0,2.000279850E-1,1.888685154E0,-1.862208962E0,2.659880641E0
3.699209917E0,-1.331646208E0,1.234883414E0,-3.177273490E0,3.659683798E0
3.709211917E0,-2.153937660E0,9.939866075E-1,-4.068621290E0,4.709685342E0
3.719214917E0,-2.189022709E0,9.839396292E-1,-4.635778989E0,5.220191993E0
3.729217917E0,-1.951590962E0,8.280692321E-1,-5.008465896E0,5.438670478E0
3.739219917E0,-1.660530162E0,5.047772634E-1,-4.850196387E0,5.151365401E0
3.749222917E0,-1.304627540E0,2.001946306E-1,-4.230139512E0,4.431276476E0
3.759224917E0,-9.262805280E-1,1.517352462E-4,-3.174061030E0,3.306457176E0
3.769227917E0,-9.060061848E-1,-2.659676206E-1,-1.740821350E0,1.980415349E0
3.779230917E0,-1.121900882E0,-7.510345048E-1,-4.655482936E-1,1.428093005E0
3.789232917E0,-1.324002143E0,-1.241799793E0,-1.560680330E-2,1.815293908E0
3.799235917E0,-1.363539700E0,-1.522647700E0,-1.479129213E-1,2.049286404E0
3.809238917E0,-1.078615260E0,-1.449630887E0,-8.890048206E-2,1.809072659E0
3.819240917E0,-6.146958545E-1,-1.119326353E0,2.917468250E-2,1.277338498E0
3.829244042E0,-2.611695416E-1,-7.270936650E-1,-3.335029614E-1,8.414861570E-1
3.839247042E0,1.321017578E-2,-4.812854898E-1,-7.009232819E-2,4.865420495E-1
3.849249042E0,4.715810122E-1,-5.327129209E-1,6.147008246E-1,9.402280632E-1
3.859252042E0,1.117540905E0,-6.399163574E-1,1.521502815E0,1.993329235E0
3.869254042E0,1.483987226E0,-6.841961521E-1,2.189629650E0,2.732182363E0
3.879257042E0,1.369830135E0,-6.912224588E-1,2.420720968E0,2.866027405E0
3.889260042E0,9.341837709E-1,-7.052812117E-1,2.061187372E0,2.370361636E0
3.899262042E0,4.130838588E-1,-8.140908784E-1,1.627347944E0,1.865916280E0
3.909265042E0,1.576907815E-1,-7.831824964E-1,1.243134420E0,1.477709170E0
3.919268042E0,2.125572525E-1,-2.840103740E-1,1.047915185E0,1.106331195E0
3.929270042E0,3.059272000E-1,2.227181053E-1,1.132023289E0,1.193596051E0
3.939273042E0,8.294259323E-1,4.603483647E-1,1.974836276E0,2.190855155E0
3.949276042E0,1.404863873E0,6.119321680E-1,3.702020164E0,4.006626608E0
3.959278042E0,1.341512654E0,8.006203553E-1,4.527598482E0,4.789550832E0
3.969281042E0,5.634439860E-1,8.182692987E-1,4.027556294E0,4.148281991E0
3.979283042E0,-6.084815068E-1,1.021669373E0,2.591102400E0,2.850941897E0
3.989286042E0,-1.774346068E0,1.999976672E0,3.600013733E-1,2.697741953E0
3.999289042E0,-2.105608377E0,3.910626892E0,-4.312473571E-1,4.462349561E0
4.009291042E0,-4.995635936E-1,5.807854536E0,1.812424014E0,6.104557224E0
4.019294042E0,1.931200259E0,7.100745252E0,5.886342296E0,9.423329730E0
4.029297042E0,3.644430937E0,7.461541262E0,8.881027706E0,1.215850024E1
4.039299042E0,3.946882260E0,7.051697638E0,8.862069279E0,1.199335612E1
4.049302042E0,2.824820872E0,6.716953897E0,6.072970802E0,9.485676411E0
4.059305042E0,1.475971132E0,7.202731803E0,4.008432975E0,8.374089272E0
4.069307042E0,5.596297742E-1,8.058135599E0,4.456688713E0,9.225443572E0
4.079310042E0,2.420715120E-1,7.589890569E0,7.663009416E0,1.078826913E1
4.089312042E0,2.901129667E-1,6.008283055E0,1.203493338E1,1.345448819E1
4.099315042E0,6.269885290E-1,4.703453201E0,1.530314336E1,1.602191572E1
4.109318042E0,6.788675845E-1,3.697325727E0,1.698896112E1,1.739988157E1
4.119320042E0,6.085168093E-1,2.684403496E0,1.702029752E1,1.724142808E1
4.129323042E0,6.884054165E-1,2.251809818E0,1.629344651E1,1.646271389E1
4.139326042E0,7.076495533E-1,2.458769677E0,1.604586137E1,1.624856865E1
4.149328042E0,6.185006377E-1,2.188064058E0,1.648985214E1,1.664588211E1
4.159331042E0,5.835652784E-1,1.261115777E0,1.676624301E1,1.682372926E1
4.169333042E0,4.751563287E-1,1.432947904E-1,1.657993084E1,1.658735704E1
4.179336042E0,5.713935681E-1,-1.622126380E0,1.656330370E1,1.665235161E1
4.189339042E0,3.412599873E-1,-4.004682571E0,1.638711189E1,1.687279991E1
4.199341042E0,3.172968916E-1,-6.091610556E0,1.494323437E1,1.614028035E1
4.209344042E0,1.863102124E0,-7.366854960E0,1.120641801E1,1.353977497E1
4.219347042E0,3.421742068E0,-7.765675998E0,6.028641890E0,1.040954204E1
4.229349042E0,4.355143920E0,-7.731716539E0,1.058323814E0,8.936820939E0
4.239352042E0,4.670876023E0,-7.971620781E0,-2.888388877E0,9.680217508E0
4.249355042E0,4.235644958E0,-8.293590694E0,-5.707442640E0,1.092241898E1
4.259357042E0,3.231507000E0,-8.888551319E0,-7.534573570E0,1.209209580E1
4.269360042E0,2.729639311E0,-9.688277927E0,-8.850043895E0,1.340287047E1
4.279362042E0,2.706323246E0,-1.069724949E1,-9.495430323E0,1.455742179E1
4.289365042E0,2.255859453E0,-1.185777444E1,-9.017118142E0,1.506665644E1
4.299368042E0,1.840045968E0,-1.288994483E1,-8.195783148E0,1.538529520E1
4.309370042E0,2.030697504E0,-1.348901546E1,-7.662894226E0,1.564599688E1
4.319373042E0,2.202607691E0,-1.380293025E1,-7.592698402E0,1.590664745E1
4.329376042E0,1.906793689E0,-1.367133866E1,-8.377308204E0,1.614684662E1
4.339378042E0,9.330206135E-1,-1.322263503E1,-9.330632982E0,1.621016090E1
4.349381042E0,3.349811375E-2,-1.274773470E1,-1.070335632E1,1.664535066E1
4.359383042E0,-6.386890999E-1,-1.243897014E1,-1.221553516E1,1.744577889E1
4.369386042E0,-1.160259932E0,-1.234684024E1,-1.316622343E1,1.808701486E1
4.379389042E0,-1.479928674E0,-1.273910421E1,-1.389423686E1,1.890832576E1
4.389391042E0,-1.704919299E0,-1.350336804E1,-1.326008995E1,1.900204420E1
4.399394042E0,-2.142601956E0,-1.392571126E1,-1.192929525E1,1.846142633E1
4.409397042E0,-2.713961464E0,-1.371880636E1,-1.006626007E1,1.723081039E1
4.419399042E0,-2.876421381E0,-1.302836948E1,-8.934582939E0,1.605736540E1
4.429402042E0,-2.018524771E0,-1.230124248E1,-8.941149362E0,1.534076793E1
4.439404042E0,-1.437794661E0,-1.166576358E1,-8.903626610E0,1.474557086E1
4.449407042E0,-1.175234798E0,-1.116275802E1,-8.076295297E0,1.382804719E1
4.459410042E0,-8.165157187E-1,-1.079707549E1,-6.757698466E0,1.276362118E1
4.469412042E0,-4.056016155E-1,-1.046643065E1,-5.759656522E0,1.195342321E1
4.479415042E0,1.718847513E-1,-9.930631567E0,-5.184296349E0,1.120374564E1
4.489418042E0,7.140350783E-1,-9.349264550E0,-4.634970903E0,1.045951954E1
4.499420042E0,1.015510281E0,-8.866961060E0,-3.966366937E0,9.766592356E0
4.509423042E0,1.042933430E0,-8.454765685E0,-3.374538665E0,9.162875320E0
4.519425042E0,9.337262993E-1,-8.257503433E0,-2.934454996E0,8.813015028E0
4.529428042E0,7.591038816E-1,-8.399739878E0,-2.720097824E0,8.861760598E0
4.539431042E0,5.356563362E-1,-8.454286214E0,-2.966287238E0,8.975563663E0
4.549433042E0,5.426372173E-1,-8.033463857E0,-3.452617705E0,8.760797094E0
4.559436042E0,7.399888951E-1,-7.468250942E0,-3.730018387E0,8.380655873E0
4.569439042E0,9.392645627E-1,-6.974899138E0,-3.609301450E0,7.909392699E0
4.579441042E0,1.318450943E0,-6.307299723E0,-3.434210086E0,7.301653347E0
4.589444042E0,1.788042001E0,-5.821834643E0,-3.482777059E0,7.015738654E0
4.599446042E0,1.950223445E0,-5.605139170E0,-3.486388299E0,6.883012420E0
4.609449042E0,1.852703143E0,-5.577988794E0,-3.233283969E0,6.708248143E0
4.619452042E0,2.028834143E0,-5.272281741E0,-3.167218618E0,6.476449375E0
4.629454042E0,2.311278925E0,-4.764504272E0,-3.173521332E0,6.173633360E0
4.639457042E0,2.571255780E0,-4.206568801E0,-2.981044441E0,5.761354296E0
4.649460042E0,2.435136985E0,-2.539735195E0,-2.091580614E0,4.093269654E0
4.659462042E0,1.495398798E0,5.606047243E-1,-2.080710640E0,2.622947195E0
4.669465042E0,-2.087102962E-1,2.813132873E0,-1.213643403E0,3.070864187E0
4.679468042E0,-1.911031751E0,3.771806683E0,7.844741464E-2,4.229033223E0
4.689470042E0,-3.680428736E0,6.045557885E0,-6.695465380E-1,7.109333189E0
4.699473042E0,-5.252421089E0,1.029701693E1,-2.496495035E0,1.182577576E1
4.709475042E0,-5.888275385E0,1.557576160E1,-3.548640096E0,1.702553914E1
4.719478042E0,-6.897711214E0,1.861473733E1,-3.323670813E0,2.012793217E1
4.729481042E0,-6.581196753E0,1.513338933E1,2.862499160E0,1.674889622E1
4.739483042E0,-3.977802921E0,1.021269189E1,1.240662451E1,1.655434455E1
4.749486042E0,-1.595375369E0,6.728269429E0,1.699363421E1,1.834661919E1
4.759488042E0,8.825284811E-2,3.628004354E0,1.663838896E1,1.702956815E1
4.769491042E0,1.266274045E0,2.371864557E0,1.574985894E1,1.597771097E1
4.779494042E0,1.461431592E0,1.323127838E0,1.394083566E1,1.407953652E1
4.789496042E0,1.004591703E0,-2.776339853E-1,1.566908550E1,1.570371057E1
4.799499042E0,4.409600940E-1,-2.180926946E0,1.884984568E1,1.898071575E1
4.809502042E0,3.417609110E-1,-3.287605479E0,1.809831826E1,1.839767035E1
4.819504042E0,1.701675556E0,-2.847660389E0,1.500311804E1,1.536549447E1
4.829507083E0,3.866444453E0,-1.138410788E0,1.108554788E1,1.179553914E1
4.839509083E0,5.799017054E0,1.068287469E0,7.392564583E0,9.456206852E0
4.849512083E0,5.528849963E0,2.523684296E0,5.153028948E0,7.968115943E0
4.859515083E0,3.945626278E0,2.510107061E0,4.147986717E0,6.250951767E0
4.869517083E0,2.426506349E0,1.687764007E0,3.179941574E0,4.341486937E0
4.879520083E0,1.198229266E0,1.145179232E0,1.813012244E0,2.456461325E0
4.889523083E0,3.145981823E-1,1.022954299E0,7.726095611E-1,1.319974639E0
4.899525083E0,-3.769954285E-1,8.695523036E-1,1.850860101E-1,9.656622561E-1
4.909528083E0,-8.667095335E-1,4.249580920E-1,2.590111881E-1,9.994306334E-1
4.919530083E0,-4.025587244E-1,3.028223285E-1,6.910824180E-1,8.551899191E-1
4.929533083E0,7.381335005E-1,9.601361990E-1,1.118276485E0,1.648406771E0
4.939536083E0,1.460888970E0,1.708601437E0,1.246039901E0,2.570239462E0
4.949538083E0,1.610619060E0,1.881260360E0,1.166651085E0,2.737573570E0
4.959541083E0,1.138252036E0,1.299791601E0,7.066623241E-1,1.866667496E0
4.969544083E0,3.310273234E-1,5.174367777E-1,1.512008107E-1,6.325990775E-1
4.979546083E0,-4.936285966E-1,-8.054217964E-2,-1.325534552E-1,5.174230886E-1
4.989549083E0,-9.950225148E-1,-3.210118470E-1,2.069855869E-2,1.045727900E0
4.999551083E0,-1.059161500E0,-2.457618360E-1,-6.178460419E-2,1.089054315E0
5.009554083E0,-7.289654318E-1,1.034246734E-1,-4.833957499E-1,8.807716588E-1
5.019557083E0,-3.479583018E-2,6.330831550E-1,-7.163768882E-1,9.566613177E-1
5.029559083E0,6.214775283E-1,1.096491368E0,-9.542118001E-1,1.580837688E0
5.039562083E0,8.575830531E-1,1.212811490E0,-1.139034101E0,1.871833082E0
5.049565083E0,7.697435483E-1,1.031464629E0,-1.215133858E0,1.770021103E0
5.059567083E0,5.674725349E-1,8.217967777E-1,-1.311614086E0,1.648546794E0
5.069570083E0,6.323694292E-2,4.867643309E-1,-1.370245287E0,1.455510416E0
5.079572083E0,-5.074479061E-1,-7.349219173E-2,-1.161800235E0,1.269915062E0
5.089575083E0,-8.936684136E-1,-5.449894425E-1,-7.711214447E-1,1.300109614E0
5.099578083E0,-9.517759962E-1,-7.454451513E-1,-7.603602290E-1,1.428185457E0
5.109580083E0,-7.529779000E-1,-6.006129818E-1,-1.006143846E0,1.392852150E0
5.119583083E0,-2.528888062E-1,-1.322200178E-1,-1.063925446E0,1.101531768E0
5.129586083E0,3.428590912E-1,1.072912909E-1,-9.041590494E-1,9.729169359E-1
5.139588083E0,5.822742862E-1,-3.542409888E-1,-2.288682067E-1,7.189650051E-1
5.149591083E0,2.003494174E-1,-1.608820456E-1,5.650410068E-1,6.207207593E-1
5.159593083E0,8.578964639E-1,-6.432771908E-1,1.372980614E0,1.742087155E0
5.169596083E0,1.247762637E0,-1.300975954E0,2.999294770E0,3.499316955E0
5.179599083E0,1.351627167E0,-1.013594076E0,4.651787496E0,4.949080304E0
5.189601083E0,1.305030706E0,-3.620572543E-1,5.063304593E0,5.241301747E0
5.199604083E0,6.683070745E-1,2.170047909E-2,4.470765300E0,4.520491967E0
5.209606083E0,-3.093400371E-1,8.376691908E-1,4.355667538E0,4.446259173E0
5.219609083E0,-7.682023685E-1,2.705234495E0,5.906237447E0,6.541564746E0
5.229612083E0,3.183618888E-2,5.249316217E0,7.800765139E0,9.402567259E0
5.239614083E0,1.864009612E0,8.035626158E0,1.146567536E1,1.412471349E1
5.249617083E0,3.258920501E0,9.490761321E0,1.662102741E1,1.941529463E1
5.259620083E0,2.585467146E0,9.539922956E0,2.172580689E1,2.386850342E1
5.269622083E0,2.553264921E-1,9.561284004E0,2.602164630E1,2.772380601E1
5.279625083E0,-1.177705831E0,8.302005422E0,2.696590848E1,2.823952027E1
5.289627083E0,-6.149961821E-1,5.979182632E0,2.489470541E1,2.561006058E1
5.299630083E0,3.908310371E-1,5.642016975E0,2.349201919E1,2.416319660E1
5.309633083E0,1.920769411E0,4.881101553E0,2.175660534E1,2.237999963E1
5.319635083E0,2.967440309E0,3.021243756E0,1.747685513E1,1.798260496E1
5.329638083E0,2.250129036E0,1.918035253E0,1.140985200E1,1.178671551E1
5.339641083E0,1.227482447E0,9.841793650E-1,6.763787171E0,6.944360235E0
5.349643083E0,1.785700922E-1,-1.298087722E-1,4.020030928E0,4.026088207E0
5.359646083E0,-1.140125922E0,-1.299279969E0,2.445633030E0,2.994851661E0
5.369648083E0,-2.245430213E0,-2.743900085E0,1.045414916E0,3.696462750E0
5.379651083E0,-2.564701052E0,-3.782567314E0,-1.963074017E-1,4.574280661E0
5.389654083E0,-2.013257014E0,-4.164278229E0,-1.053941910E0,4.743965696E0
5.399656083E0,-1.210533708E0,-4.286762779E0,-2.327031031E0,5.025614431E0
5.409659083E0,-8.833362374E-1,-4.739761779E0,-4.139414114E0,6.354555361E0
5.419661083E0,-1.319980282E0,-5.208686255E0,-6.368503114E0,8.332502167E0
5.429664083E0,-1.839066852E0,-5.054139082E0,-8.499448938E0,1.005818676E1
5.439667083E0,-9.990894726E-1,-4.375309505E0,-9.234442191E0,1.026725064E1
5.449669083E0,1.411043065E0,-3.554492574E0,-8.663060464E0,9.469639729E0
5.459672083E0,3.354152056E0,-2.918780365E0,-7.488888105E0,8.709366216E0
5.469675083E0,4.856587393E0,-3.456908977E0,-5.843666393E0,8.347760040E0
5.479677083E0,6.283483429E0,-4.855331996E0,-3.936004685E0,8.862761741E0
5.489680083E0,7.173554782E0,-6.158892127E0,-2.367223037E0,9.746567875E0
5.499682083E0,7.505056826E0,-7.125609367E0,-1.828910823E0,1.050928645E1
5.509685083E0,7.155445955E0,-8.085188327E0,-2.424164978E0,1.106558868E1
5.519688083E0,6.417268893E0,-8.912513793E0,-3.700617417E0,1.158916785E1
5.529690083E0,5.605303477E0,-9.436929515E0,-5.119379391E0,1.211128032E1
5.539693083E0,4.521487557E0,-9.538154758E0,-7.045472108E0,1.269089923E1
5.549695083E0,3.196939138E0,-9.367097973E0,-9.263911573E0,1.355665895E1
5.559698083E0,2.118088089E0,-9.136156928E0,-1.041403375E1,1.401455527E1
5.569701083E0,1.530717150E0,-9.163044180E0,-1.050884518E1,1.402641439E1
5.579703083E0,1.497750548E0,-9.389400423E0,-1.002641715E1,1.381785576E1
5.589706083E0,1.794976214E0,-9.699884065E0,-9.097945958E0,1.341947507E1
5.599708083E0,2.139742667E0,-1.003363963E1,-7.897661104E0,1.294702567E1
5.609711083E0,2.351206052E0,-1.041852207E1,-7.166936903E0,1.286229982E1
5.619714083E0,2.423310115E0,-1.066396713E1,-6.926525708E0,1.294485942E1
5.629716083E0,2.604446331E0,-1.069849377E1,-6.794034233E0,1.293830788E1
5.639719083E0,3.015707905E0,-1.048182286E1,-6.911342828E0,1.291238802E1
5.649722083E0,3.307005664E0,-9.862522030E0,-7.268070345E0,1.268977832E1
5.659724083E0,3.297363020E0,-9.165961940E0,-7.232828591E0,1.213265307E1
5.669727083E0,3.261805517E0,-8.746524205E0,-7.054923547E0,1.170098317E1
5.679729083E0,3.343547545E0,-8.525288368E0,-6.908143816E0,1.147093296E1
5.689732083E0,3.220685558E0,-8.454924729E0,-6.570484069E0,1.118167378E1
5.699735083E0,2.872813941E0,-8.621842856E0,-5.961667297E0,1.086879529E1
5.709737083E0,2.715484956E0,-8.991051840E0,-5.517955431E0,1.089314940E1
5.719740083E0,2.891292897E0,-9.194977579E0,-5.689023911E0,1.119250554E1
5.729742083E0,3.026618517E0,-8.866872767E0,-6.134744296E0,1.119897048E1
5.739745083E0,2.768677954E0,-8.271077744E0,-6.865903530E0,1.110031243E1
5.749748083E0,2.458418259E0,-7.881184820E0,-7.460573548E0,1.112731109E1
5.759750083E0,2.299201208E0,-7.794988090E0,-7.636889904E0,1.115214118E1
5.769753083E0,2.407859432E0,-7.760704696E0,-7.221438215E0,1.087085527E1
5.779756083E0,2.610679755E0,-7.656009130E0,-6.310354308E0,1.025917619E1
5.789758083E0,2.872978540E0,-7.681167360E0,-5.338669859E0,9.785485862E0
5.799761083E0,2.923921237E0,-7.742613995E0,-4.558187606E0,9.448516346E0
5.809763083E0,3.111215156E0,-7.561621621E0,-4.106587261E0,9.149963946E0
5.819766083E0,3.598768276E0,-7.120446276E0,-3.818853380E0,8.845085043E0
5.829769417E0,3.981920530E0,-6.774876416E0,-4.001767150E0,8.818661002E0
5.839771417E0,3.488641232E0,-6.827079188E0,-4.406861665E0,8.843079645E0
5.849774417E0,2.176300775E0,-6.875261414E0,-4.204485438E0,8.347646517E0
5.859776417E0,4.046387252E-1,-6.768247427E0,-3.573404224E0,7.664341034E0
5.869779417E0,-1.459778145E0,-6.230215294E0,-3.402485433E0,7.247305842E0
5.879782417E0,-3.911510406E0,-4.640763740E0,-4.349754249E0,7.467058576E0
5.889784417E0,-6.314425725E0,-2.290951372E0,-6.074446054E0,9.056452136E0
5.899787417E0,-7.972361623E0,4.204229915E-1,-8.161796207E0,1.141710220E1
5.909789417E0,-7.357131625E0,3.980774476E0,-8.220358411E0,1.172809633E1
5.919792417E0,-5.578539017E0,7.451581700E0,-3.996140959E0,1.012992152E1
5.929795417E0,-4.383852579E0,9.466250963E0,2.597388157E0,1.075055794E1
5.939797417E0,-2.860114666E0,8.960479088E0,8.415989290E0,1.262138333E1
5.949800417E0,-7.834862593E-1,6.911098414E0,1.320856312E1,1.492793595E1
5.959803417E0,6.142918850E-1,6.091574888E0,1.817134647E1,1.917504816E1
5.969805417E0,2.000127676E0,6.356804590E0,2.183170932E1,2.282614744E1
5.979808417E0,3.210180742E0,6.930123500E0,2.314588741E1,2.437342767E1
5.989810417E0,3.629976912E0,7.415096244E0,2.259961012E1,2.406039821E1
5.999813417E0,3.160554546E0,7.442627274E0,2.086254970E1,2.237471309E1
6.009816417E0,2.318338853E0,6.977655516E0,1.822424273E1,1.965160030E1
6.019818417E0,1.464278162E0,6.139028551E0,1.529685760E1,1.654767762E1
6.029821417E0,7.427541896E-1,5.135720605E0,1.278150003E1,1.379471105E1
6.039823417E0,5.690390405E-1,4.388321314E0,1.091573421E1,1.177855775E1
6.049826417E0,8.044447267E-1,4.191615132E0,9.175753103E0,1.011984257E1
6.059829417E0,9.137969419E-1,4.080292332E0,7.312650687E0,8.423696957E0
6.069831417E0,1.117790435E0,3.856736321E0,5.934103523E0,7.165016059E0
6.079834417E0,1.456190878E0,3.831355897E0,4.870897284E0,6.365957920E0
6.089836417E0,1.828102884E0,4.017979140E0,3.604204432E0,5.698807429E0
6.099839417E0,2.051823640E0,4.307399942E0,2.316493764E0,5.303755073E0
6.109842417E0,2.170997935E0,4.609711516E0,1.157185028E0,5.225107605E0
6.119844417E0,2.045696636E0,4.744750623E0,1.597973871E-1,5.169435985E0
6.129847417E0,1.764330226E0,4.475695380E0,-3.699545038E-1,4.825098612E0
6.139849417E0,1.576472782E0,3.784197518E0,-1.358284807E-1,4.101690708E0
6.149852417E0,1.395689300E0,3.098382272E0,2.677732408E-1,3.408756933E0
6.159855417E0,1.330315528E0,2.656721316E0,4.947457802E-1,3.012089132E0
6.169857417E0,1.342494694E0,2.238871391E0,6.624345696E-1,2.693261344E0
6.179860417E0,1.378584001E0,1.865262963E0,7.502164793E-1,2.437729381E0
6.189863417E0,1.258928042E0,1.493221880E0,7.229994446E-1,2.082628050E0
6.199865417E0,9.873794000E-1,1.247306116E0,4.380792439E-1,1.650031530E0
6.209868417E0,7.290902699E-1,1.024913701E0,2.206131077E-1,1.276985066E0
6.219870417E0,5.729011264E-1,8.610560068E-1,1.019748563E-1,1.039245890E0
6.229873417E0,6.400452885E-1,6.285748056E-1,8.954367578E-2,9.015444123E-1
6.239876417E0,8.576691534E-1,3.167305157E-1,9.686438978E-2,9.194005146E-1
6.249878417E0,9.628642175E-1,8.932908297E-2,1.243433797E-1,9.749607492E-1
6.259881417E0,9.080402850E-1,-3.562182248E-2,-1.144878978E-1,9.159222413E-1
6.269883417E0,6.724670760E-1,-1.716856536E-1,-7.964439815E-1,1.056414193E0
6.279886417E0,4.353495809E-1,-3.070960584E-1,-1.705221747E0,1.786510132E0
6.289889417E0,3.441333091E-1,-3.825719181E-1,-2.335856819E0,2.391864562E0
6.299891417E0,4.436188960E-1,-5.209202564E-1,-2.686538315E0,2.772299363E0
6.309894417E0,5.879528828E-1,-7.528491881E-1,-2.787164803E0,2.946312633E0
6.319896417E0,3.440228333E-1,-1.008269016E0,-2.681505032E0,2.885381665E0
6.329899417E0,-1.114741697E-1,-1.264593409E0,-2.521956736E0,2.823453339E0
6.339902417E0,-5.486170917E-1,-1.360666671E0,-2.341871265E0,2.763468024E0
6.349904417E0,-7.908443955E-1,-1.301563015E0,-2.343459368E0,2.794870829E0
6.359907417E0,-7.711188135E-1,-1.149691821E0,-2.671492844E0,3.008868479E0
6.369909417E0,-4.603208097E-1,-8.422680259E-1,-3.237165350E0,3.376470077E0
6.379912417E0,1.210954707E-2,-3.409336030E-1,-3.912023499E0,3.926870283E0
6.389915417E0,4.912463678E-1,2.675107008E-1,-4.436687728E0,4.471809808E0
6.399917417E0,6.474577307E-1,6.753498995E-1,-3.833010659E0,3.945537949E0
6.409920417E0,2.925301326E-1,8.504731312E-1,-2.232562830E0,2.406909890E0
6.419923417E0,-4.693880139E-1,7.992754957E-1,-2.040479457E-1,9.491058897E-1
6.429925417E0,-1.169956077E0,5.683727503E-1,1.992653911E0,2.379603836E0
6.439928417E0,-1.478179771E0,2.618200444E-1,3.535092682E0,3.840630865E0
6.449930417E0,-1.502211535E0,-1.809689856E-1,4.487164401E0,4.735402162E0
6.459933417E0,-1.702167892E0,-7.396336037E-1,5.732014979E0,6.024983744E0
6.469936417E0,-2.525819407E0,-1.071667160E0,6.795665022E0,7.328662720E0
6.479938417E0,-3.756628481E0,-1.296879541E0,7.099801512E0,8.136420318E0
6.489941417E0,-4.675157062E0,-1.233710170E0,7.017887868E0,8.522316848E0
6.499943417E0,-5.045480525E0,-8.255183843E-1,7.043283495E0,8.703229097E0
6.509946417E0,-4.670830123E0,-5.865391722E-1,8.292983753E0,9.535945772E0
6.519949417E0,-3.579237991E0,-4.769689290E-1,1.083426846E1,1.142014961E1
6.529951417E0,-2.312964823E0,-2.616982761E-1,1.384025888E1,1.403463780E1
6.539954417E0,-1.299880332E0,1.342254665E-1,1.530247443E1,1.535817141E1
6.549956417E0,-5.021270129E-1,1.243447538E0,1.567670091E1,1.573395198E1
6.559959417E0,-4.416343510E-1,2.817258083E0,1.562298605E1,1.588111070E1
6.569962417E0,-1.130257138E0,4.351058178E0,1.382020527E1,1.453297155E1
6.579964417E0,-1.597708700E0,6.601987113E0,1.132013232E1,1.320167802E1
6.589967417E0,-2.290197081E0,9.194908581E0,1.007470579E1,1.383080053E1
6.599969417E0,-3.455013602E0,1.102939239E1,1.089393930E1,1.588277459E1
6.609972417E0,-4.105419572E0,1.174256325E1,1.233936984E1,1.752148137E1
6.619975417E0,-3.713276347E0,1.158026208E1,1.317549361E1,1.792998948E1
6.629977417E0,-3.040553309E0,1.073693454E1,1.441376782E1,1.822864313E1
6.639980417E0,-2.382112095E0,9.003958399E0,1.541229684E1,1.800790434E1
6.649982417E0,-1.944461744E0,6.807134335E0,1.507062298E1,1.665057615E1
6.659985417E0,-1.822239735E0,4.369328388E0,1.328047686E1,1.409903024E1
6.669988417E0,-2.270118327E0,2.096437311E0,1.009266376E1,1.055511006E1
6.679990417E0,-2.788717824E0,7.171495977E-1,6.180594653E0,6.818430971E0
6.689993417E0,-3.200578153E0,-1.748668313E-2,2.467724980E0,4.041493891E0
6.699995417E0,-3.257303746E0,-8.573073569E-1,-7.503445333E-1,3.450799982E0
6.709998417E0,-2.453581443E0,-2.150177901E0,-2.567279674E0,4.151415641E0
6.720001417E0,-9.967809919E-1,-4.116462916E0,-3.029918978E0,5.207614453E0
6.730003417E0,6.689662018E-1,-6.089668111E0,-3.404709713E0,7.008824560E0
6.740006417E0,2.293145247E0,-7.291265080E0,-4.135225754E0,8.690290768E0
6.750008417E0,4.076814993E0,-7.544274101E0,-5.291426695E0,1.007649188E1
6.760011417E0,6.158991530E0,-7.927197729E0,-6.424477925E0,1.191837057E1
6.770014417E0,8.008297441E0,-8.512017528E0,-7.263125355E0,1.376009666E1
6.780016417E0,9.068352031E0,-8.541465275E0,-8.498943154E0,1.508057268E1
6.790019417E0,9.300713949E0,-8.063991001E0,-9.901098450E0,1.579756251E1
6.800021417E0,9.092515064E0,-7.364698507E0,-1.036421079E1,1.563104218E1
6.810024417E0,8.757352663E0,-6.492600326E0,-9.949877093E0,1.475957787E1
6.820027417E0,8.638985138E0,-5.788328344E0,-9.145012536E0,1.384803464E1
6.830029458E0,8.425323200E0,-5.309033831E0,-9.212594070E0,1.356627439E1
6.840032458E0,8.380092648E0,-5.047507170E0,-1.045702131E1,1.431965698E1
6.850034458E0,8.253411552E0,-5.147470585E0,-1.200824552E1,1.545358263E1
6.860037458E0,7.736610074E0,-5.664943323E0,-1.301079859E1,1.616253688E1
6.870040458E0,6.843835554E0,-6.321766319E0,-1.317888148E1,1.613957037E1
6.880042458E0,5.763185316E0,-6.788297530E0,-1.270649780E1,1.551613272E1
6.890045458E0,4.634942544E0,-7.143925771E0,-1.176817873E1,1.452612813E1
6.900047458E0,3.490236352E0,-7.354683981E0,-1.075241095E1,1.348656619E1
6.910050458E0,2.809536543E0,-7.231010692E0,-9.954959493E0,1.262070639E1
6.920053458E0,2.476756297E0,-6.735439870E0,-9.625713889E0,1.200644993E1
6.930055458E0,2.522746695E0,-6.126945865E0,-9.927147796E0,1.193532488E1
6.940058458E0,2.897011181E0,-5.576163293E0,-1.051465731E1,1.224925668E1
6.950060458E0,3.330113275E0,-4.992732793E0,-1.079286550E1,1.234920972E1
6.960063458E0,3.750475748E0,-4.479384096E0,-1.063303653E1,1.213228817E1
6.970066458E0,4.030332260E0,-4.276617860E0,-9.924596071E0,1.153389117E1
6.980068458E0,4.060732811E0,-4.347041726E0,-8.789029369E0,1.061288651E1
6.990071458E0,3.970421104E0,-4.639892505E0,-7.479978703E0,9.656237755E0
7.000073458E0,3.625528935E0,-4.880124190E0,-6.553762202E0,8.939344001E0
7.010076458E0,3.172749499E0,-5.026748970E0,-6.089269331E0,8.509626641E0
7.020079458E0,2.882335255E0,-5.261628699E0,-6.220812972E0,8.642401698E0
7.030081458E0,2.698536801E0,-5.497739267E0,-6.916300682E0,9.238097913E0
7.040084458E0,2.742113468E0,-5.598339443E0,-7.656276348E0,9.873153412E0
7.050086458E0,2.957788310E0,-5.481094583E0,-8.173582440E0,1.027610624E1
7.060089458E0,3.342774543E0,-5.245835370E0,-8.657675763E0,1.066059473E1
7.070092458E0,3.667449379E0,-4.966519725E0,-9.005942944E0,1.091895194E1
7.080094458E0,3.768522887E0,-4.883650939E0,-9.142842050E0,1.102920541E1
7.090097458E0,3.619225637E0,-5.233206553E0,-8.892627997E0,1.093453601E1
7.100099458E0,3.270139846E0,-5.556966884E0,-8.252205856E0,1.047246853E1
7.110102458E0,2.974420130E0,-5.647959500E0,-7.595941268E0,9.921942621E0
7.120105458E0,2.582722170E0,-5.497425272E0,-7.205698680E0,9.424130299E0
7.130107458E0,1.985159242E0,-5.174223350E0,-7.281426555E0,9.150552834E0
7.140110458E0,1.309050374E0,-4.816126123E0,-7.206968111E0,8.766360309E0
7.150112458E0,4.001205817E-1,-4.511559570E0,-6.310646669E0,7.767787820E0
7.160115458E0,-8.669921002E-1,-3.887924784E0,-4.325124607E0,5.879994668E0
7.170118458E0,-3.136918639E0,-2.558637489E0,-4.414910942E-1,4.072075482E0
7.180120458E0,-5.518078807E0,-7.794446638E-1,2.928141757E0,6.295295216E0
7.190123458E0,-6.974494511E0,1.418198010E0,3.081441718E0,7.755652283E0
7.200125458E0,-7.208679006E0,4.009710884E0,3.004740282E0,8.779026060E0
7.210128458E0,-6.169579083E0,6.794420149E0,6.592754359E0,1.130010006E1
7.220131458E0,-5.359939690E0,8.936096783E0,1.267488307E1,1.640839541E1
7.230133458E0,-5.630205014E0,1.023959026E1,1.785616167E1,2.133989050E1
7.240136458E0,-5.665961323E0,8.847106254E0,1.806277187E1,2.089588798E1
7.250138458E0,-4.984485295E0,6.289732933E0,1.636785116E1,1.822943734E1
7.260141458E0,-4.058220263E0,5.663341770E0,1.529961632E1,1.681133103E1
7.270144458E0,-2.745019827E0,5.610288813E0,1.444227885E1,1.573498944E1
7.280146458E0,-1.419569182E0,4.678744329E0,1.492598859E1,1.570639871E1
7.290149458E0,-4.495492883E-1,3.328107095E0,1.642762140E1,1.676738311E1
7.300151458E0,1.842625760E-1,2.207679712E0,1.695803052E1,1.710212272E1
7.310154458E0,8.672115169E-1,1.670764689E0,1.569762459E1,1.581008944E1
7.320157458E0,1.534918082E0,1.933749938E0,1.327517109E1,1.350279711E1
7.330159458E0,1.975127759E0,2.549965484E0,1.021720945E1,1.071423458E1
7.340162458E0,2.195219003E0,2.976016420E0,6.964282933E0,7.885232843E0
7.350164458E0,2.326305538E0,3.032223073E0,4.158886512E0,5.648221954E0
7.360167458E0,2.209353770E0,3.091449520E0,1.826288931E0,4.215878969E0
7.370170458E0,2.123190662E0,2.989258902E0,1.256975949E-2,3.666574064E0
7.380172458E0,2.137483011E0,2.630928663E0,-1.103357899E0,3.564830698E0
7.390175458E0,2.257450481E0,2.372215390E0,-1.948693374E0,3.810629134E0
7.400177458E0,2.423817215E0,2.351986948E0,-2.766866194E0,4.366037222E0
7.410180458E0,2.529719207E0,2.338820772E0,-3.239121829E0,4.728791822E0
7.420183458E0,2.523834862E0,2.202685897E0,-3.397055708E0,4.770907152E0
7.430185458E0,2.574622607E0,2.034718196E0,-3.547337337E0,4.832428156E0
7.440188458E0,2.568346791E0,1.910492345E0,-3.235948545E0,4.551675430E0
7.450190458E0,2.429446621E0,1.645819590E0,-2.535321717E0,3.877987779E0
7.460193458E0,2.240773344E0,1.122604594E0,-1.911859424E0,3.152223456E0
7.470196458E0,2.044105901E0,4.793933308E-1,-1.256719841E0,2.446943329E0
7.480198458E0,1.708359362E0,-5.655868444E-1,-3.302998567E-1,1.829611485E0
7.490201458E0,1.169659770E0,-1.714851818E0,3.591915339E-1,2.106617975E0
7.500203458E0,6.263145643E-1,-1.787878864E0,2.075831723E-1,1.905746977E0
7.510206458E0,4.104698610E-1,-9.254151401E-1,-8.057925099E-1,1.293901178E0
7.520208458E0,3.324935858E-1,-1.627367824E-2,-2.220130481E0,2.244949035E0
7.530211458E0,1.800449793E-1,4.217223890E-1,-3.308779124E0,3.340401961E0
7.540214458E0,2.521271150E-1,3.955115139E-1,-2.834928954E0,2.873468220E0
7.550216458E0,5.628071512E-1,-9.785841644E-2,-1.290330806E0,1.411127828E0
7.560219458E0,8.052234297E-1,-7.229095437E-1,3.326469290E-1,1.132094059E0
7.570221458E0,8.535574644E-1,-1.104993950E0,1.848813576E0,2.316826194E0
7.580224458E0,6.569014225E-1,-1.199471653E0,2.194295143E0,2.585572064E0
7.590227458E0,2.848316154E-1,-1.157965339E0,1.871563922E0,2.219180995E0
7.600229458E0,-2.571371555E-2,-1.156576625E0,1.616628243E0,1.987917896E0
7.610232458E0,-2.538073124E-1,-1.322344311E0,1.554363583E0,2.056467548E0
7.620234458E0,-3.178754736E-1,-1.649478778E0,2.091273635E0,2.682396405E0
7.630237458E0,-2.432634670E-1,-2.036053700E0,3.491655471E0,4.049240634E0
7.640240458E0,-3.271343203E-1,-1.880287676E0,5.052344572E0,5.400804040E0
7.650242458E0,-8.766202717E-1,-1.583685323E0,6.093369983E0,6.356546236E0
7.660245458E0,-1.751200450E0,-1.544438519E0,6.240760163E0,6.663263522E0
7.670247458E0,-3.029868692E0,-1.235140107E0,4.992766707E0,5.969371387E0
7.680250458E0,-4.117623296E0,-3.148792872E-1,2.886022509E0,5.038164000E0
7.690253458E0,-4.924237339E0,8.022833034E-1,2.276518105E0,5.484004609E0
7.700255458E0,-5.359163765E0,1.800875763E0,4.054478629E0,6.957196758E0
7.710258458E0,-5.118285377E0,2.575516354E0,7.974755473E0,9.819717641E0
7.720260458E0,-4.705553521E0,2.895540022E0,1.330854583E1,1.440985004E1
7.730263458E0,-4.604212210E0,2.873102793E0,1.802135019E1,1.882080106E1
7.740266458E0,-4.542124135E0,2.652231531E0,1.918816441E1,1.989600154E1
7.750268458E0,-4.909421664E0,2.963913853E0,1.713108120E1,1.806546843E1
7.760271458E0,-5.272948324E0,4.538538038E0,1.404769821E1,1.567610081E1
7.770273458E0,-5.552497272E0,6.448273169E0,1.165456967E1,1.443050404E1
7.780276458E0,-5.548269736E0,7.469733211E0,1.131603108E1,1.465035053E1
7.790278458E0,-5.043120589E0,7.268029414E0,1.295160021E1,1.568442746E1
7.800281458E0,-4.339216689E0,6.102546018E0,1.468803966E1,1.648661210E1
7.810284458E0,-3.825907169E0,5.204054675E0,1.526810918E1,1.657814551E1
7.820286458E0,-3.261652905E0,4.970106407E0,1.437619011E1,1.555683706E1
7.830288833E0,-2.876446524E0,5.131721109E0,1.243123193E1,1.375296454E1
7.840290833E0,-2.723972189E0,5.359667795E0,9.968808038E0,1.164144308E1
7.850293833E0,-2.423920564E0,5.227247656E0,7.730173459E0,9.641322039E0
7.860296833E0,-1.999689866E0,4.367882372E0,6.096204128E0,7.761498615E0
7.870298833E0,-1.425627190E0,3.068819334E0,4.574604249E0,5.690085151E0
7.880301833E0,-7.295033026E-1,1.662889075E0,2.469081534E0,3.064920678E0
7.890303833E0,-2.236042508E-1,2.159791893E-1,6.852410495E-2,3.183416783E-1
7.900306833E0,2.049542642E-1,-1.029314023E0,-2.273468197E0,2.504027007E0
7.910309833E0,9.807990897E-1,-2.064505666E0,-4.358354918E0,4.921321783E0
7.920311833E0,1.689184003E0,-3.064124020E0,-5.882510616E0,6.844423259E0
7.930314833E0,2.210992744E0,-4.267001529E0,-6.657110569E0,8.210536651E0
7.940316833E0,2.701120978E0,-5.809540288E0,-6.181508573E0,8.902688421E0
7.950319833E0,3.101640925E0,-7.837442969E0,-4.727475609E0,9.664094078E0
7.960322833E0,3.596596912E0,-9.660218893E0,-3.157613397E0,1.078080984E1
7.970324833E0,4.336493641E0,-1.077182721E1,-2.167642365E0,1.181254046E1
7.980327833E0,4.859800146E0,-1.105973476E1,-2.517527470E0,1.233990822E1
7.990329833E0,5.357983797E0,-1.054873723E1,-4.335154921E0,1.260069108E1
8.000332833E0,5.535891180E0,-9.926717441E0,-5.903732500E0,1.280780495E1
8.010335833E0,4.677846489E0,-9.766296156E0,-7.329012950E0,1.307582576E1
8.020337833E0,3.669872465E0,-1.000763589E1,-8.812977226E0,1.383073778E1
8.030340833E0,3.047248955E0,-1.067084346E1,-1.025636943E1,1.511111313E1
8.040342833E0,2.168105464E0,-1.151185550E1,-1.152124146E1,1.643053569E1
8.050345833E0,1.389884330E0,-1.165249157E1,-1.255053618E1,1.718220872E1
8.060347833E0,1.398671233E0,-1.128836557E1,-1.249443566E1,1.689657956E1
8.070350833E0,1.743442949E0,-1.095925036E1,-1.138621872E1,1.589939428E1
8.080353833E0,1.707673776E0,-1.055690579E1,-1.041846360E1,1.493013038E1
8.090355833E0,1.698924880E0,-1.009987805E1,-9.815619174E0,1.418591774E1
8.100358833E0,1.806666553E0,-9.584474646E0,-9.415246285E0,1.355629230E1
8.110360833E0,1.973645782E0,-9.038801957E0,-9.335285611E0,1.314316461E1
8.120363833E0,2.084093547E0,-8.553834475E0,-9.344065790E0,1.283834474E1
8.130366833E0,2.145627013E0,-8.349107668E0,-9.182444072E0,1.259478437E1
8.140368833E0,2.231800938E0,-8.275546187E0,-8.877716428E0,1.234015596E1
8.150371833E0,2.349643968E0,-8.328635396E0,-8.381051007E0,1.204695025E1
8.160373833E0,2.384423792E0,-8.593086249E0,-7.601800178E0,1.171810454E1
8.170376833E0,2.276138620E0,-8.792818950E0,-6.822631795E0,1.135969968E1
8.180378833E0,2.099038299E0,-8.779639326E0,-6.493086230E0,1.111972110E1
8.190381833E0,2.027673324E0,-8.503064856E0,-6.482520896E0,1.088286030E1
8.200384833E0,2.108097682E0,-8.159870719E0,-6.678189781E0,1.075294307E1
8.210386833E0,2.260506089E0,-7.878358861E0,-6.967299512E0,1.075740157E1
8.220389833E0,2.368752523E0,-7.653450388E0,-7.054527690E0,1.067486076E1
8.230391833E0,2.575592076E0,-7.466186875E0,-6.915269818E0,1.049755103E1
8.240394833E0,2.786340930E0,-7.327205576E0,-6.691287544E0,1.030654968E1
8.250397833E0,2.931320304E0,-7.274875919E0,-6.390407953E0,1.011700411E1
8.260399833E0,3.070906790E0,-7.260339156E0,-5.943890008E0,9.872832501E0
8.270402833E0,3.136672763E0,-7.176356183E0,-5.452130985E0,9.542774039E0
8.280404833E0,3.168347715E0,-7.162342746E0,-5.279518840E0,9.445152198E0
8.290407833E0,3.171992285E0,-7.306601157E0,-5.283283278E0,9.558296800E0
8.300410833E0,3.018703433E0,-7.482701751E0,-5.020248621E0,9.502962282E0
8.310412833E0,2.820203618E0,-7.492976478E0,-4.678488221E0,9.272890433E0
8.320415833E0,2.581765858E0,-7.413045040E0,-3.752159454E0,8.700428282E0
8.330417833E0,2.102388315E0,-6.775098025E0,-2.092248366E0,7.395910566E0
8.340420833E0,9.844074064E-1,-4.812035703E0,5.834480417E-1,4.946226558E0
8.350422833E0,-3.982880643E-1,-1.749088728E0,2.425640815E0,3.016898759E0
8.360425833E0,-1.183485219E0,1.295216154E0,1.733271425E0,2.466262756E0
8.370428833E0,-1.831538854E0,3.766616694E0,-1.642474691E0,4.498850854E0
8.380430833E0,-3.149462963E0,6.404244220E0,-4.565153979E0,8.471959150E0
8.390433833E0,-4.618424160E0,9.600241663E0,-4.121979471E0,1.142301171E1
8.400435833E0,-5.479668447E0,1.181014536E1,-1.080785308E0,1.306424114E1
8.410438833E0,-4.587252946E0,1.144566268E1,2.054030380E0,1.250060497E1
8.420441833E0,-2.589681526E0,8.375462823E0,5.412562877E0,1.030294447E1
8.430443833E0,-9.872550005E-1,4.749297126E0,1.080211813E1,1.184129434E1
8.440446833E0,4.890318811E-2,2.181481555E0,1.768076742E1,1.781490359E1
8.450448833E0,1.600961798E-1,6.604175726E-1,2.316047504E1,2.317044209E1
8.460451833E0,-8.481177266E-1,-2.153155303E-1,2.552236425E1,2.553735972E1
8.470454833E0,-1.917443369E0,-6.592735648E-2,2.365586987E1,2.373354408E1
8.480456833E0,-2.253213296E0,1.857279467E0,1.859470594E1,1.882258075E1
8.490459833E0,-2.158675659E0,4.390497063E0,1.309418924E1,1.397834529E1
8.500461833E0,-1.968558412E0,5.552958033E0,8.464498376E0,1.031301595E1
8.510464833E0,-1.913690334E0,5.342171756E0,5.564130893E0,7.947361975E0
8.520466833E0,-1.350949037E0,4.421939003E0,4.452212670E0,6.418785361E0
8.530469833E0,-4.205036831E-1,3.382489125E0,5.105632002E0,6.138854467E0
8.540472833E0,2.359803213E-1,2.403941213E0,6.084895028E0,6.546798269E0
8.550474833E0,8.040048699E-1,1.753913265E0,6.524147224E0,6.803464748E0
8.560477833E0,1.030700836E0,1.336221801E0,5.818854318E0,6.058621830E0
8.570479833E0,1.003270232E0,1.409360236E0,3.682481693E0,4.068601584E0
8.580482833E0,1.049358570E0,2.032900004E0,1.946648603E0,3.003876931E0
8.590485833E0,8.137258659E-1,2.762433420E0,9.006606603E-1,3.017346153E0
8.600487833E0,3.608255383E-1,3.050820142E0,2.928987265E-1,3.086014950E0
8.610490833E0,2.180572897E-1,2.720839836E0,7.057296932E-1,2.819321336E0
8.620492833E0,1.473974892E-1,1.878431477E0,1.865412651E0,2.651413810E0
8.630495833E0,-4.405175328E-2,7.938200435E-1,2.887856196E0,2.995297018E0
8.640498833E0,-1.924020463E-1,-2.312331131E-1,3.914092244E0,3.925634394E0
8.650500833E0,-2.872200568E-1,-1.003597383E0,4.691150367E0,4.805891679E0
8.660503833E0,-2.062542464E-1,-1.345698091E0,4.748639022E0,4.939940963E0
8.670505833E0,1.338290253E-1,-1.168509330E0,4.117841397E0,4.282515853E0
8.680508833E0,5.472833052E-1,-4.581229144E-1,3.109907718E0,3.190755653E0
8.690511833E0,7.586405629E-1,4.673314020E-1,2.081363189E0,2.264068654E0
8.700513833E0,8.201613115E-1,8.209213033E-1,1.411064115E0,1.826931389E0
8.710516833E0,8.941872078E-1,7.271784496E-1,1.363122209E0,1.785066222E0
8.720518833E0,8.404628442E-1,6.287607470E-1,1.637203426E0,1.944775804E0
8.730521833E0,7.097544779E-1,5.138606206E-1,2.289419986E0,2.451376762E0
8.740524833E0,6.287455443E-1,4.337520120E-1,3.144380563E0,3.235829243E0
8.750526833E0,6.721963499E-1,4.772257680E-1,3.955378849E0,4.040373028E0
8.760529833E0,7.385040678E-1,5.876747015E-1,4.172160861E0,4.277578294E0
8.770531833E0,6.164152282E-1,8.679560137E-1,3.708236339E0,3.858021789E0
8.780534833E0,4.635425524E-1,1.445275296E0,2.984469740E0,3.348246109E0
8.790536833E0,1.390526354E-1,2.012414284E0,2.927804958E0,3.555444945E0
8.800539833E0,-3.480843093E-1,2.260641452E0,3.451628357E0,4.140700517E0
8.810542833E0,-7.926888996E-1,1.743405234E0,4.955626363E0,5.312819416E0
8.820544833E0,-8.359425080E-1,1.037977257E0,7.481272691E0,7.599055056E0
8.830547958E0,-7.761664224E-1,8.648151818E-1,1.015090203E1,1.021719881E1
8.840549958E0,-9.804302765E-1,1.093669355E0,1.111553824E1,1.121216066E1
8.850552958E0,-1.384566287E0,1.474767775E0,9.561074089E0,9.772722320E0
8.860555958E0,-1.790506310E0,2.270704511E0,7.305569708E0,7.857058011E0
8.870557958E0,-2.217103085E0,2.941814302E0,5.989650317E0,7.031765667E0
8.880560958E0,-2.920940911E0,3.026877256E0,6.215547554E0,7.505125790E0
8.890562958E0,-3.526917398E0,2.265287650E0,8.194894956E0,9.204725841E0
8.900565958E0,-3.631665881E0,1.422121199E0,1.021483198E1,1.093408515E1
8.910568958E0,-3.294852811E0,9.772828665E-1,1.107680044E1,1.159769998E1
8.920570958E0,-2.938859704E0,1.078335032E0,1.050591690E1,1.096238991E1
8.930573958E0,-2.617661038E0,2.232309061E0,8.857749941E0,9.502372707E0
8.940575958E0,-2.144704322E0,4.073610426E0,7.219657738E0,8.562564826E0
8.950578958E0,-1.433467283E0,5.735335028E0,6.059171957E0,8.465368341E0
8.960581958E0,-8.429154588E-1,6.654807351E0,5.406427394E0,8.615475872E0
8.970583958E0,-8.098862918E-1,6.387301912E0,4.991162231E0,8.146486478E0
8.980586958E0,-8.810020289E-1,5.377225814E0,4.659069033E0,7.169215179E0
8.990588958E0,-8.927555171E-1,4.292105380E0,4.068804308E0,5.981166233E0
9.000591958E0,-1.154306882E0,3.492360061E0,3.480886070E0,5.064145634E0
9.010594958E0,-1.510978704E0,3.034237731E0,3.135328488E0,4.617352053E0
9.020596958E0,-1.615503531E0,2.491711428E0,2.966559718E0,4.197493784E0
9.030599958E0,-1.695267154E0,1.875953427E0,1.953400968E0,3.195138076E0
9.040601958E0,-1.614601891E0,1.127863580E0,4.947352552E-1,2.030708865E0
9.050604958E0,-1.261197931E0,1.033945602E-1,-7.482155621E-1,1.470080672E0
9.060607958E0,-6.691531666E-1,-9.790618819E-1,-1.629994394E0,2.015740522E0
9.070609958E0,3.176802497E-1,-2.157161815E0,-2.394034860E0,3.238158543E0
9.080612958E0,1.090633481E0,-3.538260704E0,-3.052945898E0,4.798879958E0
9.090614958E0,1.800532970E0,-5.140104847E0,-3.424124808E0,6.433290567E0
9.100617958E0,2.580925321E0,-6.834620926E0,-3.720058240E0,8.198295678E0
9.110620958E0,3.292027436E0,-8.496708348E0,-4.039581678E0,9.967432845E0
9.120622958E0,3.908143871E0,-9.718882254E0,-4.031813067E0,1.122433862E1
9.130625958E0,4.196177714E0,-1.017029140E1,-3.853264829E0,1.165720311E1
9.140627958E0,4.153145423E0,-9.971932790E0,-3.895433779E0,1.148313828E1
9.150630958E0,3.833167949E0,-9.535963222E0,-4.398402498E0,1.117916435E1
9.160633958E0,3.096184888E0,-9.114148008E0,-5.745154842E0,1.120985544E1
9.170635958E0,2.203784882E0,-8.955042931E0,-7.639424672E0,1.197540275E1
9.180638958E0,1.392342061E0,-9.229154554E0,-9.364092504E0,1.322127598E1
9.190640958E0,7.275527445E-1,-9.739795405E0,-1.104824147E1,1.474640930E1
9.200643958E0,1.073480089E-1,-1.025894454E1,-1.245967513E1,1.614004247E1
9.210646958E0,-2.677374997E-1,-1.059047582E1,-1.300606703E1,1.677461299E1
9.220648958E0,-3.186093722E-1,-1.070214244E1,-1.265782791E1,1.657884110E1
9.230651958E0,-1.106230344E-1,-1.046082551E1,-1.163697306E1,1.564801104E1
9.240653958E0,7.397122487E-2,-1.002193233E1,-1.036697068E1,1.441938558E1
9.250656958E0,2.499465421E-1,-9.476999899E0,-9.354360398E0,1.331841052E1
9.260659958E0,5.411497222E-1,-8.978774441E0,-8.685479273E0,1.250395072E1
9.270661958E0,6.297632521E-1,-8.673602409E0,-8.269515368E0,1.200053603E1
9.280664958E0,5.502221158E-1,-8.473867954E0,-7.999032528E0,1.166592062E1
9.290666958E0,4.609491661E-1,-8.382219865E0,-7.957495662E0,1.156701436E1
9.300669958E0,4.014974548E-1,-8.293198931E0,-7.869952903E0,1.144003966E1
9.310672958E0,5.032813995E-1,-8.259380389E0,-7.576561257E0,1.121940003E1
9.320674958E0,6.853477612E-1,-8.308173650E0,-7.170337059E0,1.099587125E1
9.330677958E0,7.632971393E-1,-8.380209008E0,-6.648261393E0,1.072426711E1
9.340679958E0,7.609924592E-1,-8.281233773E0,-6.194347304E0,1.036956512E1
9.350682958E0,7.758477491E-1,-8.025965973E0,-5.877640470E0,9.978212616E0
9.360685958E0,7.929062699E-1,-7.814806058E0,-5.908037220E0,9.828773976E0
9.370687958E0,8.240232512E-1,-7.716578683E0,-6.256823634E0,9.968572760E0
9.380690958E0,9.445295419E-1,-7.813254207E0,-6.804929935E0,1.040414094E1
9.390692958E0,1.032482775E0,-7.914491730E0,-7.338042220E0,1.084214295E1
9.400695958E0,1.060781106E0,-7.852293143E0,-7.578518904E0,1.096438384E1
9.410698958E0,1.164568307E0,-7.651224938E0,-7.406213738E0,1.071211764E1
9.420700958E0,1.456708357E0,-7.553395758E0,-6.953278474E0,1.036937164E1
9.430703958E0,1.776316288E0,-7.546135855E0,-6.343845406E0,1.001717727E1
9.440705958E0,1.891063363E0,-7.380404713E0,-5.697330465E0,9.513467759E0
9.450708958E0,1.850357825E0,-7.121040353E0,-5.080718186E0,8.941293926E0
9.460711958E0,1.133666357E0,-6.487947696E0,-4.784102969E0,8.140411902E0
9.470713958E0,2.995499343E-2,-5.187340409E0,-5.128933741E0,7.294885821E0
9.480716958E0,-1.192369186E0,-3.557827826E0,-5.320185640E0,6.510319375E0
9.490718958E0,-2.011614823E0,-1.461923781E0,-4.446364869E0,5.094504480E0
9.500721958E0,-1.876374134E0,1.411876878E0,-2.825303267E0,3.673760303E0
9.510724958E0,-8.289610787E-1,4.570331689E0,-1.189878564E0,4.794884692E0
9.520726958E0,1.559366168E-1,6.540774951E0,-9.548444688E-2,6.543330228E0
9.530729958E0,1.035433865E0,6.843547286E0,1.908330629E0,7.179692788E0
9.540731958E0,1.929859931E0,6.440191147E0,6.383142203E0,9.270648616E0
9.550734958E0,2.606744286E0,5.402620856E0,1.121467194E1,1.271818755E1
9.560737958E0,2.885369375E0,3.603126791E0,1.347648254E1,1.424512060E1
9.570739958E0,2.004397167E0,2.939442671E0,1.383836321E1,1.428839486E1
9.580742958E0,1.000729032E-2,3.808890017E0,1.250399351E1,1.307125079E1
9.590744958E0,-1.558875294E0,5.028838180E0,9.860524621E0,1.117807011E1
9.600747958E0,-2.443846998E0,6.067406006E0,7.773420635E0,1.015932440E1
9.610750958E0,-2.723806129E0,6.634656676E0,7.247416225E0,1.019621650E1
9.620752958E0,-2.143930589E0,6.060164815E0,7.978711115E0,1.024606593E1
9.630755958E0,-9.886804786E-1,5.028150548E0,9.313841532E0,1.063049534E1
9.640757958E0,3.252954075E-1,3.951973431E0,1.076979472E1,1.147660182E1
9.650760958E0,1.223723199E0,2.871940952E0,1.232162237E1,1.271093706E1
9.660763958E0,1.344957395E0,1.893016187E0,1.323507323E1,1.343724615E1
9.670765958E0,3.846871483E-1,1.494926928E0,1.156433894E1,1.166690730E1
9.680768958E0,-5.453016108E-1,2.216760730E0,8.250558110E0,8.560554370E0
9.690770958E0,-8.265849164E-1,3.255363932E0,5.143014421E0,6.142575542E0
9.700773958E0,-9.058094260E-1,3.841627408E0,2.509198111E0,4.677036136E0
9.710775958E0,-3.871135236E-1,4.069458319E0,1.200198900E0,4.260378538E0
9.720778958E0,4.638737972E-1,4.371807607E0,1.997836883E0,4.828999158E0
9.730781958E0,1.085098360E0,4.026277801E0,4.130167328E0,5.869125449E0
9.740783958E0,1.367240403E0,2.793767771E0,5.995294635E0,6.754113001E0
9.750786958E0,1.236365683E0,1.515755295E0,7.993442590E0,8.229291504E0
9.760788958E0,8.268446790E-1,4.115536425E-1,9.102727227E0,9.149464000E0
9.770791958E0,3.900532843E-1,-3.474821922E-1,8.821330558E0,8.836784384E0
9.780794958E0,6.981246583E-2,-6.225948581E-1,7.468409986E0,7.494641143E0
9.790796958E0,-2.070827968E-2,-3.955670625E-1,5.721677102E0,5.735371914E0
9.800799958E0,1.072153867E-1,1.827453697E-1,4.129853917E0,4.135285284E0
9.810801958E0,3.527015265E-1,6.709273580E-1,3.367857052E0,3.452101246E0
9.820804958E0,5.223647745E-1,8.238036883E-1,3.171763659E0,3.318373424E0
9.830807792E0,6.205633892E-1,7.098578274E-1,3.106205846E0,3.246153387E0
9.840809792E0,5.759181801E-1,6.005730745E-1,2.732889193E0,2.856755697E0
9.850812792E0,3.975196305E-1,5.221794543E-1,1.857703682E0,1.970217300E0
9.860814792E0,1.578943742E-1,4.527624795E-1,7.334560204E-1,8.762888965E-1
9.870817792E0,-2.026939316E-1,4.532670942E-1,-3.816021574E-1,6.262236782E-1
9.880820792E0,-4.667648068E-1,4.408499470E-1,-1.257651887E0,1.412057481E0
9.890822792E0,-6.099180946E-1,3.028942493E-1,-1.791730133E0,1.916779037E0
9.900825792E0,-7.391805907E-1,1.445589584E-1,-2.141008297E0,2.269625909E0
9.910827792E0,-4.759997530E-1,6.399163574E-2,-2.082717989E0,2.137378047E0
9.920830792E0,-8.484194795E-2,1.539045632E-2,-1.209745064E0,1.212814142E0
9.930833792E0,-6.144087014E-2,-2.839178418E-1,-2.986278284E-1,4.166088108E-1
9.940835792E0,-2.173977603E-1,-7.172618642E-1,2.118802911E-1,7.788578984E-1
9.950838792E0,-3.430418897E-1,-1.095271200E0,3.341958565E-1,1.195401025E0
9.960840792E0,-3.843079564E-1,-1.253119418E0,7.095303833E-2,1.312644359E0
9.970843792E0,-4.536751202E-1,-1.185009734E0,-2.081906980E-1,1.285850906E0
9.980845792E0,-4.193404161E-1,-6.680347404E-1,-3.116875845E-1,8.480954836E-1
9.990848792E0,-9.480224127E-2,-2.787206903E-2,1.125507152E-1,1.497730973E-1
1.000085179E1,3.022514575E-1,3.572906041E-1,8.599798268E-1,9.790698759E-1
1.001085379E1,6.925480226E-1,7.021319014E-1,1.661861719E0,1.932458627E0
1.002085679E1,1.373650413E0,1.237460574E0,2.529244121E0,3.132937911E0
1.003085879E1,1.873717598E0,1.992002239E0,3.224096239E0,4.227728363E0
1.004086179E1,2.056453904E0,2.532410096E0,3.810695930E0,5.016324055E0
1.005086479E1,2.203408906E0,2.808239338E0,4.809928951E0,5.989710803E0
1.006086679E1,2.261346480E0,2.723100077E0,6.456025407E0,7.362691491E0
1.007086979E1,2.059443147E0,2.063204076E0,8.920591137E0,9.384831558E0
1.008087179E1,2.002169962E0,1.093709993E0,1.086840217E1,1.110527135E1
1.009087479E1,1.987728070E0,1.709375024E-2,1.118509438E1,1.136035613E1
1.010087679E1,1.845266508E0,-8.020339197E-1,9.929943935E0,1.013173497E1
1.011087979E1,1.350955615E0,-8.460614070E-1,7.958121899E0,8.116194005E0
1.012088279E1,1.033470808E0,-4.917537600E-1,6.428427719E0,6.529515036E0
1.013088479E1,6.116751829E-1,-4.914616916E-1,4.704408343E0,4.769396082E0
1.014088779E1,-2.511880521E-1,-6.507000849E-1,2.677181600E0,2.766551528E0
1.015088979E1,-7.738664201E-1,-5.698576507E-1,1.488804016E0,1.772045252E0
1.016089279E1,-1.073411969E0,-2.920418170E-1,1.443144279E0,1.822132566E0
1.017089579E1,-1.640610306E0,3.816243768E-2,2.124241991E0,2.684299272E0
1.018089779E1,-2.334522776E0,4.828870422E-1,3.129285976E0,3.933904829E0
1.019090079E1,-2.935503402E0,1.229549291E0,3.932082957E0,5.058680467E0
1.020090279E1,-3.022271404E0,2.268084666E0,4.124306079E0,5.593588573E0
1.021090579E1,-2.444245924E0,3.271098497E0,4.137582182E0,5.813261548E0
1.022090779E1,-1.784916811E0,4.230571329E0,4.946669013E0,6.749310788E0
1.023091079E1,-1.692735018E0,5.140254536E0,5.718331325E0,7.873174815E0
1.024091379E1,-1.492433383E0,5.810973440E0,5.837799296E0,8.371061483E0
1.025091579E1,-1.158311786E0,5.984962605E0,5.887056241E0,8.474602926E0
1.026091879E1,-1.055095127E0,5.935631400E0,5.834516085E0,8.389667681E0
1.027092079E1,-1.038887303E0,5.841008248E0,5.756364539E0,8.266341204E0
1.028092379E1,-1.001040835E0,5.760369882E0,5.801440725E0,8.236544082E0
1.029092679E1,-7.036194330E-1,5.407098069E0,5.925785274E0,8.052746174E0
1.030092879E1,-4.932306936E-1,4.507524406E0,6.030683153E0,7.545209877E0
1.031093179E1,-5.066537811E-1,3.330587484E0,5.757575498E0,6.670771069E0
1.032093379E1,-3.410385971E-1,1.944043669E0,5.166207987E0,5.530399450E0
1.033093679E1,-1.176258791E-2,4.510992390E-1,4.265364894E0,4.289168516E0
1.034093879E1,6.557104178E-3,-8.115239507E-1,2.641505399E0,2.763361158E0
1.035094179E1,1.684680039E-1,-1.823557112E0,6.629742676E-1,1.947633664E0
1.036094479E1,5.967468028E-1,-2.809802883E0,-1.132309803E0,3.087592020E0
1.037094679E1,1.043479780E0,-4.006291725E0,-2.429827421E0,4.800342148E0
1.038094979E1,1.419835377E0,-5.336167835E0,-3.304515334E0,6.435094502E0
1.039095179E1,1.877656136E0,-6.709888122E0,-3.846298456E0,7.958781502E0
1.040095479E1,2.434798432E0,-7.844231586E0,-4.324659169E0,9.282396755E0
1.041095779E1,2.610703144E0,-8.708861704E0,-4.763530126E0,1.026407630E1
1.042095979E1,2.358165847E0,-9.072598863E0,-5.357790838E0,1.079717180E1
1.043096279E1,1.904459188E0,-8.955781435E0,-6.240842024E0,1.108066312E1
1.044096479E1,1.627903429E0,-8.755937637E0,-7.368952941E0,1.155932441E1
1.045096779E1,1.321734739E0,-8.644856327E0,-8.527971656E0,1.221502453E1
1.046096979E1,7.633325149E-1,-8.783020771E0,-9.843816787E0,1.321456996E1
1.047097279E1,2.907434428E-1,-9.140942874E0,-1.135799070E1,1.458236336E1
1.048097579E1,-6.784158871E-2,-9.416674760E0,-1.261478071E1,1.574201570E1
1.049097779E1,-2.899020284E-1,-9.473036656E0,-1.274574431E1,1.588321330E1
1.050098079E1,-8.871761039E-2,-9.366753572E0,-1.164670165E1,1.494622369E1
1.051098279E1,1.737871429E-1,-9.308221774E0,-9.938547528E0,1.361792648E1
1.052098579E1,3.699735072E-1,-9.265646442E0,-8.526994001E0,1.259756767E1
1.053098779E1,4.573336865E-1,-9.229507726E0,-7.483273609E0,1.189085156E1
1.054099079E1,5.422191048E-1,-9.174504722E0,-6.941530248E0,1.151739470E1
1.055099379E1,5.580547535E-1,-9.048784908E0,-7.026445853E0,1.147008608E1
1.056099579E1,4.882399488E-1,-8.859781848E0,-7.545221935E0,1.164750989E1
1.057099879E1,4.285459435E-1,-8.620872803E0,-8.052191319E0,1.180427400E1
1.058100079E1,4.342156962E-1,-8.332100456E0,-8.367330515E0,1.181628796E1
1.059100379E1,5.627100143E-1,-8.039593493E0,-8.239223868E0,1.152547249E1
1.060100679E1,8.176611882E-1,-7.827569945E0,-7.963409536E0,1.119621867E1
1.061100879E1,9.660439333E-1,-7.685181473E0,-7.682075433E0,1.090914928E1
1.062101179E1,1.078360248E0,-7.607065596E0,-7.322525464E0,1.061365568E1
1.063101379E1,1.144989198E0,-7.601227736E0,-6.984396771E0,1.038611870E1
1.064101679E1,1.008303734E0,-7.604777580E0,-6.737827873E0,1.021017350E1
1.065101879E1,8.752318503E-1,-7.559048846E0,-6.534597368E0,1.003026485E1
1.066102179E1,7.608712026E-1,-7.454318197E0,-6.478521985E0,9.905404175E0
1.067102479E1,6.260111669E-1,-7.290656970E0,-6.474930040E0,9.770889829E0
1.068102679E1,6.640068128E-1,-7.125480144E0,-6.242618408E0,9.496507617E0
1.069102979E1,7.086719390E-1,-6.838598787E0,-6.161885317E0,9.232414633E0
1.070103179E1,6.620286267E-1,-6.397075533E0,-6.093054818E0,8.859242309E0
1.071103479E1,6.628655094E-1,-5.943101803E0,-5.980304713E0,8.457180037E0
1.072103679E1,7.561883868E-1,-5.512860167E0,-6.060675277E0,8.227711280E0
1.073103979E1,9.792428532E-1,-4.976353573E0,-6.055522710E0,7.898883892E0
1.074104279E1,1.194901177E0,-4.135231601E0,-5.234366641E0,6.776911048E0
1.075104479E1,7.006760909E-1,-2.929403586E0,-4.057444922E0,5.053237739E0
1.076104779E1,-5.167193243E-1,-1.222675012E0,-3.230634010E0,3.492696545E0
1.077104979E1,-1.880127900E0,7.812108153E-1,-2.637100106E0,3.331586444E0
1.078105279E1,-2.396714054E0,2.743482009E0,-2.070669801E0,4.190298941E0
1.079105479E1,-2.069290589E0,4.408001288E0,-1.283494826E0,5.035851255E0
1.080105779E1,-1.941395757E0,6.316279877E0,-2.169188368E-1,6.611464494E0
1.081106079E1,-2.656363174E0,7.872808684E0,1.264824082E0,8.404591711E0
1.082106279E1,-2.446153724E0,7.763409618E0,3.411690120E0,8.825747923E0
1.083106579E1,-8.699032827E-1,6.049214734E0,6.135424912E0,8.659859668E0
1.084106779E1,6.841359258E-2,4.292935685E0,9.100857872E0,1.006278248E1
1.085107079E1,-5.783004454E-1,2.658216741E0,1.151002650E1,1.182714072E1
1.086107379E1,-2.167648212E0,8.604756707E-1,1.263736967E1,1.285076766E1
1.087107579E1,-2.876729237E0,-4.685888457E-1,1.339934607E1,1.371268106E1
1.088107879E1,-2.609578432E0,-1.993733892E-1,1.300190264E1,1.326269662E1
1.089108079E1,-1.689782905E0,1.821067660E0,1.147000581E1,1.173595701E1
1.090108379E1,-3.470664552E-1,4.014608805E0,9.382762663E0,1.021145309E1
1.091108579E1,9.355251221E-1,5.569196920E0,6.708112907E0,8.768690915E0
1.092108879E1,1.599275315E0,6.666999965E0,4.473639207E0,8.186575463E0
1.093109179E1,1.857678978E0,6.923517900E0,3.223623199E0,7.859886629E0
1.094109379E1,2.030797492E0,6.578556735E0,3.139056673E0,7.566718177E0
1.095109679E1,1.992408620E0,5.861712070E0,4.002813801E0,7.372372673E0
1.096109879E1,1.627535932E0,4.605875743E0,5.227039495E0,7.154362757E0
1.097110179E1,7.482360274E-1,3.323165613E0,5.794929265E0,6.721941091E0
1.098110379E1,-1.880208738E-1,2.427426847E0,5.173002452E0,5.717316443E0
1.099110679E1,-6.355335769E-1,2.191478247E0,3.898260323E0,4.516958421E0
1.100110979E1,-7.149393502E-1,2.601483839E0,2.563397123E0,3.721540171E0
1.101111179E1,-5.859905572E-1,3.175876590E0,1.523789077E0,3.570925678E0
1.102111479E1,-5.211509290E-1,3.347597619E0,1.033146288E0,3.541948526E0
1.103111679E1,-4.686160353E-1,3.011270453E0,9.407129180E-1,3.189403004E0
1.104111979E1,-3.406524982E-1,2.195883247E0,1.820193794E0,2.872464587E0
1.105112179E1,-4.213393964E-1,1.101312251E0,3.467056235E0,3.662088816E0
1.106112479E1,-7.425949261E-1,1.270257899E-1,4.523291423E0,4.585602259E0
1.107112779E1,-1.010315542E0,-4.273598358E-1,4.692715666E0,4.819227557E0
1.108112979E1,-1.055045718E0,-3.772225928E-1,4.001022799E0,4.154949072E0
1.109113279E1,-7.892204775E-1,4.226528272E-1,3.093398105E0,3.220344114E0
1.110113479E1,-3.149148090E-1,1.398773267E0,2.481160128E0,2.865640167E0
1.111113779E1,1.322904767E-1,2.510116709E0,2.083192783E0,3.264640690E0
1.112114079E1,2.380630995E-1,2.937758380E0,1.529671376E0,3.320691624E0
1.113114279E1,1.980172737E-1,2.976616929E0,1.539637370E0,3.357073490E0
1.114114579E1,-4.149374261E-2,2.595690418E0,2.175951258E0,3.387343259E0
1.115114779E1,-4.388712493E-1,1.995808484E0,2.932705509E0,3.574439967E0
1.116115079E1,-8.895948046E-1,9.591570827E-1,4.064789025E0,4.270113703E0
1.117115279E1,-1.229059733E0,5.654754549E-2,4.879020821E0,5.031762079E0
1.118115579E1,-1.264439920E0,-1.711111647E-1,5.360102243E0,5.509880525E0
1.119115879E1,-9.051149230E-1,1.785850757E-1,5.308784739E0,5.388350495E0
1.120116079E1,-1.577954467E-1,9.517843285E-1,4.740993787E0,4.838162347E0
1.121116379E1,4.103583254E-1,1.996535001E0,4.175679715E0,4.646595210E0
1.122116579E1,6.628405125E-1,2.562168038E0,3.862432094E0,4.682140993E0
1.123116879E1,7.567564438E-1,2.544038746E0,3.851923478E0,4.677833679E0
1.124117179E1,5.817058638E-1,2.225942321E0,4.120942175E0,4.719678521E0
1.125117379E1,3.225237907E-1,1.874059221E0,4.431050427E0,4.821859335E0
1.126117679E1,6.616694614E-2,1.534890016E0,4.747134533E0,4.989544238E0
1.127117879E1,-3.680208296E-2,1.327980735E0,4.923374875E0,5.099461480E0
1.128118179E1,-1.319146469E-2,1.322691051E0,4.808296993E0,4.986923461E0
1.129118379E1,4.334424019E-2,1.570629367E0,4.514712973E0,4.780312601E0
1.130118679E1,-3.577370390E-2,2.093799632E0,4.455511669E0,4.923094646E0
1.131118979E1,-4.147222486E-1,2.305704774E0,5.122616994E0,5.632892145E0
1.132119179E1,-9.832185213E-1,1.942275470E0,6.236452519E0,6.605489587E0
1.133119479E1,-1.515224806E0,1.392186671E0,7.395927901E0,7.676837856E0
1.134119679E1,-1.681653667E0,1.037238754E0,8.398364612E0,8.627650402E0
1.135119979E1,-1.759686514E0,1.074073289E0,8.655004170E0,8.897147140E0
1.136120179E1,-2.143128936E0,1.708976828E0,7.476127142E0,7.962793510E0
1.137120479E1,-2.847627352E0,3.129938525E0,5.633951910E0,7.046056403E0
1.138120779E1,-3.400575147E0,5.464219519E0,4.292712906E0,7.736212922E0
1.139120979E1,-2.710144109E0,7.874069928E0,3.301579447E0,8.958029090E0
1.140121279E1,1.247434024E-1,8.052675469E0,5.282258846E0,9.631375895E0
1.141121479E1,2.733996656E0,6.668710860E0,1.446668512E1,1.616265513E1
1.142121779E1,3.258273506E0,3.941674730E0,2.039654532E1,2.102789117E1
1.143122079E1,2.711598604E0,1.883170061E0,2.119090360E1,2.144652634E1
1.144122279E1,1.252439240E0,1.752774813E0,1.924659096E1,1.936677793E1
1.145122579E1,-3.555051203E-1,2.076683663E0,1.346710127E1,1.363091396E1
1.146122779E1,-1.455534967E0,2.539317704E0,6.574957189E0,7.196997880E0
1.147123079E1,-1.809938216E0,3.026645122E0,1.993010591E0,4.050746629E0
1.148123279E1,-1.891670889E0,2.734222943E0,7.139508784E-1,3.400605786E0
1.149123579E1,-2.269755507E0,1.881520561E0,7.670804340E-1,3.046362105E0
1.150123879E1,-3.009394958E0,8.873670155E-1,1.938995183E-2,3.137555451E0
1.151124079E1,-3.616789395E0,-5.715284926E-1,-2.063985264E0,4.203313635E0
1.152124379E1,-3.988623194E0,-2.613552784E0,-4.626701186E0,6.644255941E0
1.153124579E1,-3.709240306E0,-4.674230863E0,-6.507660415E0,8.829300192E0
1.154124879E1,-2.894094298E0,-6.494025877E0,-7.592272725E0,1.040147869E1
1.155125079E1,-2.200961700E0,-8.087454708E0,-8.414079589E0,1.187635851E1
1.156125379E1,-1.245851036E0,-9.408410890E0,-8.416995596E0,1.268527316E1
1.157125679E1,8.241073050E-2,-1.036549016E1,-7.619852872E0,1.286515976E1
1.158125879E1,1.003998649E0,-1.102201086E1,-6.980680865E0,1.308520699E1
1.159126179E1,1.478471401E0,-1.135333749E1,-6.373205445E0,1.310350707E1
1.160126379E1,1.553826516E0,-1.136717551E1,-5.565807289E0,1.275167701E1
1.161126679E1,1.335481397E0,-1.115738209E1,-5.165848383E0,1.236756545E1
1.162126879E1,1.089528503E0,-1.084273757E1,-5.302039976E0,1.211873171E1
1.163127179E1,1.109617344E0,-1.041990669E1,-6.446303827E0,1.230286711E1
1.164127479E1,1.517726976E0,-9.717600544E0,-8.360679892E0,1.290876539E1
1.165127679E1,1.948543101E0,-8.849259199E0,-1.013285050E1,1.359341267E1
1.166127979E1,2.136634141E0,-8.321314682E0,-1.141545597E1,1.428713122E1
1.167128179E1,2.039484700E0,-8.367410622E0,-1.202444699E1,1.479055049E1
1.168128479E1,1.762929233E0,-8.814455402E0,-1.185232718E1,1.487549001E1
1.169128779E1,1.366693103E0,-9.328276554E0,-1.113125907E1,1.458730688E1
1.170128979E1,8.159170369E-1,-9.932490982E0,-1.016373082E1,1.423451867E1
1.171129279E1,1.659184717E-1,-1.047692406E1,-9.344146482E0,1.403946367E1
1.172129479E1,-3.943982772E-1,-1.036667832E1,-8.748255565E0,1.357039221E1
1.173129779E1,-6.572999834E-1,-9.561192203E0,-8.284169660E0,1.266790853E1
1.174129979E1,-5.067358979E-1,-8.574426030E0,-8.026571159E0,1.175599454E1
1.175130279E1,-7.450863881E-2,-7.500836306E0,-8.030312793E0,1.098881342E1
1.176130579E1,2.756606414E-1,-6.601131080E0,-8.007440239E0,1.038123401E1
1.177130779E1,6.168382743E-1,-6.028767021E0,-7.872198819E0,9.934688495E0
1.178131079E1,8.535437965E-1,-5.779656923E0,-7.465200450E0,9.479566916E0
1.179131279E1,8.627227557E-1,-5.825721872E0,-6.783667120E0,8.983399439E0
1.180131579E1,6.511156757E-1,-6.152201743E0,-6.132121820E0,8.710709266E0
1.181131779E1,3.024371249E-1,-6.626983960E0,-5.677659847E0,8.731792826E0
1.182132079E1,-1.481444254E-1,-7.079178967E0,-5.624342596E0,9.042673899E0
1.183132433E1,-4.620517317E-1,-7.520012249E0,-5.927737659E0,9.586560895E0
1.184132633E1,-4.826062296E-1,-7.788998787E0,-6.413374647E0,1.010112792E1
1.185132933E1,-3.170451690E-1,-7.950314696E0,-7.065653188E0,1.064102798E1
1.186133133E1,-4.588565938E-2,-8.106392670E0,-7.629664500E0,1.113227236E1
1.187133433E1,2.213485778E-1,-8.096833057E0,-7.930400834E0,1.133573809E1
1.188133633E1,5.701612308E-1,-7.962727166E0,-7.733890534E0,1.111499755E1
1.189133933E1,7.970261449E-1,-7.723922786E0,-7.311623915E0,1.066555569E1
1.190134233E1,6.121869239E-1,-7.634310697E0,-6.907588915E0,1.031369271E1
1.191134433E1,2.342922302E-1,-7.837471620E0,-6.717991778E0,1.032532168E1
1.192134733E1,-1.190083802E-1,-8.210771316E0,-6.262892459E0,1.032737869E1
1.193134933E1,-7.620268317E-1,-8.324930016E0,-5.195927630E0,9.842906512E0
1.194135233E1,-1.778394827E0,-7.548530290E0,-3.751395807E0,8.614869018E0
1.195135433E1,-2.717959790E0,-5.759013328E0,-1.258699123E0,6.491368378E0
1.196135733E1,-3.750927445E0,-2.871770505E0,6.160702425E-1,4.764038736E0
1.197136033E1,-4.579795699E0,-1.358887070E-1,1.212511382E0,4.739533547E0
1.198136233E1,-4.543234522E0,2.158365757E0,3.233995575E-1,5.040248995E0
1.199136533E1,-3.784230262E0,5.766493671E0,-5.184720272E-1,6.916766671E0
1.200136733E1,-3.411278476E0,1.059080209E1,4.059102023E-1,1.113403220E1
1.201137033E1,-2.997729178E0,1.334505818E1,2.460070975E0,1.389708269E1
1.202137233E1,-1.952369373E0,1.119593980E1,4.403257442E0,1.218808805E1
1.203137533E1,-3.705841027E-1,6.787622761E0,8.198286341E0,1.064993212E1
1.204137833E1,2.266075270E-1,4.186292996E0,1.351551504E1,1.415081436E1
1.205138033E1,3.297781388E-1,2.746172605E0,1.834671149E1,1.855403029E1
1.206138333E1,4.715970920E-1,1.586377673E0,2.065806321E1,2.072425086E1
1.207138533E1,2.620102251E-1,1.178149927E0,1.926635104E1,1.930411793E1
1.208138833E1,-9.789686188E-2,2.200014597E0,1.598482579E1,1.613580812E1
1.209139033E1,-2.828143260E-1,3.756014231E0,1.350529996E1,1.402072587E1
1.210139333E1,-3.957214290E-1,4.345983087E0,1.176278058E1,1.254620147E1
1.211139633E1,-3.337868437E-1,4.285322610E0,9.940357826E0,1.082987152E1
1.212139833E1,8.594617635E-2,4.154470695E0,8.633027410E0,9.581032082E0
1.213140133E1,6.943567125E-1,3.845396231E0,8.082301556E0,8.977349379E0
1.214140333E1,8.669048305E-1,3.323255368E0,7.746902343E0,8.474080843E0
1.215140633E1,6.119616964E-1,2.553318277E0,7.283881216E0,7.742664716E0
1.216140833E1,4.347289355E-1,1.824638847E0,6.125400445E0,6.406155383E0
1.217141133E1,2.867778611E-1,1.526263034E0,4.838064584E0,5.081199593E0
1.218141433E1,1.463394356E-1,1.751436970E0,4.278380211E0,4.625309062E0
1.219141633E1,1.680033696E-1,1.945273046E0,4.537155172E0,4.939442216E0
1.220141933E1,1.619057469E-1,1.907466119E0,4.762543116E0,5.132880029E0
1.221142133E1,1.089834751E-1,1.680590351E0,4.504207866E0,4.808757617E0
1.222142433E1,1.244341578E-1,1.120576195E0,4.031645252E0,4.186327544E0
1.223142633E1,1.647695670E-1,5.065744051E-1,3.688901936E0,3.727165697E0
1.224142933E1,2.903253669E-1,1.437847871E-1,3.430159720E0,3.445425748E0
1.225143233E1,4.795427272E-1,1.030954751E-1,2.850425829E0,2.892320403E0
1.226143433E1,8.224028416E-1,4.023048091E-1,1.834036492E0,2.049850104E0
1.227143733E1,9.087938449E-1,1.008547344E0,8.218700141E-1,1.586992223E0
1.228143933E1,7.809854051E-1,1.483658466E0,5.612333000E-2,1.677596637E0
1.229144233E1,6.258733919E-1,1.600777026E0,-2.267450827E-1,1.733671804E0
1.230144433E1,2.756849621E-1,1.465811302E0,3.733230847E-1,1.537522389E0
1.231144733E1,-2.233013651E-1,1.017505863E0,1.508686303E0,1.833389223E0
1.232145033E1,-7.884992234E-1,3.667130998E-1,2.598883290E0,2.740511609E0
1.233145233E1,-1.336883121E0,1.159619808E-2,3.030320681E0,3.312134415E0
1.234145533E1,-1.523109484E0,-2.961965561E-2,2.830148855E0,3.214106776E0
1.235145733E1,-1.387045799E0,2.194989207E-1,2.182968501E0,2.595655467E0
1.236146033E1,-1.224210491E0,6.170780101E-1,1.570681407E0,2.084830132E0
1.237146333E1,-1.077569339E0,8.481792685E-1,1.296212520E0,1.886989838E0
1.238146533E1,-7.054956584E-1,9.288126647E-1,1.299950645E0,1.746507592E0
1.239146833E1,-3.306989291E-1,9.514785191E-1,1.771570687E0,2.037924399E0
1.240147033E1,-2.468083414E-1,5.997778532E-1,2.673852196E0,2.751387540E0
1.241147333E1,-3.532430153E-1,-1.821732196E-1,3.663037947E0,3.684537245E0
1.242147533E1,-5.441983142E-1,-7.214227429E-1,4.461045474E0,4.551651272E0
1.243147833E1,-6.696419938E-1,-7.405425534E-1,4.417327012E0,4.528752765E0
1.244148133E1,-4.495020720E-1,-3.515401599E-1,3.305020534E0,3.353922081E0
1.245148333E1,-6.026403576E-2,4.063171685E-1,2.150631060E0,2.189506646E0
1.246148633E1,5.828036785E-2,1.294313637E0,1.838662809E0,2.249294404E0
1.247148833E1,-8.583478689E-2,1.990971667E0,2.358312466E0,3.087551372E0
1.248149133E1,-3.008063547E-1,2.281409008E0,3.711651698E0,4.367112301E0
1.249149333E1,-5.586779206E-1,2.650893396E0,5.955124263E0,6.542389610E0
1.250149633E1,-9.873988420E-1,3.578092229E0,7.819469798E0,8.655738466E0
1.251149933E1,-9.225957589E-1,4.254731440E0,9.095500068E0,1.008375149E1
1.252150133E1,-3.588883558E-1,4.032231728E0,1.013469822E1,1.091328556E1
1.253150433E1,6.240294725E-2,3.535770667E0,1.132884233E1,1.186794999E1
1.254150633E1,2.895897871E-1,3.395395391E0,1.269713757E1,1.314647765E1
1.255150933E1,2.932385959E-1,3.239412143E0,1.325204769E1,1.364538559E1
1.256151133E1,-1.003200942E-1,2.812036227E0,1.252811562E1,1.284022168E1
1.257151433E1,-4.521036445E-1,2.448744333E0,1.120062693E1,1.147409212E1
1.258151733E1,-6.548163785E-1,2.389218801E0,9.365248498E0,9.687364472E0
1.259151933E1,-1.080016838E0,2.357607291E0,7.724053178E0,8.147744842E0
1.260152233E1,-1.514784803E0,2.167378655E0,6.520558203E0,7.036318818E0
1.261152433E1,-1.718880842E0,2.307064544E0,5.536114544E0,6.239043388E0
1.262152733E1,-9.351644951E-1,3.101595317E0,5.027842399E0,5.981105695E0
1.263152933E1,1.102914973E-1,4.038797566E0,4.394446272E0,5.969523267E0
1.264153233E1,1.152629462E-1,3.927746662E0,3.571673448E0,5.310115875E0
1.265153533E1,-2.388686997E-1,3.177329038E0,2.880396903E0,4.295249049E0
1.266153733E1,-7.691722754E-1,2.498099511E0,1.856137213E0,3.205834137E0
1.267154033E1,-1.203173963E0,2.143693339E0,6.168210250E-1,2.534465800E0
1.268154233E1,-7.924955030E-1,2.495579361E0,-4.367402315E-1,2.654563524E0
1.269154533E1,5.556502323E-1,3.543985713E0,-1.306376735E0,3.817748300E0
1.270154833E1,1.448307078E0,4.415305045E0,-2.540533925E0,5.295925288E0
1.271155033E1,1.836990505E0,4.178198111E0,-3.856940389E0,5.975605637E0
1.272155333E1,1.251873376E0,3.307412630E0,-5.153977366E0,6.250571809E0
1.273155533E1,-9.689421058E-2,1.595558971E0,-6.236888137E0,6.438475794E0
1.274155833E1,-1.192866784E0,-9.726211739E-1,-6.874943326E0,7.045123763E0
1.275156033E1,-1.396130326E0,-3.092295320E0,-7.113124977E0,7.880863987E0
1.276156333E1,-6.262148693E-1,-4.397980914E0,-6.874458007E0,8.184897927E0
1.277156633E1,6.970480397E-1,-5.588456479E0,-6.514473590E0,8.611334853E0
1.278156833E1,2.354029672E0,-7.033763058E0,-6.019393349E0,9.552401517E0
1.279157133E1,4.157357757E0,-8.099212289E0,-5.508874120E0,1.064089081E1
1.280157333E1,5.714492043E0,-8.549687630E0,-4.848114193E0,1.136911558E1
1.281157633E1,6.786630489E0,-8.512556641E0,-3.756154271E0,1.151653893E1
1.282157833E1,7.076496849E0,-8.232334678E0,-3.202370909E0,1.131827378E1
1.283158067E1,6.495390617E0,-7.722244050E0,-3.824501206E0,1.079119835E1
1.284158367E1,5.647743738E0,-7.522690859E0,-5.625880414E0,1.096076720E1
1.285158567E1,4.919285917E0,-7.600165882E0,-8.152354124E0,1.218288854E1
1.286158867E1,4.147500229E0,-7.382465272E0,-1.051580805E1,1.350128773E1
1.287159067E1,3.450942478E0,-6.730610654E0,-1.100812606E1,1.335623312E1
1.288159367E1,3.120399377E0,-6.272417573E0,-9.952272112E0,1.217077790E1
1.289159567E1,3.198166176E0,-6.163124927E0,-8.445061061E0,1.093304313E1
1.290159867E1,3.677595760E0,-5.983068691E0,-7.528721677E0,1.029579874E1
1.291160167E1,4.355671046E0,-5.670270721E0,-7.010549612E0,1.001357310E1
1.292160367E1,4.632794862E0,-5.201628665E0,-7.052960637E0,9.912819112E0
1.293160667E1,4.174460278E0,-4.942522752E0,-7.660227311E0,1.002665110E1
1.294160867E1,3.538524998E0,-5.133640750E0,-8.300710849E0,1.038158115E1
1.295161167E1,2.809648809E0,-5.237436429E0,-9.615284210E0,1.130391778E1
1.296161367E1,1.736862492E0,-5.367869099E0,-1.121491050E1,1.255408012E1
1.297161667E1,1.079716729E0,-5.466172489E0,-1.178240851E1,1.303341783E1
1.298161967E1,1.129877069E0,-5.266662567E0,-1.114726056E1,1.238045939E1
1.299162167E1,1.776857740E0,-5.072944313E0,-9.869407711E0,1.123820253E1
1.300162467E1,2.900086524E0,-4.780309296E0,-8.520416468E0,1.019114104E1
1.301162667E1,3.742313912E0,-4.278139890E0,-7.721962214E0,9.588331178E0
1.302162967E1,4.162622298E0,-4.086309702E0,-7.461582193E0,9.471037968E0
1.303163267E1,4.009084940E0,-4.498914966E0,-7.775444357E0,9.837201476E0
1.304163467E1,3.549278904E0,-5.166799725E0,-8.458359384E0,1.052791734E1
1.305163767E1,3.095784646E0,-5.884722033E0,-8.949546549E0,1.114935960E1
1.306163967E1,2.918868658E0,-6.468691646E0,-8.959077510E0,1.142929725E1
1.307164267E1,3.099515462E0,-6.453740315E0,-8.779744576E0,1.132879848E1
1.308164467E1,3.318510645E0,-6.026460879E0,-8.535482404E0,1.096290124E1
1.309164767E1,3.454520097E0,-5.782766472E0,-8.014793698E0,1.046952794E1
1.310165067E1,3.359239426E0,-5.620707382E0,-7.499051151E0,9.955531586E0
1.311165267E1,2.924907370E0,-5.151418625E0,-7.448693175E0,9.517101817E0
1.312165567E1,2.357341243E0,-4.661426631E0,-7.825283684E0,9.408561033E0
1.313165767E1,1.677497758E0,-4.125190762E0,-8.031422009E0,9.183405526E0
1.314166067E1,1.109241368E0,-3.498335330E0,-8.082848856E0,8.877004682E0
1.315166267E1,4.182337940E-2,-3.338969468E0,-7.955999944E0,8.628348707E0
1.316166567E1,-8.035287604E-1,-2.906942092E0,-6.964864147E0,7.589815767E0
1.317166867E1,-1.246222627E0,-1.398041781E0,-5.366476877E0,5.683895296E0
1.318167067E1,-1.379619835E0,5.060466939E-1,-3.480345787E0,3.777861954E0
1.319167367E1,-8.337565264E-1,1.892099928E0,2.260415457E0,3.063440896E0
1.320167567E1,-3.637095313E-1,3.290782271E0,9.085843976E0,9.670268525E0
1.321167867E1,-6.714009824E-1,4.114332190E0,1.190320029E1,1.261208491E1
1.322168167E1,-1.314311407E0,4.814897038E0,1.166988937E1,1.269239796E1
1.323168367E1,-1.820125674E0,5.805551317E0,1.001497064E1,1.171823026E1
1.324168667E1,-2.397761583E0,6.254250274E0,7.213148033E0,9.843495906E0
1.325168867E1,-3.370893511E0,5.500005648E0,4.357944444E0,7.784899805E0
1.326169167E1,-4.475553001E0,4.561035785E0,3.738508544E0,7.403382215E0
1.327169367E1,-5.159516433E0,3.738670219E0,5.788071651E0,8.608137910E0
1.328169667E1,-5.324843532E0,3.087823662E0,8.245690303E0,1.028980185E1
1.329169967E1,-5.423279654E0,2.845329104E0,9.919473910E0,1.165777949E1
1.330170167E1,-5.433422234E0,3.045209447E0,1.068488263E1,1.236778454E1
1.331170467E1,-5.287390947E0,3.445373882E0,1.088676476E1,1.258367002E1
1.332170667E1,-4.622269289E0,3.894790000E0,1.048832029E1,1.210535522E1
1.333170967E1,-3.901302629E0,3.980438553E0,9.928595567E0,1.138600295E1
1.334171167E1,-3.524834035E0,3.240191284E0,1.033995420E1,1.139464556E1
1.335171467E1,-3.235393352E0,2.127492458E0,1.125547147E1,1.190292537E1
1.336171767E1,-2.852047262E0,1.454906538E0,1.140003686E1,1.184110498E1
1.337171967E1,-2.295912150E0,1.404472841E0,1.061928973E1,1.095504774E1
1.338172267E1,-2.020721131E0,1.504540920E0,8.673687778E0,9.032154612E0
1.339172467E1,-1.942847621E0,1.624614955E0,6.145301444E0,6.646710500E0
1.340172767E1,-1.617304766E0,2.092802390E0,3.690696446E0,4.540565692E0
1.341173067E1,-8.819130251E-1,3.008886835E0,2.259568196E0,3.864818107E0
1.342173267E1,-9.836858600E-2,3.816197575E0,1.891843820E0,4.260529703E0
1.343173567E1,6.206974366E-1,4.032403636E0,1.863483655E0,4.485322254E0
1.344173767E1,1.206093186E0,4.166472105E0,2.280701787E0,4.900586824E0
1.345174067E1,1.523117524E0,4.123914023E0,3.285752204E0,5.488417022E0
1.346174367E1,1.138967735E0,3.672592590E0,4.021105646E0,5.563674545E0
1.347174567E1,-3.851619422E-2,2.834598001E0,3.045541568E0,4.160739450E0
1.348174867E1,-1.292478780E0,1.922860376E0,1.461733747E0,2.739445011E0
1.349175067E1,-2.189424412E0,1.206625867E0,7.760126406E-1,2.617579198E0
1.350175367E1,-2.708787263E0,6.261227757E-1,1.138155264E0,3.004156383E0
1.351175567E1,-3.032406383E0,1.272257647E-1,2.451551582E0,3.901509967E0
1.352175867E1,-2.974620690E0,-6.788266540E-2,4.125146323E0,5.086237165E0
1.353176167E1,-2.412338984E0,-1.461534941E-1,5.405053298E0,5.920755135E0
1.354176367E1,-1.887227736E0,-1.557562302E-1,5.689831411E0,5.996671578E0
1.355176667E1,-1.458904864E0,-5.433203548E-2,5.001209502E0,5.209937797E0
1.356176867E1,-1.166740255E0,2.981849018E-1,3.673709115E0,3.866049110E0
1.357177167E1,-1.209651801E0,7.761159901E-1,2.668707231E0,3.031107354E0
1.358177367E1,-1.285765300E0,1.092065464E0,2.424876584E0,2.953950885E0
1.359177667E1,-1.145752552E0,1.134555426E0,3.292794591E0,3.666396206E0
1.360177967E1,-8.718876815E-1,1.030089802E0,4.902169948E0,5.084539637E0
1.361178167E1,-3.085303804E-1,9.570393674E-1,6.966918858E0,7.039110294E0
1.362178467E1,3.382813060E-1,1.156551920E0,8.663168637E0,8.746572896E0
1.363178667E1,4.865392131E-1,1.471223485E0,8.326823929E0,8.469782506E0
1.364178967E1,4.242973566E-2,1.576259359E0,6.298611345E0,6.492988428E0
1.365179267E1,-6.682537186E-1,1.599042158E0,5.231150088E0,5.510755855E0
1.366179467E1,-1.320718493E0,1.768466693E0,5.302764446E0,5.743786430E0
1.367179767E1,-1.518728896E0,1.631333991E0,6.750905170E0,7.109325472E0
1.368179967E1,-1.601534533E0,1.076982571E0,9.123097172E0,9.325004361E0
1.369180267E1,-2.013773177E0,2.743805945E-1,1.085864784E1,1.104720779E1
1.370180467E1,-2.658578099E0,-7.037226364E-1,1.092888460E1,1.126959545E1
1.371180767E1,-3.706932702E0,-1.134993675E0,9.304832727E0,1.008015242E1
1.372181067E1,-4.178378790E0,-4.193821871E-1,7.058997302E0,8.213657750E0
1.373181267E1,-3.421264058E0,1.421159625E0,5.070832883E0,6.279975204E0
1.374181567E1,-2.974363120E0,3.476334012E0,3.943113145E0,6.039857234E0
1.375181767E1,-2.969816033E0,4.691714331E0,4.449548678E0,7.115509403E0
1.376182067E1,-3.609725958E0,4.198293822E0,6.221544458E0,8.328469725E0
1.377182367E1,-4.798494721E0,2.967862186E0,7.816366096E0,9.639986332E0
1.378182567E1,-5.797674533E0,2.655345173E0,8.632690026E0,1.073253116E1
1.379182867E1,-5.807807758E0,3.048893485E0,8.721615066E0,1.091297172E1
1.380183067E1,-5.371478586E0,3.324577131E0,9.089237700E0,1.106886793E1
1.381183367E1,-4.855884850E0,3.259704320E0,9.517543323E0,1.117089615E1
1.382183567E1,-3.996502609E0,3.227841673E0,9.338354815E0,1.065813612E1
1.383183929E1,-2.720963797E0,3.276222704E0,8.486776852E0,9.495402073E0
1.384184229E1,-1.391672409E0,2.951090909E0,6.824094184E0,7.563990420E0
1.385184429E1,-4.017233035E-1,1.782688875E0,4.326902745E0,4.696961636E0
1.386184729E1,4.113910899E-1,5.191742778E-2,1.377763052E0,1.438808214E0
1.387184929E1,1.472126295E0,-1.891847913E0,-1.672659187E0,2.923017809E0
1.388185229E1,2.723226377E0,-3.849326144E0,-4.138891373E0,6.274049368E0
1.389185529E1,3.570954825E0,-5.854237574E0,-5.958424432E0,9.084417298E0
1.390185729E1,3.881505711E0,-7.739193959E0,-7.477109474E0,1.143977167E1
1.391186029E1,4.719390956E0,-9.299791843E0,-8.064572214E0,1.318317505E1
1.392186229E1,5.839045338E0,-9.988725994E0,-7.456257718E0,1.376462410E1
1.393186529E1,6.744690750E0,-9.966329988E0,-6.683914790E0,1.376565667E1
1.394186729E1,7.069722850E0,-9.639275336E0,-6.986994689E0,1.384610794E1
1.395187029E1,6.605339906E0,-9.478672788E0,-8.247148014E0,1.419475972E1
1.396187329E1,6.049542178E0,-9.325552921E0,-9.758983043E0,1.479191157E1
1.397187529E1,5.806885067E0,-9.036130949E0,-1.179001574E1,1.594917076E1
1.398187829E1,6.269165937E0,-8.674657246E0,-1.375678753E1,1.742989739E1
1.399188029E1,6.613507297E0,-8.609660767E0,-1.460813629E1,1.820061491E1
1.400188329E1,6.856261472E0,-9.214651705E0,-1.381255243E1,1.796398430E1
1.401188629E1,6.817874501E0,-9.967266712E0,-1.225728662E1,1.720671072E1
1.402188829E1,6.530986712E0,-1.051952571E1,-1.086845596E1,1.647536171E1
1.403189129E1,6.160728738E0,-1.069793244E1,-9.942573920E0,1.585102878E1
1.404189329E1,5.707719798E0,-1.035571596E1,-9.832888341E0,1.537870643E1
1.405189629E1,5.238416423E0,-9.436185164E0,-1.010875998E1,1.478748205E1
1.406189929E1,4.719286291E0,-8.204984327E0,-1.038813175E1,1.405370813E1
1.407190129E1,3.986985388E0,-7.119004937E0,-1.076477781E1,1.350765432E1
1.408190429E1,3.306286164E0,-6.274997365E0,-1.101160983E1,1.309819343E1
1.409190629E1,2.597407745E0,-5.550909169E0,-1.084252590E1,1.245469740E1
1.410190929E1,2.274613374E0,-5.294942041E0,-1.020178567E1,1.171694107E1
1.411191129E1,2.469821499E0,-5.492517704E0,-9.030994170E0,1.085479731E1
1.412191429E1,2.812722398E0,-5.747468585E0,-7.811203004E0,1.009750934E1
1.413191729E1,3.063988072E0,-5.694446034E0,-6.698365599E0,9.310361982E0
1.414191929E1,3.136703753E0,-5.831619959E0,-6.005714373E0,8.939536169E0
1.415192229E1,3.362631103E0,-6.124014071E0,-5.507830392E0,8.896461763E0
1.416192429E1,3.883547559E0,-6.367060606E0,-5.314631370E0,9.157876883E0
1.417192729E1,4.347574992E0,-6.582124121E0,-5.296378702E0,9.501441659E0
1.418193029E1,4.747549393E0,-6.843544947E0,-5.222471650E0,9.830948215E0
1.419193229E1,5.045627291E0,-6.994254591E0,-4.828386272E0,9.883889216E0
1.420193529E1,5.054447815E0,-7.013019476E0,-4.472957422E0,9.733305347E0
1.421193729E1,5.044349674E0,-7.124585520E0,-4.588892505E0,9.862206492E0
1.422194029E1,4.723213866E0,-7.249140569E0,-4.677361463E0,9.835471441E0
1.423194229E1,4.629360500E0,-7.152407742E0,-5.511470869E0,1.014712897E1
1.424194529E1,4.808068075E0,-6.787988212E0,-7.041353329E0,1.089839251E1
1.425194829E1,4.792277084E0,-6.305761905E0,-8.156660013E0,1.136924164E1
1.426195029E1,4.221237127E0,-5.677304336E0,-9.397888241E0,1.176311739E1
1.427195329E1,2.978470204E0,-4.226985524E0,-9.341547394E0,1.067722806E1
1.428195529E1,1.487086981E0,-2.035329815E0,-7.571089432E0,7.979686105E0
1.429195829E1,-3.076170453E-1,-3.462487221E-2,-7.089725590E0,7.096480541E0
1.430196029E1,-1.908733795E0,1.951850286E0,-7.328966172E0,7.820916148E0
1.431196329E1,-3.156407993E0,4.198201436E0,-7.844087745E0,9.440207586E0
1.432196629E1,-3.554872936E0,6.135864038E0,-7.877744903E0,1.059928365E1
1.433196829E1,-2.869289239E0,6.916654438E0,-5.339262766E0,9.196774230E0
1.434197129E1,-1.359091138E0,5.896250403E0,-5.116167516E-1,6.072450019E0
1.435197329E1,-1.350741899E-1,2.747294101E0,4.699415406E0,5.445215797E0
1.436197629E1,1.532202343E0,-1.537139440E-1,1.049432888E1,1.060670593E1
1.437197929E1,2.519830104E0,-2.145805353E-1,1.618663893E1,1.638300548E1
1.438198129E1,1.173695080E0,6.007511222E-1,1.918154303E1,1.922680563E1
1.439198429E1,-6.140766343E-1,3.262968528E-1,2.000374575E1,2.001582883E1
1.440198629E1,-1.529280197E0,-1.263732406E-1,1.995140147E1,2.001032456E1
1.441198929E1,-1.634096508E0,7.153278977E-2,1.951538396E1,1.958380962E1
1.442199129E1,-1.096951690E0,3.299270967E-1,1.887195635E1,1.890668906E1
1.443199429E1,-2.488760631E-1,6.109450118E-1,1.743088198E1,1.744336091E1
1.444199729E1,6.471096752E-1,1.114499184E0,1.512900392E1,1.518379462E1
1.445199929E1,1.543803804E0,1.567343963E0,1.270436590E1,1.289344059E1
1.446200229E1,1.714323961E0,1.750240483E0,1.026780892E1,1.055604795E1
1.447200429E1,1.215061645E0,1.544104497E0,7.518276796E0,7.770786284E0
1.448200729E1,1.663256572E-1,1.229483656E0,4.759458125E0,4.918509523E0
1.449201029E1,-1.350372794E0,1.140606636E0,3.630726818E0,4.038151484E0
1.450201229E1,-2.794260984E0,8.089413817E-1,2.462142643E0,3.811092626E0
1.451201529E1,-3.112252744E0,2.136976057E-1,2.514164736E0,4.006595579E0
1.452201729E1,-2.611312131E0,2.298940276E-1,4.123252995E0,4.886002208E0
1.453202029E1,-2.085535324E0,5.427774408E-1,5.055539491E0,5.495684168E0
1.454202229E1,-1.615650881E0,4.019039094E-1,5.016271344E0,5.285341306E0
1.455202529E1,-9.729828241E-1,2.237765244E-1,4.445701210E0,4.556427412E0
1.456202829E1,2.512190424E-2,4.389242031E-1,4.000595952E0,4.024680551E0
1.457203029E1,9.616606412E-1,1.089211950E0,3.643592446E0,3.922618994E0
1.458203329E1,1.375579409E0,1.643573529E0,3.092202349E0,3.762348738E0
1.459203529E1,1.325634540E0,1.754322863E0,3.091494836E0,3.793717960E0
1.460203829E1,7.612544876E-1,1.417609488E0,3.794883304E0,4.121924835E0
1.461204129E1,-7.210194312E-2,6.931508705E-1,4.959715320E0,5.008436171E0
1.462204329E1,-7.006176187E-1,1.643549628E-1,6.063117074E0,6.105674922E0
1.463204629E1,-8.115588147E-1,1.851600139E-1,6.317985510E0,6.372586040E0
1.464204829E1,-3.524042687E-1,4.059156109E-1,5.545504003E0,5.571496289E0
1.465205129E1,3.774805647E-1,7.436310527E-1,4.167049225E0,4.249679748E0
1.466205329E1,8.619411291E-1,1.318719915E0,2.798638210E0,3.211594706E0
1.467205629E1,9.547902359E-1,1.748321281E0,1.561242247E0,2.530954178E0
1.468205929E1,6.638887721E-1,1.821207847E0,6.968512809E-1,2.059890296E0
1.469206129E1,1.255213013E-1,1.514521971E0,6.391866249E-1,1.648663683E0
1.470206429E1,-4.447285879E-1,9.751693904E-1,1.317740799E0,1.698581664E0
1.471206629E1,-1.050357275E0,5.139768340E-1,1.965435707E0,2.286998056E0
1.472206929E1,-1.486988163E0,3.440732655E-1,2.502225307E0,2.930981354E0
1.473207129E1,-1.572085909E0,4.470205503E-1,2.820077611E0,3.259466092E0
1.474207429E1,-1.490754063E0,7.514811590E-1,2.655959131E0,3.137067183E0
1.475207729E1,-1.099653761E0,1.135833189E0,2.062102461E0,2.598388344E0
1.476207929E1,-5.883740650E-1,1.474829171E0,1.099350802E0,1.931289028E0
1.477208229E1,-4.277698353E-1,1.562724224E0,5.693451422E-1,1.717337452E0
1.478208429E1,-4.115063166E-1,1.469012361E0,1.597894349E0,2.209208255E0
1.479208729E1,-4.844879733E-1,1.272479549E0,3.942480476E0,4.170981312E0
1.480209029E1,-6.662109938E-1,8.412435937E-1,6.228409089E0,6.320174654E0
1.481209229E1,-8.510026697E-1,3.016078618E-1,7.202121938E0,7.258493870E0
1.482209529E1,-1.001666121E0,2.892668746E-2,6.832739877E0,6.905831304E0
1.483209642E1,-1.124094830E0,4.571353197E-3,5.549033382E0,5.661747218E0
1.484209942E1,-1.008778017E0,2.350734913E-1,4.396283467E0,4.516658163E0
1.485210142E1,-1.053266411E0,7.162540966E-1,3.818696675E0,4.025522867E0
1.486210442E1,-1.141406755E0,8.082183735E-1,4.701215764E0,4.904840056E0
1.487210742E1,-1.162235560E0,2.825472544E-1,6.509261967E0,6.618241141E0
1.488210942E1,-1.270756228E0,-3.666875182E-1,7.129984839E0,7.251618091E0
1.489211242E1,-1.499530149E0,-7.789764480E-1,6.361432661E0,6.582037714E0
1.490211442E1,-1.832393571E0,-7.712395585E-1,5.350779442E0,5.708179858E0
1.491211742E1,-2.042524521E0,-2.971383964E-1,4.599889948E0,5.041744260E0
1.492211942E1,-2.383921516E0,7.868168333E-1,4.503620805E0,5.156041396E0
1.493212242E1,-2.814611341E0,2.124401912E0,4.504037712E0,5.720268892E0
1.494212542E1,-3.079290528E0,2.739823699E0,5.728625348E0,7.057323319E0
1.495212742E1,-2.824727024E0,1.989896364E0,8.524032971E0,9.197712128E0
1.496213042E1,-2.489599414E0,8.115973333E-1,1.085766434E1,1.116896013E1
1.497213242E1,-1.872261349E0,2.007039231E-1,1.201546800E1,1.216211807E1
1.498213542E1,-1.110473522E0,2.080714148E-1,1.187729713E1,1.193091079E1
1.499213742E1,-3.049536386E-1,9.850120085E-1,1.079497166E1,1.084410709E1
1.500214042E1,1.012867852E-1,1.906829942E0,9.769640179E0,9.954502934E0
1.501214342E1,2.027153653E-1,2.330970300E0,9.115724418E0,9.411213934E0
1.502214542E1,2.853938252E-1,2.688649160E0,8.946035296E0,9.345685178E0
1.503214842E1,3.291326793E-1,2.973866399E0,8.695692605E0,9.196046953E0
1.504215042E1,3.121431557E-1,3.001852342E0,7.264723399E0,7.866686526E0
1.505215342E1,1.219275880E0,2.670804919E0,5.930399312E0,6.617361150E0
1.506215642E1,2.422261124E0,2.132496505E0,5.195882022E0,6.116541530E0
1.507215842E1,3.085761057E0,1.331588175E0,4.014817550E0,5.235819738E0
1.508216142E1,3.395988007E0,4.127730793E-1,2.438164966E0,4.200924250E0
1.509216342E1,3.387997494E0,-6.761954069E-1,6.112872201E-1,3.508481055E0
1.510216642E1,3.037760094E0,-1.850930852E0,-1.272828920E0,3.778098049E0
1.511216842E1,2.486600085E0,-3.104134178E0,-3.154578692E0,5.076435334E0
1.512217142E1,1.623333538E0,-4.479936658E0,-4.961709806E0,6.879215684E0
1.513217442E1,9.346606113E-1,-5.505738258E0,-6.502521881E0,8.571437163E0
1.514217642E1,1.138423798E0,-6.093336654E0,-7.400436105E0,9.653559699E0
1.515217942E1,1.875678462E0,-6.971956235E0,-8.119246019E0,1.086501263E1
1.516218142E1,3.017779866E0,-7.773123597E0,-8.401157827E0,1.183671824E1
1.517218442E1,4.471284241E0,-8.197311026E0,-7.950649742E0,1.226381352E1
1.518218642E1,4.948759392E0,-8.147606184E0,-7.347090202E0,1.203550749E1
1.519218942E1,4.468096046E0,-8.356203849E0,-6.884413476E0,1.171260748E1
1.520219242E1,3.674918320E0,-9.077764294E0,-6.507532361E0,1.175835051E1
1.521219442E1,2.923138587E0,-9.083920242E0,-6.687973927E0,1.165295419E1
1.522219742E1,2.018468199E0,-8.835885447E0,-8.221856468E0,1.223707519E1
1.523219942E1,1.044072687E0,-9.476207601E0,-1.083598871E1,1.443285314E1
1.524220242E1,3.843566345E-1,-1.026624537E1,-1.291126144E1,1.649982412E1
1.525220442E1,-2.623198351E-1,-1.052577053E1,-1.450140004E1,1.792069363E1
1.526220742E1,-6.968704306E-1,-1.056452120E1,-1.496727578E1,1.833341433E1
1.527221042E1,-5.815140751E-1,-1.063390192E1,-1.402300776E1,1.760859947E1
1.528221242E1,-4.903722091E-1,-1.061000084E1,-1.274906085E1,1.659370770E1
1.529221542E1,-6.510349841E-1,-1.060516520E1,-1.248698163E1,1.639567277E1
1.530221742E1,-7.544057170E-1,-1.040421978E1,-1.279017847E1,1.650471395E1
1.531222042E1,-7.882628497E-1,-1.001640671E1,-1.310345357E1,1.651212455E1
1.532222242E1,-7.532611245E-1,-9.595724689E0,-1.364650320E1,1.669947257E1
1.533222542E1,-5.241888499E-1,-9.003346780E0,-1.392813083E1,1.659300623E1
1.534222842E1,-8.141765401E-2,-8.294733825E0,-1.354356999E1,1.588198747E1
1.535223042E1,5.604560588E-1,-7.628730699E0,-1.233458447E1,1.451391116E1
1.536223342E1,1.262465607E0,-7.210740150E0,-1.078074656E1,1.303123514E1
1.537223542E1,1.925910576E0,-7.109860477E0,-9.588375324E0,1.209116160E1
1.538223842E1,2.474213635E0,-7.100790276E0,-8.334931093E0,1.122559718E1
1.539224142E1,2.689344978E0,-7.069980127E0,-7.168619732E0,1.042143485E1
1.540224342E1,2.540528662E0,-6.897529950E0,-6.534404994E0,9.835072645E0
1.541224642E1,2.215284601E0,-6.757777988E0,-6.894150259E0,9.904764358E0
1.542224842E1,1.829827520E0,-6.720986137E0,-7.940937517E0,1.056306831E1
1.543225142E1,1.449789785E0,-6.784940059E0,-9.048498394E0,1.140230789E1
1.544225342E1,1.149850280E0,-6.838820397E0,-1.042931369E1,1.252446423E1
1.545225642E1,1.458741726E0,-6.692911901E0,-1.041755377E1,1.246789572E1
1.546225942E1,1.898133962E0,-5.951924082E0,-8.341537862E0,1.042159137E1
1.547226142E1,1.687148003E0,-4.850972312E0,-6.398224511E0,8.204613193E0
1.548226442E1,4.963667746E-1,-3.922316353E0,-5.122591851E0,6.470849467E0
1.549226642E1,-1.188265171E0,-3.435143301E0,-3.716439983E0,5.198471868E0
1.550226942E1,-2.243073201E0,-2.878794765E0,-2.699661221E0,4.539494178E0
1.551227142E1,-2.069135492E0,-1.744697469E0,-2.936169400E0,3.993292086E0
1.552227442E1,-5.350126674E-1,-3.224517238E-1,-3.207345135E0,3.267610210E0
1.553227742E1,1.660033441E0,1.227938091E0,-1.437723910E0,2.516066975E0
1.554227942E1,3.036905523E0,2.917964678E0,2.366879221E0,4.831089967E0
1.555228242E1,3.249786273E0,4.522688575E0,6.166770666E0,8.309325076E0
1.556228442E1,3.916548367E0,4.616823777E0,8.997449863E0,1.084474605E1
1.557228742E1,5.106293907E0,3.684350171E0,1.113537317E1,1.279238872E1
1.558228942E1,5.768953595E0,3.646742049E0,1.292576838E1,1.461694364E1
1.559229242E1,5.901424019E0,4.434986480E0,1.495154794E1,1.667467230E1
1.560229542E1,5.707567770E0,4.706729396E0,1.668340551E1,1.825008632E1
1.561229742E1,4.997726315E0,4.296927871E0,1.684883844E1,1.809210364E1
1.562230042E1,3.601367071E0,3.618897901E0,1.570625742E1,1.651522900E1
1.563230242E1,2.179890381E0,2.479084366E0,1.443264030E1,1.480536684E1
1.564230542E1,1.980569909E0,1.412514809E0,1.375237406E1,1.396587439E1
1.565230742E1,2.490177119E0,1.213690766E0,1.303608312E1,1.332717114E1
1.566231042E1,2.432842246E0,1.308727608E0,1.176484465E1,1.208482763E1
1.567231342E1,1.939725500E0,1.103367986E0,1.039666869E1,1.063346960E1
1.568231542E1,1.193537021E0,6.241582574E-1,9.932645348E0,1.002354966E1
1.569231842E1,4.526950903E-1,2.115363286E-1,9.313800602E0,9.327194761E0
1.570232042E1,-1.718476215E-1,9.665549800E-2,7.545021375E0,7.547597064E0
1.571232342E1,-6.262479061E-1,1.614908870E-1,4.830494778E0,4.873596777E0
1.572232542E1,-7.139213499E-1,6.123569682E-1,2.325122500E0,2.508158566E0
1.573232842E1,-7.369158179E-1,1.265400471E0,8.703861165E-1,1.703483274E0
1.574233142E1,-7.581872575E-1,1.636617681E0,2.453304577E-1,1.820316562E0
1.575233342E1,-4.548397028E-1,1.665881387E0,7.351745170E-1,1.876838172E0
1.576233642E1,1.365700538E-1,1.432168616E0,2.008208089E0,2.470355856E0
1.577233842E1,3.738667296E-1,1.040095996E0,3.647291980E0,3.811077905E0
1.578234142E1,5.055926576E-2,5.095078070E-1,4.545015584E0,4.573764434E0
1.579234342E1,-4.462564288E-1,1.733684823E-2,4.273239924E0,4.296513099E0
1.580234642E1,-8.368878566E-1,-1.314009690E-1,3.139708638E0,3.251986751E0
1.581234942E1,-1.105268038E0,2.433685707E-1,1.892678218E0,2.205238430E0
1.582235142E1,-1.163768115E0,6.083399311E-1,1.010587730E0,1.657021804E0
1.583235496E1,-6.390670493E-1,8.746898134E-1,4.571867752E-1,1.175801306E0
1.584235696E1,4.756766944E-1,1.178988272E0,8.873553210E-1,1.550380962E0
1.585235996E1,1.446573671E0,1.470606458E0,2.042660469E0,2.903053656E0
1.586236196E1,2.069719629E0,1.513575891E0,3.470111990E0,4.314664360E0
1.587236496E1,2.020354949E0,1.320019751E0,4.654869563E0,5.243290657E0
1.588236796E1,1.275460605E0,7.801741040E-1,4.650705761E0,4.885134129E0
1.589236996E1,3.960580824E-1,3.451798511E-1,3.800061014E0,3.836205787E0
1.590237296E1,-2.516900356E-1,4.028502081E-1,2.865093570E0,2.904203390E0
1.591237496E1,-6.181053659E-1,6.099604869E-1,2.181086867E0,2.347604303E0
1.592237796E1,-5.097259082E-1,8.238109973E-1,1.817829764E0,2.059851964E0
1.593237996E1,2.679012948E-1,1.156905969E0,1.801633562E0,2.157796565E0
1.594238296E1,9.795356525E-1,1.570254415E0,1.929147302E0,2.673349647E0
1.595238596E1,1.173832635E0,1.677265770E0,1.953591587E0,2.829774480E0
1.596238796E1,1.023216108E0,1.468852732E0,1.846194023E0,2.571562156E0
1.597239096E1,8.899726810E-1,1.168366804E0,2.175423254E0,2.624804507E0
1.598239296E1,4.971907935E-1,8.452518600E-1,2.797648276E0,2.964537952E0
1.599239596E1,1.302372269E-1,4.820808573E-1,3.136521320E0,3.176024194E0
1.600239796E1,5.178425744E-2,3.070393404E-1,3.286950883E0,3.301666379E0
1.601240096E1,1.152486205E-1,2.978286602E-1,3.349883881E0,3.365071495E0
1.602240396E1,3.528026468E-1,3.693196423E-1,3.191259445E0,3.231873072E0
1.603240596E1,8.833567026E-1,7.914884663E-1,2.951262233E0,3.180679459E0
1.604240896E1,1.209569721E0,1.724234992E0,3.066110319E0,3.719822268E0
1.605241096E1,8.822828615E-1,2.558205087E0,3.353923137E0,4.309482188E0
1.606241396E1,6.220609342E-1,2.654081005E0,3.926776609E0,4.780238522E0
1.607241596E1,3.268748501E-1,2.152266526E0,5.281216872E0,5.712298138E0
1.608241896E1,-1.398266606E-1,1.745548531E0,6.799434721E0,7.021310683E0
1.609242196E1,-7.413664261E-1,1.697216908E0,7.690663823E0,7.910529657E0
1.610242396E1,-1.221191501E0,1.853018308E0,7.729862387E0,8.042123977E0
1.611242696E1,-1.398934650E0,1.841553380E0,7.287301252E0,7.645462481E0
1.612242896E1,-1.287818842E0,1.554479065E0,7.146959306E0,7.426567838E0
1.613243196E1,-7.994241612E-1,9.959635511E-1,8.243797560E0,8.342135254E0
1.614243396E1,-1.691716433E-1,2.646397179E-1,1.047248836E1,1.047719742E1
1.615243696E1,7.155878064E-1,-2.255598521E-1,1.292990938E1,1.295166012E1
1.616243996E1,1.725264979E0,-2.592085317E-1,1.504364393E1,1.514446932E1
1.617244196E1,2.552930899E0,1.275771824E-1,1.541530932E1,1.562579578E1
1.618244496E1,3.110241594E0,9.536861354E-1,1.363006317E1,1.401291340E1
1.619244696E1,3.255764759E0,2.112499613E0,1.022177964E1,1.093377509E1
1.620244996E1,3.050706999E0,3.162861857E0,6.461389058E0,7.814093478E0
1.621245196E1,2.837250298E0,3.870457397E0,3.550894783E0,5.969864611E0
1.622245496E1,2.767238369E0,4.233651935E0,2.029344020E0,5.449738897E0
1.623245796E1,2.600449466E0,4.467917706E0,2.163548144E0,5.604066972E0
1.624245996E1,2.366721346E0,4.108555434E0,3.190329153E0,5.714875133E0
1.625246296E1,2.038220093E0,3.147018827E0,4.153230500E0,5.595300906E0
1.626246496E1,1.586992216E0,2.244535004E0,4.413870138E0,5.199878006E0
1.627246796E1,1.372061724E0,1.729591187E0,4.036691984E0,4.600969596E0
1.628246996E1,1.421508265E0,1.228830961E0,3.120701678E0,3.642731152E0
1.629247296E1,1.739253273E0,5.746684474E-1,1.902350097E0,2.640867597E0
1.630247596E1,2.326867309E0,-3.260553628E-1,7.195811623E-1,2.457319805E0
1.631247796E1,2.872684717E0,-1.394953866E0,-3.288579333E-1,3.210352210E0
1.632248096E1,3.144391088E0,-2.362256413E0,-1.265614040E0,4.131492415E0
1.633248296E1,3.436142006E0,-3.584374185E0,-2.243568460E0,5.448707151E0
1.634248596E1,3.798089917E0,-5.198141971E0,-3.561577646E0,7.357377406E0
1.635248796E1,3.933209715E0,-6.851707075E0,-4.665698606E0,9.175225992E0
1.636249096E1,3.849294569E0,-8.242738629E0,-5.481931905E0,1.062127046E1
1.637249396E1,3.563619201E0,-9.473757618E0,-6.160684884E0,1.184928282E1
1.638249596E1,3.553325178E0,-1.054778062E1,-6.503827565E0,1.289114304E1
1.639249896E1,3.668003402E0,-1.153385741E1,-6.571627784E0,1.377208798E1
1.640250096E1,3.547051992E0,-1.222014745E1,-6.554546313E0,1.431347822E1
1.641250396E1,3.304618830E0,-1.250441451E1,-6.151559134E0,1.432210067E1
1.642250596E1,3.282086877E0,-1.254584671E1,-6.035005415E0,1.430355391E1
1.643250896E1,2.870204621E0,-1.245598904E1,-6.857292920E0,1.450559216E1
1.644251196E1,1.784667135E0,-1.220584984E1,-8.866079884E0,1.519128630E1
1.645251396E1,6.094829156E-1,-1.209336110E1,-1.135041856E1,1.659677238E1
1.646251696E1,-3.179256865E-1,-1.211613250E1,-1.333700774E1,1.802158480E1
1.647251896E1,-8.869382684E-1,-1.201035871E1,-1.412047265E1,1.855864014E1
1.648252196E1,-1.056334737E0,-1.182680759E1,-1.329557437E1,1.782586656E1
1.649252396E1,-9.543091562E-1,-1.189558020E1,-1.167093953E1,1.669210484E1
1.650252696E1,-8.319951989E-1,-1.203955970E1,-1.061002657E1,1.606909698E1
1.651252996E1,-6.505718847E-1,-1.216530290E1,-1.003463482E1,1.578327389E1
1.652253196E1,-4.444851610E-1,-1.211468239E1,-9.759218686E0,1.556295106E1
1.653253496E1,-3.882134579E-1,-1.171263018E1,-9.745331549E0,1.524165025E1
1.654253696E1,-4.488983470E-1,-1.124490204E1,-9.649379910E0,1.482429979E1
1.655253996E1,-5.273204724E-1,-1.085623294E1,-9.494760232E0,1.443212848E1
1.656254196E1,-4.290220530E-1,-1.062719984E1,-9.369005919E0,1.417390942E1
1.657254496E1,-2.026526539E-1,-1.031736290E1,-8.910632159E0,1.363409003E1
1.658254796E1,5.580845743E-2,-9.912700496E0,-8.090523326E0,1.279536296E1
1.659254996E1,3.581907830E-1,-9.556409181E0,-7.365101965E0,1.207054199E1
