"Time (s)","Linear Acceleration x (m/s^2)","Linear Acceleration y (m/s^2)","Linear Acceleration z (m/s^2)","Absolute acceleration (m/s^2)"
-1.560666598E-3,2.423939860E-1,2.018574326E-1,-4.278434005E0,4.290046481E0
8.439333411E-3,-7.519852620E-1,-1.256610498E-1,-5.157481018E0,5.213528842E0
1.843804168E-2,-1.158966089E0,-4.645671308E-2,-5.042117207E0,5.173809675E0
2.843704168E-2,-1.371826959E0,3.481135453E-1,-3.733749495E0,3.992991052E0
3.843704169E-2,-1.825161003E0,5.652401045E-1,-2.375485153E0,3.048546994E0
4.843604169E-2,-1.438748927E0,-6.456937719E-2,-1.439663431E0,2.036368943E0
5.843504169E-2,-1.437445290E0,-8.328412179E-1,-3.451389205E-1,1.696759951E0
6.843404169E-2,-1.196754305E0,-1.439183082E0,-9.299938023E-2,1.874064486E0
7.843404170E-2,-2.534858617E-1,-1.416061437E0,9.771515965E-2,1.441885338E0
8.843304170E-2,8.531584650E-2,-1.565197304E0,3.777476728E-2,1.567975869E0
9.843204170E-2,-3.687362364E-1,-1.749003358E0,-9.409280956E-2,1.789925310E0
1.084320417E-1,-8.440447024E-1,-1.822731193E0,-8.924079001E-2,2.010652725E0
1.184310417E-1,-1.295598270E0,-1.859464864E0,1.306431699E-1,2.270077552E0
1.284300417E-1,-1.543622832E0,-1.272967645E0,2.496534796E0,3.199359946E0
1.384290417E-1,-1.360830977E0,-1.340839639E-2,7.143422325E0,7.271899563E0
1.484290417E-1,-5.624533215E-1,1.452546163E0,1.100971300E1,1.111935359E1
1.584280417E-1,7.622687602E-1,2.019303474E0,1.300045838E1,1.317841258E1
1.684270417E-1,2.196152219E0,1.162576160E0,1.215526674E1,1.240665859E1
1.784270417E-1,2.260309623E0,-1.220869319E0,5.864705844E0,6.402678824E0
1.884260417E-1,-8.944898012E-1,-3.798350703E0,-5.725728053E-1,3.944035964E0
1.984250417E-1,-3.240541825E0,-4.395631211E0,-3.302213870E0,6.381794536E0
2.084240417E-1,-1.593558931E0,-4.032758270E0,-4.322284614E0,6.122476102E0
2.184240418E-1,6.180180962E-1,-3.540357515E0,-4.241093102E0,5.559042040E0
2.284230418E-1,2.446591973E-1,-2.372484070E0,-4.038862470E0,4.690516905E0
2.384220418E-1,-1.901142793E0,-1.349899023E0,-4.441214057E0,5.016069536E0
2.484220418E-1,-1.123475829E0,-2.137918044E0,-3.902210117E0,4.589132303E0
2.584210418E-1,1.159449069E0,-2.957039282E0,-2.823693529E0,4.249899834E0
2.684200418E-1,3.571889210E0,-3.293207404E0,-3.415801882E0,5.938965401E0
2.784190418E-1,1.299679334E0,-4.526001608E0,-4.681763831E0,6.640238663E0
2.884190417E-1,-1.045420646E1,-6.056768167E0,-4.616924642E0,1.293409705E1
2.984180417E-1,-8.804763642E0,-5.058179508E0,-3.682162435E0,1.080126673E1
3.084170417E-1,4.955778390E-2,-3.351259146E0,-4.848708855E0,5.894350804E0
3.184170417E-1,-1.795421188E0,3.910384524E0,-6.861545600E0,8.099101950E0
3.284160417E-1,-1.500279323E0,4.280443109E0,-4.386002893E0,6.309520792E0
3.384150417E-1,-7.211259967E-1,-2.131868807E0,-1.480701529E0,2.693949579E0
3.484140417E-1,-1.662552567E0,-7.736556280E0,-2.611282310E0,8.332897420E0
3.584140417E-1,-4.076176769E0,-9.277133882E0,-4.769755071E0,1.119959792E1
3.684130417E-1,-4.562899585E0,-9.171979895E0,-5.675604551E0,1.171143692E1
3.784120417E-1,-4.293425097E0,-7.560528191E0,-6.813662751E0,1.104631548E1
3.884120417E-1,-2.328500729E0,-6.085654582E0,-5.655280214E0,8.627821372E0
3.984110417E-1,-1.865538074E0,-6.948418853E0,-6.689036951E0,9.823643529E0
4.084100417E-1,-3.213009625E0,-9.759094141E0,-7.407651569E0,1.266635903E1
4.184090417E-1,-4.429272289E0,-1.141243997E1,-6.223395102E0,1.373291250E1
4.284090417E-1,-3.783805754E0,-8.039800485E0,-2.922393360E0,9.353927558E0
4.384080417E-1,-1.878491703E0,-5.381559185E0,-1.453428361E0,5.882377440E0
4.484070417E-1,-1.454262174E0,-6.780430101E0,5.839889091E-1,6.959177672E0
4.584060417E-1,-4.721731889E-1,-8.584073936E0,1.024026970E0,8.657823288E0
4.684060417E-1,1.511039223E0,-1.019410477E1,2.864001310E-1,1.030946345E1
4.784050417E-1,5.983141782E0,-7.372249601E0,1.835272009E0,9.670381229E0
4.884040417E-1,1.006806569E1,-3.863258013E0,3.447835853E0,1.132158475E1
4.984040417E-1,1.102065197E1,-3.240538024E0,5.186001981E0,1.260358969E1
5.084030417E-1,9.019901417E0,-3.656265702E0,8.282704933E0,1.278006657E1
5.184020418E-1,5.791627343E0,-3.915983233E0,1.173507530E1,1.365979005E1
5.284020418E-1,5.932410169E0,-4.314845787E0,1.649259566E1,1.805040432E1
5.384010418E-1,7.772013211E0,-3.936971814E0,1.609864769E1,1.830492813E1
5.484000418E-1,9.023462956E0,-3.154579861E0,1.208649998E1,1.540966384E1
5.583990418E-1,1.110830641E1,-1.758949472E0,8.632094194E0,1.417749712E1
5.683990418E-1,1.512427001E1,1.089081922E0,5.336668357E0,1.607512588E1
5.783980417E-1,2.399825943E1,7.817125064E0,1.263822454E0,2.527095461E1
5.883970417E-1,3.128666171E1,1.059710539E1,-3.507310807E0,3.321829425E1
5.983960417E-1,2.821355695E1,8.694961703E0,-1.560724184E0,2.956421849E1
6.083960417E-1,1.454134822E1,4.155265331E-1,1.511515186E0,1.462559908E1
6.183950417E-1,2.643286753E0,-7.305574971E0,1.804256623E0,7.975821743E0
6.283940417E-1,-4.835574547E0,-9.835428371E0,2.062087258E0,1.115215837E1
6.383940417E-1,-5.505307903E0,-7.645730894E0,3.234270394E0,9.961230898E0
6.483930417E-1,-1.938281091E0,-2.110562430E0,6.378913497E0,6.992992547E0
6.583920417E-1,-5.846489136E-1,8.448671132E-1,8.959959270E0,9.018674233E0
6.683920417E-1,-2.734091381E0,-8.969804227E-2,9.527005287E0,9.911969086E0
6.783910417E-1,-5.731593980E0,-2.780592533E0,6.126458791E0,8.838346096E0
6.883900417E-1,-6.361267185E0,-1.786803269E0,3.139812718E0,7.315518438E0
6.983890417E-1,-3.803208570E0,9.780824733E-1,2.145852131E-1,3.932821832E0
7.083890417E-1,-8.555223481E-1,4.074518207E0,-2.508133333E0,4.860488651E0
7.183880417E-1,1.671564150E0,6.036062007E0,-5.989981270E0,8.666489882E0
7.283870417E-1,4.380590125E0,6.751249571E0,-9.496985098E0,1.244835999E1
7.383870417E-1,3.212347721E0,5.100210464E0,-1.405536859E1,1.529328973E1
7.483860417E-1,7.858967739E-1,1.053774680E0,-4.269236920E0,4.467041380E0
7.583850417E-1,3.553413763E0,-2.716699423E0,-3.321941791E0,5.571579883E0
7.683840417E-1,1.906410404E0,-6.776379150E-1,-4.672966111E-1,2.076525920E0
7.783840417E-1,1.726743301E0,2.269532436E0,-1.934626728E0,3.446041277E0
7.883830417E-1,2.718433707E0,4.943509178E0,-3.277817532E0,6.524741572E0
7.983820417E-1,1.116831638E0,4.946154458E0,-5.055933593E0,7.160602023E0
8.083810417E-1,-1.367546797E-1,6.364573200E0,-5.274228280E0,8.267041660E0
8.183810418E-1,7.669747455E-1,3.919012091E0,-1.874546587E0,4.411443181E0
8.283800418E-1,-2.028609463E0,-4.491749203E-1,-9.799062198E-1,2.297222380E0
8.383790418E-1,-3.147801476E0,-2.557317773E0,3.595640016E-1,4.071586251E0
8.483790418E-1,-8.344087833E-1,-2.469182106E0,3.318604785E-1,2.627399792E0
8.583780418E-1,3.201957511E0,-8.820390326E-1,3.963944435E-2,3.321459926E0
8.683770418E-1,4.687304361E0,2.145144618E-1,5.244367719E-2,4.692503486E0
8.783760418E-1,4.077418718E0,2.045537299E-1,-8.999116319E-1,4.180553382E0
8.883760417E-1,3.756458619E0,1.221043054E0,-1.674262494E0,4.290114497E0
8.983750417E-1,3.724594510E0,2.234356171E0,-3.960454817E0,5.877937914E0
9.083740417E-1,3.210165540E0,1.955967311E0,-4.934977505E0,6.203625866E0
9.183740417E-1,2.316784078E0,1.792352861E-1,-5.970208910E0,6.406481732E0
9.283730417E-1,2.015190834E0,4.736209595E-1,-1.591237879E0,2.611005343E0
9.383720417E-1,1.102492219E0,7.308557636E-1,4.974202967E-1,1.413175924E0
9.483710417E-1,-9.608618385E-1,1.121022338E0,-1.495532992E0,2.101562629E0
9.583710417E-1,1.290098379E0,8.952420455E-1,4.538263804E-1,1.634555148E0
9.683700417E-1,2.920659368E0,3.469778699E-1,2.714271659E0,4.002238801E0
9.783690417E-1,3.966636786E0,-4.094647247E-1,2.252328174E0,4.579830887E0
9.883690417E-1,3.258040495E0,-5.439448375E-1,1.299346628E0,3.549507784E0
9.983680417E-1,2.881323102E0,-3.613316149E-1,2.689423331E0,3.957976908E0
1.008367042E0,2.859153676E0,2.675551397E-1,1.335339164E0,3.166934823E0
1.018365833E0,4.087091182E0,1.622795302E0,1.812907578E0,4.756512673E0
1.028365833E0,4.140017255E0,3.427308033E0,2.159863814E0,5.792339330E0
1.038364833E0,4.118713217E0,2.984186150E0,-3.132832897E-1,5.095813179E0
1.048363833E0,3.991911083E0,1.930107415E0,-3.728114533E-1,4.449680562E0
1.058363833E0,3.920904250E0,1.575599501E0,9.991137385E-1,4.342146035E0
1.068362833E0,4.004450144E0,1.097727031E0,2.218030161E0,4.707471018E0
1.078361833E0,3.685324025E0,2.168615341E-2,1.880562787E0,4.137462973E0
1.088360833E0,3.103608513E0,-4.750769162E-1,1.145464869E0,3.342180971E0
1.098360833E0,1.316336882E-1,-1.050661622E0,4.314274514E-1,1.143392723E0
1.108359833E0,-1.816867313E0,-1.914222284E0,-9.040672481E-2,2.640724742E0
1.118358833E0,2.198722655E-1,-1.963345912E0,-4.111364436E-1,2.017945529E0
1.128358833E0,1.480571429E0,-9.746671146E-1,4.141313875E-1,1.820322100E0
1.138357833E0,1.897063922E0,3.743270516E-2,1.350765288E0,2.329124212E0
1.148356833E0,9.193112317E-1,2.762113577E-1,9.752723014E-1,1.368423150E0
1.158355833E0,-1.485108283E0,-3.704170185E-1,-3.205911398E-1,1.563820341E0
1.168355833E0,-4.273041411E0,-5.000696701E-1,-3.494021839E0,5.542304682E0
1.178354833E0,-5.363166769E0,-9.354083240E-2,-1.084576175E1,1.209970477E1
1.188353833E0,-8.463284494E0,-1.355500363E0,-1.627725908E1,1.839602481E1
1.198353833E0,-1.214762677E1,-2.914945761E0,-1.273959538E1,1.784261851E1
1.208352833E0,-9.765207404E0,-2.569999799E0,-2.037343596E0,1.030121078E1
1.218351833E0,-3.068581937E0,-1.767274153E-1,1.474685797E1,1.506377269E1
1.228350833E0,3.548038418E0,7.312358326E-1,8.395111222E0,9.143367808E0
1.238350833E0,6.722489457E0,4.689486834E0,9.320240725E0,1.241168959E1
1.248349833E0,5.162698488E0,3.762679179E0,5.400856166E0,8.365432303E0
1.258348833E0,2.480022259E0,1.327627856E0,5.224811121E0,5.933949560E0
1.268348833E0,6.032361889E-1,-7.709588921E-1,6.367388635E0,6.442197571E0
1.278347833E0,-4.913619965E-1,-1.299436675E0,6.224145885E0,6.377300704E0
1.288346833E0,-2.516723478E0,-6.190102226E-1,3.524309247E0,4.374680147E0
1.298345833E0,-4.108516257E0,7.689129514E-1,-1.311407095E0,4.380744404E0
1.308345833E0,-2.885956435E0,1.455270234E0,-2.896861785E0,4.340318445E0
1.318344833E0,-5.808118245E-1,1.989216333E0,-1.286576893E0,2.439181030E0
1.328343833E0,2.671892794E0,2.826479142E0,5.911812767E-2,3.889921644E0
1.338343833E0,4.115165711E0,3.935667885E0,8.767442326E-1,5.761315039E0
1.348342833E0,4.753844798E0,2.233881378E0,1.294341411E0,5.409675227E0
1.358341833E0,5.732171100E0,-8.018181574E-1,4.224983730E0,7.165974141E0
1.368340833E0,6.203216361E0,-2.296522599E0,6.876812096E0,9.541721745E0
1.378340833E0,8.798236395E0,-1.034474190E0,9.714478131E0,1.314725013E1
1.388339833E0,1.393581992E1,1.327906768E0,9.924424163E0,1.715997110E1
1.398338833E0,1.465512451E1,1.320087871E0,3.053962144E0,1.502804017E1
1.408338833E0,6.779472912E0,-8.974306583E-3,-1.425792549E1,1.578764621E1
1.418337833E0,-1.930449769E0,1.918351588E0,-2.603956451E1,2.618139853E1
1.428336833E0,-2.227230170E0,5.969598461E0,-1.566096489E1,1.690746821E1
1.438335833E0,3.292951588E0,5.931463505E0,-9.556845968E0,1.172002962E1
1.448335833E0,6.995747386E0,4.079203581E0,-4.376803468E0,9.205258928E0
1.458334833E0,1.126328569E1,3.857759584E0,1.265669004E0,1.197271195E1
1.468333833E0,1.306056541E1,3.003897699E0,3.616306707E0,1.388090215E1
1.478333833E0,1.186535127E1,1.536055366E0,2.259748729E0,1.217589796E1
1.488332833E0,9.627051732E0,1.617166772E0,5.906140968E0,1.140955102E1
1.498331833E0,1.365859144E0,-2.387999364E0,-2.195472918E0,3.519689404E0
1.508330833E0,-8.102579700E0,-3.560806398E0,-9.823200674E0,1.322219390E1
1.518330833E0,-7.797715816E0,-6.924565136E-2,-1.488216605E1,1.680142950E1
1.528329833E0,-5.672687960E0,1.043203499E0,-1.051549814E1,1.199347170E1
1.538328833E0,-6.135026132E0,-7.437798643E-1,-4.578510774E0,7.691197243E0
1.548328833E0,-1.614189808E0,1.328131886E0,3.680888911E0,4.233023296E0
1.558327833E0,1.959592584E0,1.521267173E0,6.781972012E0,7.221454236E0
1.568326833E0,5.802026031E0,3.725655779E0,7.604364182E0,1.026500714E1
1.578325833E0,4.323954579E0,3.354980898E0,3.993967549E0,6.775268025E0
1.588325833E0,2.013397493E0,-4.270917410E0,-1.652379435E0,5.002485661E0
1.598324833E0,6.933780348E-1,-9.295269021E0,-7.569322404E0,1.200739110E1
1.608323833E0,-8.114819092E0,-1.212936826E1,-6.552876933E0,1.599725162E1
1.618323833E0,-8.966302330E0,-1.015567102E1,-6.881967586E0,1.519518704E1
1.628322833E0,-9.753743938E0,-8.146582337E0,-1.123538044E1,1.696278568E1
1.638321833E0,-2.292549708E0,-2.288349361E0,-7.713988366E0,8.366477364E0
1.648320833E0,3.681474510E0,2.040853679E0,-3.861469642E0,5.712205012E0
1.658320833E0,5.936013224E0,4.560352246E0,-4.745856332E0,8.863194566E0
1.668319833E0,5.809524500E0,7.489705546E0,-9.150643405E0,1.317499673E1
1.678318833E0,5.983016067E0,8.242034039E0,-8.161060628E0,1.305107340E1
1.688318833E0,6.156975410E0,5.339541094E0,-2.392674798E0,8.493758766E0
1.698317833E0,5.345261425E0,4.516289967E-1,1.778720809E0,5.651516271E0
1.708316833E0,5.211712773E0,-5.202803956E0,2.663529521E0,7.831060499E0
1.718315833E0,9.051402122E0,-5.580963857E0,5.886044673E0,1.215403471E1
1.728315833E0,1.039173832E1,-7.000281317E0,4.373082300E0,1.327087083E1
1.738314833E0,8.713395635E0,-7.841459422E0,1.546960569E0,1.182390952E1
1.748313833E0,8.728560389E0,-7.787214217E0,-5.235154846E0,1.281543281E1
1.758312833E0,7.042312272E0,-8.926614938E0,-2.585018957E-1,1.137301366E1
1.768312833E0,2.211332760E0,-9.862861168E0,2.740887015E0,1.047274962E1
1.778311833E0,-3.437184857E0,-9.955181687E0,2.303686315E0,1.078085585E1
1.788310833E0,-6.332171440E0,-1.032559227E1,1.498790037E0,1.220494254E1
1.798310833E0,-6.875473668E0,-9.552057683E0,-1.008469284E-1,1.176962677E1
1.808309833E0,-6.977463727E0,-9.221625679E0,-2.354625504E-1,1.156627956E1
1.818308833E0,-7.236866679E0,-8.426402012E0,1.121975434E-1,1.110806367E1
1.828307833E0,-6.296264858E0,-9.586182033E0,3.374804714E0,1.195521409E1
1.838307833E0,-3.793610073E0,-1.086886760E1,6.641807821E0,1.329049930E1
1.848306833E0,-4.489796599E-1,-9.300346159E0,5.921415650E0,1.103454506E1
1.858305833E0,2.047238839E0,-3.625184242E0,5.711879507E0,7.068147930E0
1.868305833E0,5.970093720E0,2.026889359E0,7.339903389E0,9.675974435E0
1.878304833E0,5.838910267E0,6.924166356E0,7.972436467E0,1.206634560E1
1.888303833E0,3.910098011E0,1.036003588E1,9.170425705E0,1.437761863E1
1.898302833E0,1.024426627E0,8.052749144E0,1.256194059E1,1.495655609E1
1.908302833E0,-1.203551255E0,2.857026166E0,1.673113633E1,1.701593538E1
1.918301833E0,-1.199492264E0,-1.113579417E0,1.723552183E1,1.731306020E1
1.928300833E0,-1.897937935E0,-3.060285323E0,1.362833707E1,1.409606633E1
1.938300833E0,-7.770397040E-1,-3.288433737E0,9.119367818E0,9.725248405E0
1.948299833E0,1.146075610E0,-2.640043010E0,6.135454148E0,6.776954626E0
1.958298833E0,4.476655201E0,-1.652488047E0,4.717279819E0,6.709984160E0
1.968297833E0,8.197942525E0,-7.253026628E-1,3.248884340E0,8.848026619E0
1.978297833E0,8.704999618E0,-9.914275736E-1,2.689446135E0,9.164773183E0
1.988296833E0,1.002029862E1,-1.742043418E-1,1.274051427E0,1.010247191E1
1.998295833E0,1.267085434E1,7.643942231E-1,7.154674999E-1,1.271403720E1
2.008295833E0,1.368111170E1,7.663290668E-1,-1.595537044E-1,1.370348623E1
2.018294917E0,1.489709516E1,1.967207413E0,-1.814549477E0,1.513558519E1
2.028293917E0,1.628947625E1,2.230120448E0,-2.581000750E0,1.664277737E1
2.038292917E0,1.574635529E1,1.220332618E0,-3.390956478E0,1.615349814E1
2.048292917E0,1.469690988E1,-1.080056160E0,-3.549523610E0,1.515799457E1
2.058291917E0,1.443814369E1,-2.236274643E0,-5.244720891E0,1.552314449E1
2.068290917E0,1.364363690E1,-2.030370791E0,-9.760006306E0,1.689760209E1
2.078290917E0,1.268871758E1,6.831945240E-2,-1.622857750E1,2.060036284E1
2.088289917E0,9.784547070E0,4.046857953E-2,-1.817585468E1,2.064220658E1
2.098288917E0,6.190540767E0,-1.800385766E0,-1.836504485E1,1.946378833E1
2.108287917E0,4.025874635E0,-3.221591291E0,-1.661938785E1,1.740087267E1
2.118287917E0,3.373791684E0,-4.834533450E0,-1.215204610E1,1.350656908E1
2.128286917E0,4.756622810E0,-6.202173802E0,-7.452642969E0,1.079973646E1
2.138285917E0,3.987156712E0,-5.640816541E0,2.221650464E0,7.256167079E0
2.148285917E0,1.686729050E0,-6.393432133E0,6.467633300E0,9.249395106E0
2.158284917E0,-5.527668241E-1,-9.518143832E0,1.104797367E1,1.459309204E1
2.168283917E0,-2.150448627E0,-1.229928366E1,9.848965845E0,1.590279649E1
2.178282917E0,-4.712713436E0,-1.288953436E1,8.226426067E0,1.600074529E1
2.188282917E0,-9.574040290E0,-7.555594895E0,5.761082073E0,1.348848873E1
2.198281917E0,-1.191740318E1,-3.589432611E0,3.702925898E0,1.298538352E1
2.208280917E0,-9.644450122E0,-3.267950941E0,6.969959995E-1,1.020689595E1
2.218280917E0,-9.188101838E0,-2.828920355E0,-1.563547220E0,9.740055732E0
2.228279917E0,-9.415629863E0,-4.113412716E0,-2.415817785E0,1.055511371E1
2.238278917E0,-9.340876719E0,-5.100228590E0,-2.503677170E0,1.093310152E1
2.248277917E0,-8.495025519E0,-4.186369595E0,-2.782875578E0,9.870944506E0
2.258277917E0,-7.535006264E0,-1.909992408E0,-4.753048992E0,9.111304249E0
2.268276917E0,-7.263927008E0,-1.105103878E0,-6.573864344E0,9.859086295E0
2.278275917E0,-6.996501092E0,-1.300531273E0,-6.489548079E0,9.631025044E0
2.288275917E0,-6.285224730E0,-1.762026862E0,-5.744261388E0,8.695132400E0
2.298274917E0,-5.245679249E0,-2.495571175E0,-4.819417228E0,7.547967190E0
2.308273917E0,-4.337702553E0,-2.496217877E0,-4.026077826E0,6.423088804E0
2.318272917E0,-3.528789968E0,-2.166893336E0,-2.981329785E0,5.102559422E0
2.328272917E0,-2.895608142E0,-1.441568454E0,-1.628956074E0,3.621624499E0
2.338271917E0,-2.330814911E0,-3.024390435E-1,-3.986451830E-1,2.383922294E0
2.348270917E0,-1.070236054E0,1.171664488E0,1.825026371E-1,1.597344701E0
2.358270917E0,1.694403228E-1,1.709817073E0,3.151169034E-1,1.746849481E0
2.368269917E0,1.801283606E0,1.622960778E0,5.672817329E-1,2.490066843E0
2.378268917E0,3.442576574E0,1.915696367E0,4.573119056E-1,3.966151815E0
2.388267917E0,4.713046143E0,2.412179355E0,8.627953342E-1,5.364310671E0
2.398267917E0,5.959497980E0,2.709779243E0,1.679697481E0,6.758690950E0
2.408266917E0,6.931648453E0,2.953817466E0,2.077513967E0,7.815935785E0
2.418265917E0,7.330266008E0,3.153296397E0,2.383930871E0,8.328217356E0
2.428265917E0,7.290720119E0,3.219390984E0,2.586835102E0,8.379188148E0
2.438264917E0,7.091494957E0,3.136193876E0,1.955957955E0,7.996923426E0
2.448263917E0,6.572530010E0,2.950644182E0,9.933109617E-1,7.272628031E0
2.458262917E0,5.933179078E0,2.740588222E0,4.083765213E-1,6.548298188E0
2.468262917E0,5.567119989E0,2.500578731E0,6.360305171E-2,6.103258500E0
2.478261917E0,5.557672643E0,2.185998529E0,-6.943878490E-1,6.012361371E0
2.488260917E0,6.353370520E0,1.833006797E0,-1.683178328E0,6.823365751E0
2.498259917E0,7.155610262E0,1.623427970E0,-1.521129178E0,7.493471196E0
2.508259917E0,7.402874393E0,1.354016925E0,-5.382262605E-1,7.544905475E0
2.518258917E0,7.345897955E0,1.219869518E0,2.145162159E-1,7.449584929E0
2.528257917E0,7.083280789E0,8.996069920E-1,9.797009826E-1,7.207078013E0
2.538257917E0,6.928554692E0,1.310056973E-1,1.838575686E0,7.169546231E0
2.548256917E0,6.833309396E0,-1.159704008E0,2.878129352E0,7.504842387E0
2.558255917E0,6.755247313E0,-2.545973005E0,3.343987548E0,7.955978728E0
2.568255917E0,6.796789441E0,-3.942755295E0,3.817651777E0,8.735910434E0
2.578254917E0,6.774353675E0,-5.601152539E0,3.691903896E0,9.533883356E0
2.588253917E0,6.280710095E0,-7.231773169E0,4.213649780E0,1.046425855E1
2.598252917E0,5.748926296E0,-8.480346084E0,5.303700585E0,1.153670937E1
2.608252917E0,5.170822610E0,-8.707957140E0,5.297060487E0,1.142911956E1
2.618251917E0,4.446985551E0,-8.014585537E0,4.431628132E0,1.018079514E1
2.628250917E0,3.902069491E0,-6.517246925E0,3.811320412E0,8.498636189E0
2.638249917E0,3.511594769E0,-4.633220247E0,3.800712394E0,6.945749951E0
2.648249917E0,3.506599200E0,-3.053055825E0,3.961321374E0,6.108146597E0
2.658248917E0,3.828204832E0,-1.517827256E0,4.755830512E0,6.291015472E0
2.668247917E0,4.229040528E0,-3.846123040E-1,6.528841953E0,7.788355903E0
2.678247917E0,4.092235270E0,-9.328349644E-1,5.896072648E0,7.237419654E0
2.688246917E0,3.585353009E0,-1.162749823E0,5.035585867E0,6.289981588E0
2.698245917E0,2.797943268E0,-2.192281947E0,3.039961571E0,4.677173614E0
2.708244917E0,1.705408419E0,-5.031400430E0,1.522777655E0,5.526505220E0
2.718244917E0,6.203802252E-1,-8.053147339E0,5.577950641E-1,8.096245366E0
2.728243917E0,-8.726574674E-2,-9.983105650E0,5.677142807E-1,9.999615654E0
2.738242917E0,-4.624476613E-1,-1.116445137E1,9.386231232E-1,1.121337798E1
2.748242917E0,-1.311213552E0,-1.211084661E1,1.198780366E0,1.224046409E1
2.758241917E0,-2.363082770E0,-1.277341918E1,1.333827658E0,1.305846445E1
2.768240917E0,-1.827666535E0,-1.210648459E1,5.558059144E-1,1.225627408E1
2.778239917E0,-2.482337172E0,-1.148173767E1,4.622306565E-1,1.175610288E1
2.788239917E0,-3.295839236E0,-1.028051375E1,-1.123314300E0,1.085418602E1
2.798238917E0,-3.854552386E0,-8.345365450E0,-4.649594790E0,1.030152563E1
2.808237917E0,-4.792979920E0,-6.365771295E0,-7.804115009E0,1.115347084E1
2.818237917E0,-5.544795905E0,-4.536750544E0,-8.647741343E0,1.122988413E1
2.828236917E0,-6.059466657E0,-2.436244156E0,-1.002861336E1,1.196768598E1
2.838235917E0,-5.443571831E0,5.010369165E0,-1.251492430E1,1.453821185E1
2.848234917E0,-5.355045571E0,8.130247555E0,-1.706357627E1,1.964543391E1
2.858234917E0,-7.139010601E0,1.667377397E0,-1.616815471E1,1.775260112E1
2.868233917E0,-7.012343538E0,2.272712737E0,-1.160110273E1,1.374495433E1
2.878232917E0,-6.686640762E0,2.760042493E0,-8.197803361E0,1.093311388E1
2.888232917E0,-6.331315992E0,3.687186363E0,-5.859285475E0,9.381478121E0
2.898231917E0,-6.340284451E0,4.756304137E0,-4.355903181E0,9.044088040E0
2.908230917E0,-6.480869057E0,5.724328814E0,-3.213121892E0,9.224627711E0
2.918229917E0,-6.535533507E0,6.683374507E0,-2.218024313E0,9.607305808E0
2.928229917E0,-6.739174486E0,7.533661990E0,-1.039953909E0,1.016139950E1
2.938228917E0,-7.279871780E0,8.023244678E0,6.861216402E-1,1.085540194E1
2.948227917E0,-8.119717305E0,8.163967863E0,3.264362212E0,1.196813440E1
2.958227917E0,-8.829130159E0,7.724596385E0,4.632212772E0,1.261270486E1
2.968226917E0,-8.141852524E0,7.129956772E0,4.543050042E0,1.173734850E1
2.978225917E0,-5.891101345E0,6.539197957E0,2.063145604E0,9.040063869E0
2.988224917E0,-3.908093293E0,5.319176996E0,-8.933054477E-2,6.601122408E0
2.998224917E0,-3.218976709E0,3.606276101E0,-1.565400495E0,5.081094083E0
3.008223917E0,-3.746329487E0,9.157616794E-1,-2.686836523E0,4.700286649E0
3.018223292E0,-4.043141170E0,-1.886389537E0,-2.126834062E0,4.942557955E0
3.028223292E0,-3.183822956E0,-5.752998882E0,-1.181853553E0,6.680606452E0
3.038222292E0,-2.704334316E0,-1.045251778E1,-2.385930035E-1,1.079932770E1
3.048221292E0,-1.879179774E0,-1.441987933E1,-1.916167945E0,1.466751295E1
3.058220292E0,1.109899618E0,-1.703013019E1,-2.897271382E0,1.731044173E1
3.068220292E0,4.205228035E0,-1.810198446E1,-3.199136229E0,1.885736612E1
3.078219292E0,5.222257642E0,-1.649073741E1,-3.056029719E-1,1.730057191E1
3.088218292E0,4.951002384E0,-1.351247332E1,1.796264648E0,1.450261792E1
3.098217292E0,4.708692014E0,-1.244799707E1,2.957259137E0,1.363340725E1
3.108217292E0,5.304759516E0,-1.305684542E1,3.877833075E0,1.461708846E1
3.118216292E0,5.732599116E0,-1.241054448E1,3.756765013E0,1.417736190E1
3.128215292E0,5.033587874E0,-9.269419650E0,4.898409603E0,1.162985658E1
3.138215292E0,4.445515561E0,-2.481051954E0,2.172535315E1,2.231387902E1
3.148214292E0,2.936449481E0,6.254795820E-1,1.348066798E1,1.381095107E1
3.158213292E0,2.705254960E0,-4.401696235E-1,-3.285358394E0,4.278520010E0
3.168212292E0,2.251494068E0,1.361174501E0,-3.447943149E0,4.337088138E0
3.178212292E0,2.188148404E0,2.651545653E0,-3.704962483E0,5.054249181E0
3.188211292E0,1.984688395E0,3.449646735E0,-4.298748987E0,5.858181755E0
3.198210292E0,1.931631491E0,3.957841111E0,-4.892083793E0,6.582415235E0
3.208210292E0,2.163890937E0,4.116935663E0,-4.882408698E0,6.743107439E0
3.218209292E0,2.238730620E0,4.043450196E0,-4.826745836E0,6.682729954E0
3.228208292E0,1.876574694E0,3.821694542E0,-5.191522923E0,6.714074174E0
3.238207292E0,1.343710330E0,3.688252895E0,-5.247840380E0,6.553517797E0
3.248207292E0,5.978897873E-1,3.413085265E0,-5.110223236E0,6.174220983E0
3.258206292E0,-1.140927429E0,3.147436318E0,-7.690341057E0,8.387455892E0
3.268205292E0,-3.560127244E0,2.715204874E0,-1.362923286E1,1.434582978E1
3.278205292E0,-4.017168131E0,2.358837546E0,-1.268617638E1,1.351446727E1
3.288204292E0,-2.831440505E0,2.557108442E0,-7.213340991E0,8.160156075E0
3.298203292E0,-1.541063214E0,2.905805978E0,-3.389812762E0,4.723284321E0
3.308202292E0,-3.163153633E-1,3.059238086E0,-1.755995459E0,3.541541067E0
3.318202292E0,6.015302637E-1,3.199026886E0,-1.232314732E0,3.480547554E0
3.328201292E0,1.275872688E0,3.371023319E0,-6.992843074E-1,3.671600180E0
3.338200292E0,1.524843330E0,3.436589903E0,-4.211815216E-2,3.759929691E0
3.348200292E0,1.738431008E0,3.413633149E0,3.656304878E-1,3.848209883E0
3.358199292E0,1.927679943E0,3.135976360E0,7.705840856E-1,3.760863933E0
3.368198292E0,2.158989070E0,2.484542157E0,1.249221956E0,3.520616286E0
3.378197292E0,2.809870711E0,2.099198366E0,1.619563546E0,3.863287884E0
3.388197292E0,3.587879591E0,1.934112173E0,1.834392588E0,4.469750107E0
3.398196292E0,3.907156569E0,1.578619587E0,1.830274394E0,4.594324391E0
3.408195292E0,3.867435264E0,1.218170317E0,1.622415233E0,4.367290422E0
3.418194292E0,3.664198619E0,9.866135609E-1,1.626097809E0,4.128432139E0
3.428194292E0,3.550117395E0,8.991503245E-1,1.784684823E0,4.073929889E0
3.438193292E0,3.422655988E0,6.896650529E-1,1.775250340E0,3.916851499E0
3.448192292E0,3.234427099E0,1.637126827E-1,1.738807569E0,3.675836267E0
3.458192292E0,3.122476893E0,-7.789660692E-1,1.746801297E0,3.661688798E0
3.468191292E0,2.869474304E0,-2.178257400E0,2.150103056E0,4.195429803E0
3.478190292E0,2.194865831E0,-4.079881858E0,3.916145786E0,6.066223686E0
3.488189292E0,1.645884787E0,-6.163416703E0,4.695662663E0,7.921230335E0
3.498189292E0,2.257415251E0,-7.750416520E0,3.123815321E0,8.655813191E0
3.508188292E0,3.245010560E0,-8.926758780E0,2.174018168E0,9.743894029E0
3.518187292E0,3.840549474E0,-1.018755705E1,2.505969279E0,1.117210907E1
3.528187292E0,4.312689918E0,-1.101423172E1,2.969416668E0,1.219549221E1
3.538186292E0,4.731255249E0,-1.124345076E1,2.894961147E0,1.253717518E1
3.548185292E0,4.874129040E0,-1.071192717E1,2.360338964E0,1.200307117E1
3.558184292E0,5.148679204E0,-9.323320454E0,1.836391897E0,1.080766103E1
3.568184292E0,6.012843883E0,-7.197034861E0,1.049487940E0,9.436791154E0
3.578183292E0,6.743212574E0,-5.377486600E0,8.833797991E-2,8.625316315E0
3.588182292E0,7.496251504E0,-3.818389696E0,-5.500335431E-1,8.430683447E0
3.598182292E0,8.006803477E0,-2.614072602E0,-7.907140025E-1,8.459758042E0
3.608181292E0,7.856444081E0,-1.390244519E0,-1.078901627E0,8.051119310E0
3.618180292E0,7.683906780E0,-4.002255392E-1,-1.334430799E0,7.809181100E0
3.628179292E0,7.727572033E0,5.653690356E-1,-8.197378269E-1,7.791468525E0
3.638179292E0,7.703414846E0,1.398520668E0,-1.407682085E-1,7.830598702E0
3.648178292E0,6.738707879E0,1.050920654E0,-1.767180598E-1,6.822451712E0
3.658177292E0,5.183092992E0,-3.824815786E-1,-9.606273651E-2,5.198073986E0
3.668177292E0,3.493174286E0,-2.400256882E0,9.513162589E-1,4.343788935E0
3.678176292E0,1.974009479E0,-4.693261212E0,2.142241183E0,5.523822183E0
3.688175292E0,4.683923793E-1,-7.190629821E0,3.267429369E0,7.912056833E0
3.698174292E0,-9.624984741E-1,-9.229543394E0,4.447236105E0,1.029022757E1
3.708174292E0,-2.652950154E0,-1.063980527E1,4.733861938E0,1.194374521E1
3.718173292E0,-3.823157516E0,-1.062500363E1,4.818997398E0,1.227721350E1
3.728172292E0,-4.220384895E0,-9.832399514E0,4.618430884E0,1.165408223E1
3.738172292E0,-3.782519367E0,-8.571334607E0,3.345424794E0,9.948220783E0
3.748171292E0,-3.069195602E0,-7.250562612E0,1.059249428E0,7.944345737E0
3.758170292E0,-2.657942799E0,-6.061458219E0,-3.174100498E0,7.340357596E0
3.768169292E0,-2.955852297E0,-4.820173858E0,-7.135198216E0,9.103965752E0
3.778169292E0,-4.805293279E0,-2.197536255E0,-2.309735786E1,2.369404881E1
3.788168292E0,-1.095656181E1,3.655228990E0,-4.613941509E1,4.756314299E1
3.798167292E0,-8.381587781E0,4.027252824E0,-1.617500297E1,1.865745160E1
3.808166292E0,-7.338376681E0,4.433517367E0,-1.131069024E1,1.419294058E1
3.818166292E0,-6.272546797E0,4.965115809E0,-4.978187259E0,9.422290948E0
3.828165292E0,-5.401749036E0,5.751576254E0,-2.172382410E0,8.184055681E0
3.838164292E0,-5.266901718E0,6.513253276E0,-1.872857326E0,8.583141413E0
3.848164292E0,-5.432932237E0,7.105684980E0,-1.537542020E0,9.075877214E0
3.858163292E0,-5.629616200E0,7.652811288E0,-1.227575271E0,9.579407091E0
3.868162292E0,-6.525019628E0,7.906278146E0,-4.523037654E-1,1.026107665E1
3.878161292E0,-8.502048025E0,7.914463078E0,-1.053782281E-1,1.161613753E1
3.888161292E0,-1.265934702E1,7.330651340E0,-1.014680430E1,1.780323435E1
3.898160292E0,-1.014898648E1,6.322907111E0,-5.811807838E0,1.329504386E1
3.908159292E0,-5.258691643E0,6.182447051E0,2.804524017E0,8.587307162E0
3.918159292E0,-4.097436368E0,5.740134423E0,3.565084221E0,7.902401754E0
3.928158292E0,-1.856321985E0,3.846880839E0,5.445464575E0,6.920802550E0
3.938157292E0,6.384840819E-1,1.929540235E-1,6.762465116E0,6.795279804E0
3.948156292E0,2.114024859E0,-5.844663343E0,5.231749427E0,8.124062578E0
3.958156292E0,3.127163144E0,-1.016297887E1,5.882934539E0,1.215212770E1
3.968155292E0,3.785814565E0,-1.392656144E1,6.504899944E0,1.583019990E1
3.978154292E0,3.115669565E0,-1.660127669E1,5.001361529E0,1.761599846E1
3.988154292E0,1.788112168E0,-1.621024531E1,4.248047195E0,1.685275358E1
3.998153292E0,1.884837394E0,-1.213634515E1,5.006670216E0,1.326311548E1
4.008152292E0,2.474872324E0,-1.053438348E1,6.629039841E0,1.269024813E1
4.018150792E0,3.579110522E0,-1.364987354E1,1.338245230E1,1.944785616E1
4.028150792E0,3.069335058E0,-1.757827626E1,9.001359311E0,1.998602220E1
4.038149792E0,3.146382065E0,-1.623885223E1,2.255960902E0,1.669399297E1
4.048148792E0,3.762898158E0,-1.020179152E1,1.245900153E0,1.094478048E1
4.058147792E0,2.715866487E0,-4.032233482E0,-3.050258517E-2,4.861663094E0
4.068147792E0,1.569488868E0,-2.733351123E-1,-1.845192687E0,2.437774281E0
4.078146792E0,1.681062075E0,1.957680545E0,-2.726500525E0,3.753969623E0
4.088145792E0,1.886494203E0,2.945867007E0,-3.531235566E0,4.970575160E0
4.098145792E0,1.545426698E0,2.871945922E0,-5.120699108E0,6.071077039E0
4.108144792E0,9.961448148E-2,2.424068499E0,-8.449364027E0,8.790778327E0
4.118143792E0,-3.207563236E0,2.631097355E0,-1.792984711E1,1.840354729E1
4.128142792E0,-6.938303754E0,2.103350474E0,-2.345174591E1,2.454686392E1
4.138142792E0,-6.047930685E0,1.993894690E0,-1.440727741E1,1.575191176E1
4.148141792E0,-3.037689927E0,2.583975813E0,-4.676056657E0,6.145729977E0
4.158140792E0,-1.865960682E0,3.396578575E0,-2.658352689E0,4.699510007E0
4.168140792E0,-1.307076062E0,4.083939825E0,-2.214306361E0,4.825988499E0
4.178139792E0,-8.343381782E-1,4.602817649E0,-1.815206119E0,5.017671149E0
4.188138792E0,-9.389546603E-2,5.128288794E0,-1.560305085E0,5.361223206E0
4.198137792E0,-3.122325450E-1,5.449174633E0,-1.189467213E0,5.586217467E0
4.208137792E0,-6.588440868E-1,5.435860523E0,-5.621138906E-1,5.504418878E0
4.218136792E0,5.810436666E-2,5.607937063E0,-2.139452353E-2,5.608278876E0
4.228135792E0,8.669517544E-1,5.548989528E0,6.651903623E-1,5.655560834E0
4.238134792E0,1.453792935E0,4.839897686E0,1.256889410E0,5.207484469E0
4.248134792E0,2.280168814E0,3.594717325E0,9.084327793E-1,4.352747705E0
4.258133792E0,2.564437342E0,2.121937019E0,2.862668876E-1,3.340793966E0
4.268132792E0,2.796679392E0,1.028837475E0,1.326592533E-1,2.982871209E0
4.278132792E0,3.062241801E0,3.246672338E-1,2.308345157E-1,3.088044403E0
4.288131792E0,3.178062864E0,3.471082628E-2,6.781138784E-1,3.249788738E0
4.298130792E0,3.495504109E0,4.390908122E-1,1.149486657E0,3.705761634E0
4.308129792E0,3.809245528E0,7.124259245E-1,1.111316544E0,4.031491864E0
4.318129792E0,3.783385632E0,5.427479124E-1,1.410547221E0,4.074091997E0
4.328128792E0,3.690557867E0,3.800099605E-1,1.936494328E0,4.185049011E0
4.338127792E0,3.423136044E0,-3.725728869E-2,2.965680297E0,4.529294438E0
4.348127792E0,3.128017715E0,-8.018415463E-1,4.084463736E0,5.206754142E0
4.358126792E0,3.156309468E0,-1.746085598E0,3.660613691E0,5.139182519E0
4.368125792E0,3.249862579E0,-2.954163621E0,2.595443373E0,5.101471923E0
4.378124792E0,3.394328567E0,-4.226847530E0,1.609441284E0,5.654910053E0
4.388124792E0,3.366532073E0,-5.699357695E0,1.327502579E0,6.751183558E0
4.398123792E0,3.409485134E0,-7.620203120E0,1.518611806E0,8.485179214E0
4.408122792E0,3.733910878E0,-9.760595706E0,1.694556864E0,1.058691843E1
4.418121792E0,4.296381449E0,-1.131729057E1,1.651899087E0,1.221755827E1
4.428121792E0,5.013551220E0,-1.195303494E1,1.190549240E0,1.301645680E1
4.438120792E0,5.738594851E0,-1.141342582E1,7.279336175E-1,1.279561046E1
4.448119792E0,6.556637278E0,-9.830818427E0,1.557400042E-1,1.181772983E1
4.458119792E0,7.365263933E0,-7.912049932E0,-1.636124030E-1,1.081084714E1
4.468118792E0,8.460932744E0,-5.988519466E0,-8.231762820E-1,1.039843101E1
4.478117792E0,9.104667333E0,-4.317706829E0,-1.472024846E0,1.018353655E1
4.488116792E0,9.146862010E0,-3.012401304E0,-1.844864658E0,9.805262458E0
4.498116792E0,8.594592492E0,-1.950373279E0,-2.221331499E0,9.088745219E0
4.508115792E0,7.893651084E0,-9.445475221E-1,-2.540593274E0,8.346047666E0
4.518114792E0,7.071091683E0,-5.549007654E-2,-1.998963642E0,7.348419720E0
4.528114792E0,5.954029080E0,8.411599785E-1,2.703262521E0,6.592847689E0
4.538113792E0,4.623890430E0,8.253783435E-1,3.998429559E0,6.168391286E0
4.548112792E0,3.943263126E0,-1.462203278E0,1.973370963E-1,4.210261801E0
4.558111792E0,3.384457882E0,-4.188392732E0,-6.360729825E-1,5.422340608E0
4.568111792E0,2.611868201E0,-6.726984211E0,3.914284033E-1,7.226851892E0
4.578110792E0,1.438153388E0,-9.424270293E0,1.508789799E0,9.652025818E0
4.588109792E0,1.458462229E-1,-1.183461245E1,2.287185765E0,1.205448223E1
4.598109792E0,-1.215792693E0,-1.358303518E1,2.402358372E0,1.384732185E1
4.608108792E0,-2.857113875E0,-1.448810932E1,2.485741421E0,1.497488971E1
4.618107792E0,-3.727638278E0,-1.341336068E1,2.311434168E0,1.411227337E1
4.628106792E0,-3.974290498E0,-1.107177768E1,9.195571071E-1,1.179935724E1
4.638106792E0,-3.862087108E0,-8.321168502E0,-1.365394437E0,9.274797250E0
4.648105792E0,-3.639673643E0,-5.573035617E0,-3.891160049E0,7.710193042E0
4.658104792E0,-4.295853446E0,-2.628511131E0,-1.140706171E1,1.246934178E1
4.668103792E0,-5.957889411E0,7.360814202E-1,-2.202343484E1,2.282695653E1
4.678103792E0,-8.197967083E0,3.274896263E0,-3.026644420E1,3.152759512E1
4.688102792E0,-9.419538726E0,4.462261110E0,-2.488946163E1,2.698378743E1
4.698101792E0,-9.306785697E0,4.853425219E0,-1.575286207E1,1.892946538E1
4.708101792E0,-7.061402262E0,5.141294171E0,-6.988532506E0,1.118641561E1
4.718100792E0,-5.751382127E0,5.657326739E0,-2.354900908E0,8.404124017E0
4.728099792E0,-6.588399938E0,5.869202353E0,-2.633378354E-1,8.827451320E0
4.738098792E0,-7.334197676E0,5.853265767E0,1.136661008E0,9.452151815E0
4.748098792E0,-7.658310009E0,5.966190704E0,1.964607595E0,9.904788070E0
4.758097792E0,-8.126286651E0,6.450343668E0,2.960597312E0,1.078928193E1
4.768096792E0,-9.047062318E0,6.736242108E0,4.179116124E0,1.202876992E1
4.778096792E0,-1.020200085E1,6.751740738E0,3.191100401E0,1.264317784E1
4.788095792E0,-1.118746952E1,5.616155325E0,-4.631514030E0,1.334734420E1
4.798094792E0,-1.051583377E1,1.946241637E0,-1.097320532E1,1.532259284E1
4.808093792E0,-7.119162228E0,2.825760520E0,2.631208452E0,8.098805545E0
4.818093792E0,-6.432061179E0,3.026713534E0,4.834723485E0,8.596915551E0
4.828092792E0,-5.041604991E0,3.391531259E-1,4.701516895E0,6.901961087E0
4.838091792E0,-3.459161617E0,-3.761525524E0,5.831516463E0,7.753802784E0
4.848090792E0,-2.186167513E0,-7.956526194E0,5.471413348E0,9.900606117E0
4.858090792E0,-2.656261432E-1,-1.170408272E1,6.370671846E0,1.332822454E1
4.868089792E0,2.191663019E0,-1.404238309E1,6.637627062E0,1.568598109E1
4.878088792E0,2.817318310E0,-1.464856978E1,4.757215133E0,1.565723395E1
4.888088792E0,1.914004768E0,-1.359053599E1,3.236825042E0,1.410117439E1
4.898087792E0,1.422817895E0,-1.079602182E1,2.345858481E0,1.113918983E1
4.908086792E0,1.024403166E0,-1.026622432E1,2.040847101E0,1.051712036E1
4.918085792E0,6.762008156E-1,-1.329471366E1,2.532988678E0,1.355074501E1
4.928085792E0,6.815017551E-1,-1.632051210E1,2.157951189E0,1.647665965E1
4.938084792E0,1.108265321E0,-1.655297635E1,1.074160997E0,1.662477368E1
4.948083792E0,2.533052997E0,-1.113904990E1,1.882995229E0,1.157758443E1
4.958082792E0,3.437042769E0,-4.398745730E0,6.585701448E0,8.633289672E0
4.968082792E0,2.581408593E0,1.660112232E-1,2.835787910E0,3.838349010E0
4.978081792E0,1.807082582E0,1.809486372E0,-1.480475973E0,2.954927664E0
4.988080792E0,1.642546027E0,2.161519160E0,-1.406951329E0,3.057717216E0
4.998080792E0,1.372478777E0,2.474549266E0,-1.042475813E0,3.015600750E0
5.008079792E0,7.656947900E-1,2.924128813E0,-1.680585673E0,3.458494764E0
5.018078792E0,5.825300288E-1,3.193274395E0,-2.343193612E0,4.003360951E0
5.028078083E0,4.930173433E-1,3.559594855E0,-2.773326783E0,4.539286626E0
5.038078083E0,4.216821894E-1,4.001141497E0,-3.116491683E0,5.089152146E0
5.048077083E0,6.325225532E-1,4.494160595E0,-3.643505323E0,5.820025367E0
5.058076083E0,6.775616089E-1,5.075925223E0,-4.215862366E0,6.633068829E0
5.068076083E0,4.971761754E-1,5.642252617E0,-4.699565095E0,7.359898833E0
5.078075083E0,2.724729404E-1,6.045339784E0,-6.078441457E0,8.577168831E0
5.088074083E0,-7.610004991E-1,6.198362587E0,-1.111764792E1,1.275150641E1
5.098073083E0,-1.818372094E0,6.340751644E0,-1.378072721E1,1.527809055E1
5.108073083E0,-6.745263192E-1,6.359959162E0,-7.494474535E0,9.852472525E0
5.118072083E0,4.055304256E-1,6.135528992E0,-3.327414200E0,6.991484549E0
5.128071083E0,1.025643725E0,5.530353282E0,-2.139082224E0,6.017676066E0
5.138070083E0,1.304066500E0,4.355789160E0,-1.615182227E0,4.825173807E0
5.148070083E0,1.487247780E0,2.858266945E0,-1.580802353E0,3.588945802E0
5.158069083E0,1.552113867E0,1.416639435E0,-1.581203472E0,2.629853449E0
5.168068083E0,1.882398520E0,4.681929892E-1,-1.088701853E0,2.224387689E0
5.178068083E0,2.086334492E0,7.063202620E-2,-4.578287995E-1,2.137144755E0
5.188067083E0,2.205937534E0,3.489401954E-1,1.461657733E-1,2.238143002E0
5.198066083E0,2.324771959E0,8.982580394E-1,8.152335705E-1,2.622220041E0
5.208065083E0,2.356136717E0,1.267282251E0,1.811103859E0,3.230709166E0
5.218065083E0,1.875800522E0,1.366916467E0,3.490196006E0,4.191486179E0
5.228064083E0,1.214822494E0,9.504146183E-1,4.286462232E0,4.555528521E0
5.238063083E0,1.040228435E0,1.854526305E-1,4.062909729E0,4.198059474E0
5.248062083E0,1.669937893E0,-5.544189548E-1,3.651717737E0,4.053531223E0
5.258062083E0,2.232240649E0,-1.559668177E0,3.417282981E0,4.369586492E0
5.268061083E0,2.469749871E0,-2.898153727E0,2.957366726E0,4.821304533E0
5.278060083E0,2.615056688E0,-4.710215798E0,2.129372777E0,5.793002915E0
5.288060083E0,2.737341848E0,-6.753061624E0,1.541528213E0,7.448032688E0
5.298059083E0,2.790582501E0,-8.909903011E0,1.353489944E0,9.434280969E0
5.308058083E0,3.195954759E0,-1.098775202E1,1.308516816E0,1.151768369E1
5.318057083E0,3.741657270E0,-1.263075063E1,1.498201807E0,1.325822270E1
5.328057083E0,4.608267839E0,-1.291382720E1,1.499858616E0,1.379320997E1
5.338056083E0,5.686390325E0,-1.109971802E1,1.372636067E0,1.254682847E1
5.348055083E0,7.146362890E0,-8.059168802E0,1.633317220E0,1.089442194E1
5.358054083E0,8.415684650E0,-5.945641834E0,1.776302254E0,1.045608218E1
5.368054083E0,9.834876394E0,-4.454117693E0,1.601829233E0,1.091466055E1
5.378053083E0,1.172033213E1,-2.770171040E0,1.240430960E0,1.210696914E1
5.388052083E0,1.321351805E1,-1.447484667E0,1.187569499E-2,1.329256981E1
5.398052083E0,1.355670166E1,-4.415413803E-1,-1.002696328E0,1.360090139E1
5.408051083E0,1.263260770E1,2.465373230E-1,-1.181815254E0,1.269016333E1
5.418050083E0,1.165458136E1,6.842224646E-1,-6.369354469E-1,1.169201068E1
5.428049083E0,8.889147735E0,3.632787377E-1,4.294474672E0,9.878837563E0
5.438049083E0,5.819599253E0,-1.068425463E0,5.729388410E0,8.236210293E0
5.448048083E0,5.298223498E0,-3.505003495E0,3.926266732E0,7.468051432E0
5.458047083E0,4.499475714E0,-5.816659858E0,3.313277387E0,8.065768447E0
5.468046083E0,2.438460543E0,-9.167179915E0,2.917153962E0,9.924367217E0
5.478046083E0,1.198108813E0,-1.209040943E1,1.968700646E0,1.230809681E1
5.488045083E0,-7.779400291E-1,-1.480936237E1,1.505570322E0,1.490601041E1
5.498044083E0,-3.307801470E0,-1.672723039E1,-3.603160997E-1,1.705495866E1
5.508044083E0,-6.072246916E0,-1.681311780E1,-4.766295859E0,1.850055915E1
5.518043083E0,-7.378009109E0,-1.439752426E1,-6.927256610E0,1.759859674E1
5.528042083E0,-7.242857151E0,-1.102203191E1,-5.576000156E0,1.431907626E1
5.538041083E0,-6.878871485E0,-7.523044615E0,-4.869710592E0,1.129730740E1
5.548041083E0,-6.860748040E0,-4.443814314E0,-6.112638313E0,1.020694354E1
5.558040083E0,-7.181902851E0,-9.604513639E-1,-1.630968540E1,1.784679336E1
5.568039083E0,-8.820096796E0,2.959547153E0,-3.013018069E1,3.153380432E1
5.578038083E0,-7.216457557E0,3.472429242E0,-1.569104413E1,1.761657999E1
5.588038083E0,-6.097927887E0,3.748424837E0,-9.753624655E0,1.209828943E1
5.598037083E0,-5.759088172E0,4.621445709E0,-7.137662233E0,1.026991135E1
5.608036083E0,-5.480135640E0,5.466104077E0,-3.417297307E0,8.460975197E0
5.618036083E0,-5.847630805E0,6.541011763E0,-1.506774264E0,8.902246323E0
5.628035083E0,-6.367545925E0,7.431086040E0,-1.412239990E-1,9.787064169E0
5.638034083E0,-7.121430947E0,8.203309684E0,1.547791312E0,1.097290875E1
5.648033083E0,-8.087459385E0,9.102501524E0,3.307422570E0,1.261751074E1
5.658033083E0,-9.381571001E0,1.009226147E1,3.788002593E0,1.429043665E1
5.668032083E0,-1.157522529E1,1.071500865E1,2.103356906E0,1.591293063E1
5.678031083E0,-1.518844087E1,9.872665780E0,-1.025755641E1,2.081767828E1
5.688030083E0,-1.685129310E1,4.656451820E0,-2.297910377E1,2.887365292E1
5.698030083E0,-9.601635640E0,2.283290350E0,-5.445471591E0,1.127199994E1
5.708029083E0,-6.194637911E0,3.565846113E0,5.164112345E0,8.817984671E0
5.718028083E0,-5.907537283E0,3.198999989E0,6.402635651E0,9.280427843E0
5.728028083E0,-4.937663716E0,5.750134331E-1,7.957362345E0,9.382471898E0
5.738027083E0,-8.553438619E-1,-2.483169231E0,1.046853565E1,1.079295979E1
5.748026083E0,8.121060410E-1,-6.832738123E0,9.786400638E0,1.196325474E1
5.758025083E0,1.630174780E0,-1.174530208E1,7.943155950E0,1.427246710E1
5.768025083E0,4.315052778E0,-1.525887876E1,7.761750178E0,1.765496608E1
5.778024083E0,4.715896368E0,-1.662285993E1,6.791231078E0,1.856555871E1
5.788023083E0,3.974004862E0,-1.591570468E1,5.258105167E0,1.722643434E1
5.798022083E0,3.614494362E0,-1.256133131E1,3.838875416E0,1.362308989E1
5.808022083E0,3.689660612E0,-9.839338989E0,3.020990864E0,1.093400992E1
5.818021083E0,3.036605561E0,-1.100059134E1,2.624035088E0,1.170980543E1
5.828020083E0,1.665392706E0,-1.469747005E1,2.568553197E0,1.501288194E1
5.838020083E0,8.356947322E-1,-1.722937524E1,2.036204412E0,1.736939507E1
5.848019083E0,1.183840291E0,-1.466368951E1,1.121770197E0,1.475410575E1
5.858018083E0,2.811888293E0,-7.806503597E0,3.739902813E0,9.101378315E0
5.868017083E0,2.930564843E0,-1.058683417E0,2.635246539E0,4.080875544E0
5.878017083E0,1.667065595E0,1.552587783E0,-1.907857590E0,2.971457068E0
5.888016083E0,1.106655144E0,2.343913112E0,-1.447723964E0,2.968925557E0
5.898015083E0,1.096821151E0,2.876486869E0,-1.657845266E0,3.496518879E0
5.908014083E0,9.401657648E-1,3.270276963E0,-2.227133106E0,4.066785580E0
5.918014083E0,5.447134539E-1,4.019024622E0,-2.547362595E0,4.789397441E0
5.928013083E0,1.427023213E-1,4.490920653E0,-3.130641945E0,5.476280786E0
5.938012083E0,-2.489368741E-1,4.676233535E0,-4.097849767E0,6.222660392E0
5.948012083E0,-4.631714004E-1,4.878244895E0,-5.211074257E0,7.153117916E0
5.958011083E0,-2.306777446E0,5.181534709E0,-1.437639944E1,1.545478518E1
5.968010083E0,-5.996897941E0,5.378190020E0,-2.431678533E1,2.561627923E1
5.978009083E0,-2.743973468E0,5.896779576E0,-1.060922784E1,1.244415988E1
5.988009083E0,-6.837149262E-2,6.262477307E0,-3.855300537E0,7.354361897E0
5.998008083E0,1.114604726E0,6.880979991E0,-2.111788591E0,7.283534883E0
6.008007083E0,1.141243471E0,7.002320241E0,-1.124733565E0,7.183310588E0
6.018006083E0,6.291031015E-1,6.134094670E0,-3.720771892E-1,6.177485700E0
6.028006792E0,-2.086228073E-2,4.767132010E0,2.213346541E-1,4.772313052E0
6.038005792E0,5.484395921E-3,3.449859574E0,1.466160089E-1,3.452978050E0
6.048004792E0,5.136050972E-1,2.190771026E0,-4.805839701E-1,2.300919129E0
6.058004792E0,8.527260634E-1,8.384796149E-1,-6.896862490E-1,1.380527771E0
6.068003792E0,1.093538378E0,-2.627504826E-1,-5.587862402E-1,1.255828835E0
6.078002792E0,1.340881447E0,-9.655255777E-1,-5.425532001E-1,1.739128135E0
6.088001792E0,1.561556243E0,-1.224396433E0,-5.469702599E-1,2.058344235E0
6.098001792E0,1.823939520E0,-8.077864105E-1,-5.379380659E-1,2.066071543E0
6.108000792E0,2.293945146E0,5.732434809E-2,-5.185955496E-1,2.352533052E0
6.117999792E0,2.614496817E0,6.480626982E-1,-3.558399099E-1,2.717020594E0
6.127998792E0,2.768339692E0,7.401651156E-1,-1.653230059E-1,2.870345057E0
6.137998792E0,2.794675552E0,4.585731500E-1,3.825314261E-2,2.832307200E0
6.147997792E0,2.865258461E0,-2.344885504E-1,2.372291404E-1,2.884608915E0
6.157996792E0,2.919018347E0,-1.397099794E0,6.357513857E-1,3.297989655E0
6.167995792E0,2.855833919E0,-2.978569314E0,8.329340424E-1,4.209684270E0
6.177995792E0,2.846883586E0,-4.815889603E0,1.115343449E0,5.704518370E0
6.187994792E0,2.882959152E0,-6.804807143E0,1.881929866E0,7.626172943E0
6.197993792E0,3.261279268E0,-9.246996748E0,3.443558614E0,1.039235234E1
6.207993792E0,4.644666756E0,-1.119329686E1,3.789886274E0,1.269748250E1
6.217992792E0,6.193235748E0,-1.189572287E1,3.256085478E0,1.380095954E1
6.227991792E0,7.863570083E0,-1.135972966E1,2.869136335E0,1.411067453E1
6.237990792E0,9.569181839E0,-8.972950029E0,2.284622346E0,1.331550121E1
6.247990792E0,1.058152841E1,-5.996713754E0,1.738482171E0,1.228623781E1
6.257989792E0,1.079800637E1,-3.925498407E0,1.133740616E0,1.154520884E1
6.267988792E0,9.985535753E0,-2.805060207E0,4.848370886E-1,1.038336911E1
6.277987792E0,8.945710191E0,-2.134077008E0,-2.833239108E-1,9.201102539E0
6.287987792E0,9.045059647E0,-1.424806826E0,-1.104100203E0,9.222917964E0
6.297986792E0,9.168544071E0,-5.663484442E-1,-2.138698647E0,9.431700952E0
6.307985792E0,8.248402827E0,-6.193078458E-2,-3.191259445E0,8.844440144E0
6.317984792E0,6.736645566E0,-5.270101315E-1,-6.530939350E-1,6.788715994E0
6.327984792E0,5.238506470E0,-1.206794559E0,6.778093554E0,8.651060939E0
6.337983792E0,3.792302051E0,-3.299152268E0,3.593121035E0,6.178711784E0
6.347982792E0,3.155264278E0,-6.156143936E0,-2.885866973E-1,6.923661106E0
6.357982792E0,2.176318755E0,-8.696573780E0,1.743822725E0,9.132780329E0
6.367981792E0,8.267027378E-1,-1.114661035E1,3.831281052E0,1.181562839E1
6.377980792E0,-4.780388233E-1,-1.362476208E1,5.781375419E0,1.480834105E1
6.387979792E0,-1.639230655E0,-1.582798242E1,7.021923616E0,1.739308816E1
6.397979792E0,-2.841312944E0,-1.687269859E1,6.714477017E0,1.838056633E1
6.407978792E0,-3.411895941E0,-1.567620156E1,3.039268091E0,1.632854800E1
6.417977792E0,-3.300965782E0,-1.295672354E1,-2.021997432E0,1.352263043E1
6.427976792E0,-2.933441381E0,-9.508570186E0,-6.796291843E0,1.205021029E1
6.437976792E0,-4.017056449E0,-5.910280212E0,-1.504690082E1,1.665765227E1
6.447975792E0,-6.017002423E0,-2.065859297E0,-2.696795033E1,2.770816554E1
6.457974792E0,-1.017336703E1,3.362919078E0,-4.557742282E1,4.681995400E1
6.467974792E0,-1.058742708E1,3.913496997E0,-2.146856448E1,2.425506817E1
6.477973792E0,-6.726364406E0,4.076344292E0,-1.277473246E1,1.500181157E1
6.487972792E0,-4.516627936E0,5.041834787E0,-6.870697078E0,9.645024845E0
6.497971792E0,-3.905010933E0,5.944548404E0,-2.681355343E0,7.601081015E0
6.507971792E0,-3.660851673E0,7.105669777E0,-1.621306601E0,8.156041506E0
6.517970792E0,-3.875117628E0,8.102299034E0,-1.055856581E0,9.043153177E0
6.527969792E0,-4.036498441E0,8.898341312E0,-6.766137752E-1,9.794468029E0
6.537968792E0,-4.180981093E0,9.634818004E0,-4.242371303E-1,1.051143653E1
6.547968792E0,-4.394760268E0,1.035232224E1,-5.039832115E-2,1.124664543E1
6.557967792E0,-4.820192277E0,1.094508489E1,6.186582202E-1,1.197546971E1
6.567966792E0,-5.773302169E0,1.110364618E1,1.115375535E0,1.256447528E1
6.577965792E0,-8.782947096E0,1.002628617E1,-4.788153920E0,1.416308554E1
6.587965792E0,-8.323303320E0,6.836216047E0,-4.048408050E0,1.150655621E1
6.597964792E0,-5.330793659E0,6.550935658E0,2.180311965E0,8.722722012E0
6.607963792E0,-4.267448841E0,5.798293169E0,2.828725643E0,7.735180156E0
6.617963792E0,-2.767320815E0,3.655090411E0,3.365258549E0,5.687065633E0
6.627962792E0,-1.418332788E0,2.851190060E-1,3.691910913E0,3.965244877E0
6.637961792E0,-1.385129374E-1,-5.127532749E0,4.074006575E0,6.550443305E0
6.647960792E0,1.443341330E-1,-9.682948775E0,5.105746608E0,1.094755579E1
6.657960792E0,2.581504780E-1,-1.406407626E1,5.958822042E0,1.527653242E1
6.667959792E0,1.067450294E0,-1.717505226E1,5.987244188E0,1.822001546E1
6.677958792E0,6.836634707E-1,-1.800813899E1,5.594111322E0,1.886940771E1
6.687957792E0,1.447746183E0,-1.713833409E1,8.870555343E0,1.935213726E1
6.697957792E0,2.396864913E0,-1.978723271E1,1.363866325E1,2.415145285E1
6.707956792E0,1.686258349E0,-2.465416032E1,4.276236622E0,2.507902087E1
6.717955792E0,1.127196705E0,-2.332770073E1,9.449989271E-1,2.337402868E1
6.727954792E0,2.311748602E0,-1.376938361E1,1.082345930E0,1.400398441E1
6.737954792E0,2.234004315E0,-4.846458262E0,1.051722600E0,5.439214409E0
6.747953792E0,1.050013020E0,-3.913313395E-1,-1.818309529E0,2.135864486E0
6.757952792E0,7.157924590E-1,1.554743652E0,-2.839807286E0,3.315734019E0
6.767952792E0,7.432872364E-1,2.952376712E0,-3.190179757E0,4.409790363E0
6.777951792E0,6.091202420E-1,4.001507533E0,-4.022644341E0,5.706553907E0
6.787950792E0,3.458575433E-1,4.626491856E0,-4.637139343E0,6.559504983E0
6.797949792E0,3.287284175E-1,5.456164979E0,-5.527796879E0,7.773952469E0
6.807949792E0,-1.934361264E-1,6.158574039E0,-8.354277191E0,1.038072248E1
6.817948792E0,-3.113883240E0,6.273636718E0,-1.681566602E1,1.821596580E1
6.827947792E0,-3.340440043E0,6.574919182E0,-1.389040460E1,1.572677468E1
6.837946792E0,-1.692475986E0,6.750208767E0,-6.459640741E0,9.495090935E0
6.847946792E0,-2.096080339E0,6.694964858E0,-3.776468083E0,7.967296808E0
6.857945792E0,-3.027905781E0,6.159748160E0,-2.666690818E0,7.363555577E0
6.867944792E0,-3.653679186E0,5.068239643E0,-1.564383664E0,6.440785738E0
6.877943792E0,-3.419728579E0,3.762586209E0,-4.501581296E-1,5.104335498E0
6.887943792E0,-2.804137516E0,2.799236380E0,5.451487792E-1,3.999512309E0
6.897942792E0,-1.623245245E0,2.690382274E0,7.119246720E-1,3.221788113E0
6.907941792E0,-6.047915483E-1,2.534085615E0,3.584343195E-1,2.629798069E0
6.917941792E0,-2.457210517E-1,2.620191128E0,6.466481106E-1,2.709969403E0
6.927940792E0,1.964009571E-1,3.046723875E0,1.131248533E0,3.255890501E0
6.937939792E0,7.240624684E-1,3.362762373E0,1.132179995E0,3.621362834E0
6.947938792E0,9.997703809E-1,3.282262586E0,1.031678417E0,3.582896713E0
6.957938792E0,1.001391229E0,2.681136072E0,1.056067958E0,3.050664610E0
6.967937792E0,1.482330271E0,2.312653897E0,4.340662998E-1,2.781022228E0
6.977936792E0,1.636425161E0,2.420950763E0,4.496491295E-1,2.956530779E0
6.987935792E0,1.152759562E0,2.405161527E0,8.337538221E-1,2.794423378E0
6.997935792E0,1.030565912E0,2.219396655E0,5.449422994E-1,2.506940310E0
7.007934792E0,1.304543048E0,1.991040664E0,2.757008958E-1,2.396265110E0
7.017933792E0,1.561833985E0,1.203363998E0,4.510284146E-1,2.022581751E0
7.027932292E0,1.763499191E0,2.639210951E-1,7.009234281E-1,1.915953390E0
7.037932292E0,1.926320758E0,-6.256631845E-1,9.288740605E-1,2.228221960E0
7.047931292E0,1.958388350E0,-1.665430275E0,1.316149771E0,2.888112385E0
7.057930292E0,1.944367312E0,-2.883900554E0,1.694778619E0,3.869072398E0
7.067929292E0,1.854962507E0,-4.191991108E0,1.934364772E0,4.975484140E0
7.077929292E0,1.804352225E0,-5.701625245E0,2.198437895E0,6.371604709E0
7.087928292E0,1.797107232E0,-7.194643934E0,2.581950923E0,7.852322352E0
7.097927292E0,1.841889887E0,-8.591406929E0,2.975369718E0,9.276726596E0
7.107927292E0,2.075094389E0,-9.864146386E0,2.993438199E0,1.051513542E1
7.117926292E0,2.654818339E0,-1.043968431E1,2.582609904E0,1.107722632E1
7.127925292E0,3.578995916E0,-9.691260007E0,1.701545602E0,1.047019531E1
7.137924292E0,4.920839522E0,-8.228372020E0,9.659622916E-1,9.636070302E0
7.147924292E0,6.274044269E0,-6.926107047E0,5.353605402E-1,9.360619703E0
7.157923292E0,7.513949856E0,-5.891614730E0,3.496956557E-1,9.554729385E0
7.167922292E0,9.403492212E0,-5.150549144E0,4.806726285E-1,1.073242137E1
7.177921292E0,1.247839090E1,-3.742661237E0,5.608519153E-1,1.303964368E1
7.187921292E0,1.710858813E1,-1.865357687E0,-1.277024589E-1,1.721045192E1
7.197920292E0,2.017356292E1,7.605473399E-3,-5.023088613E-1,2.017981697E1
7.207919292E0,1.855490394E1,2.610278928E-1,-8.333425435E-1,1.857544227E1
7.217918292E0,1.409737498E1,-1.292581399E0,-1.016337882E0,1.419294511E1
7.227918292E0,9.674393129E0,-3.284914298E0,3.985259875E0,1.096662394E1
7.237917292E0,5.158997785E0,-5.452788797E0,9.729084476E0,1.228833791E1
7.247916292E0,1.632340297E0,-8.844520031E0,6.943553385E0,1.136235024E1
7.257915292E0,1.789324003E-1,-1.165577536E1,3.996597041E0,1.232322620E1
7.267915292E0,-7.617489427E-1,-1.320951037E1,4.356339383E0,1.393015142E1
7.277914292E0,-1.112749405E0,-1.405672982E1,5.570555813E0,1.516116607E1
7.287913292E0,-1.210786892E0,-1.436822503E1,5.749581184E0,1.552319488E1
7.297913292E0,-1.505445777E0,-1.402030868E1,5.951036475E0,1.530523628E1
7.307912292E0,-2.166341798E0,-1.339648561E1,3.671623998E0,1.405843826E1
7.317911292E0,-3.074892252E0,-1.250986178E1,3.865752143E-1,1.288801942E1
7.327910292E0,-3.739475381E0,-1.072456534E1,-5.818459046E0,1.276144363E1
7.337910292E0,-5.387529777E0,-7.539481139E0,-1.657619681E1,1.899051220E1
7.347909292E0,-7.998669416E0,-4.201908571E0,-2.559533516E1,2.714324834E1
7.357908292E0,-1.154135120E1,1.082462289E0,-4.358442042E1,4.509962545E1
7.367907292E0,-1.162119259E1,2.732991520E0,-2.472823518E1,2.745918744E1
7.377907292E0,-8.093413605E0,2.543442914E0,-1.075211976E1,1.369600398E1
7.387906292E0,-5.310097439E0,3.883321856E0,-5.087811443E0,8.316438465E0
7.397905292E0,-4.124610718E0,5.480735564E0,-2.197633903E0,7.202809915E0
7.407904292E0,-3.947595620E0,6.835592734E0,-1.349912179E0,8.008189689E0
7.417904292E0,-3.927326832E0,8.029937986E0,-8.380244091E-1,8.978089163E0
7.427903292E0,-4.197855865E0,9.192046369E0,6.705744785E-1,1.012745676E1
7.437902292E0,-4.767216503E0,1.045934031E1,2.695426083E0,1.180633198E1
7.447901292E0,-5.443972365E0,1.169040608E1,3.543550680E0,1.337382447E1
7.457901292E0,-6.617472879E0,1.228368329E1,4.448302052E0,1.464469917E1
7.467900292E0,-7.246501136E0,1.225938928E1,3.697505529E0,1.471312174E1
7.477899292E0,-7.587796097E0,1.043020130E1,-1.334792157E-1,1.289889784E1
7.487898292E0,-8.759395680E0,7.599784643E0,-6.766825384E0,1.342660289E1
7.497898292E0,-8.263581029E0,5.502241039E0,-2.935408092E0,1.035268316E1
7.507897292E0,-6.976661489E0,4.401236059E0,1.440666521E0,8.373780771E0
7.517896292E0,-6.799759827E0,1.838090951E0,1.998825940E0,7.321927150E0
7.527895292E0,-6.310186493E0,-1.983970211E0,2.791110504E0,7.179476947E0
7.537895292E0,-5.849544014E0,-6.153261843E0,3.658703991E0,9.244777519E0
7.547894292E0,-4.725130291E0,-1.093939672E1,3.679839921E0,1.247150667E1
7.557893292E0,-2.623906157E0,-1.499422794E1,4.242182438E0,1.580214754E1
7.567893292E0,-3.186422628E-1,-1.747415606E1,4.467421862E0,1.803900000E1
7.577892292E0,1.071183595E0,-1.843416245E1,3.953344603E0,1.888371555E1
7.587891292E0,7.810324752E-1,-1.850773796E1,3.272952064E0,1.881112945E1
7.597890292E0,3.751314823E-1,-1.887925133E1,3.048615450E0,1.912749097E1
7.607890292E0,6.063486618E-1,-2.052455724E1,2.900152890E0,2.073730927E1
7.617889292E0,1.156196702E0,-2.108345517E1,2.402714321E0,2.125139781E1
7.627888292E0,3.429202530E0,-1.688419655E1,7.070092978E0,1.862315059E1
7.637887292E0,6.759588286E0,-1.061806766E1,1.833911829E1,2.224317096E1
7.647887292E0,5.493731586E0,-4.769507149E0,7.988857788E-1,7.318982421E0
7.657886292E0,3.705596906E0,-1.157994282E-1,-4.687041528E0,5.976053566E0
7.667885292E0,3.665033602E0,2.844782097E0,-4.381826227E0,6.381665735E0
7.677884292E0,3.914464712E0,4.310283204E0,-4.206906770E0,7.183288930E0
7.687884292E0,3.947497972E0,5.080027045E0,-4.092503073E0,7.624827632E0
7.697883292E0,3.665657207E0,5.417516053E0,-4.797119456E0,8.111650758E0
7.707882292E0,3.099478624E0,5.545756602E0,-5.471251380E0,8.384317247E0
7.717881292E0,2.457563981E0,5.440126652E0,-6.064449654E0,8.509532791E0
7.727881292E0,1.664318134E0,5.278128957E0,-6.965018513E0,8.896071213E0
7.737880292E0,7.711062419E-1,4.859385286E0,-7.732726353E0,9.165330711E0
7.747879292E0,-2.729977280E-2,4.211762883E0,-7.564049385E0,8.657628714E0
7.757878292E0,-6.367202693E-1,3.562729547E0,-6.822566891E0,7.723074097E0
7.767878292E0,-1.532279234E0,2.973144853E0,-6.037291092E0,6.901909424E0
7.777877292E0,-1.896699348E0,2.471474800E0,-4.775831790E0,5.702124638E0
7.787876292E0,-1.868318133E0,2.278278117E0,-3.148371288E0,4.312007141E0
7.797875292E0,-1.461671766E0,2.457931479E0,-2.341312855E0,3.695897373E0
7.807875292E0,-6.442684400E-1,2.939695855E0,-1.674008871E0,3.443718810E0
7.817874292E0,2.198939002E-1,3.630207000E0,-1.108294265E0,3.801982689E0
7.827873292E0,9.487043077E-1,4.171637535E0,-5.578793371E-1,4.314374687E0
7.837872292E0,1.202845350E0,4.352889526E0,3.262798959E-1,4.527796675E0
7.847872292E0,1.902300981E0,4.557391800E0,9.963154073E-1,5.037977117E0
7.857871292E0,2.686248001E0,3.907514711E0,5.784521075E-1,4.776945298E0
7.867870292E0,2.410248897E0,2.744604675E0,2.921830273E-1,3.664358810E0
7.877870292E0,2.397946063E0,1.863003014E0,1.721695107E-1,3.041474624E0
7.887869292E0,2.456322910E0,1.402486834E0,7.916077495E-2,2.829621527E0
7.897868292E0,2.645140028E0,1.293559638E0,1.975847259E-3,2.944497616E0
7.907867292E0,2.939135692E0,1.390538633E0,1.840937376E-1,3.256686477E0
7.917867292E0,3.097226569E0,1.426480299E0,5.235965270E-1,3.449900258E0
7.927866292E0,3.025928838E0,1.068486859E0,6.861619860E-1,3.281573978E0
7.937865292E0,2.781786242E0,3.470965683E-1,8.823465230E-1,2.938936221E0
7.947864292E0,2.427386793E0,-4.388499069E-1,1.322781683E0,2.799026128E0
7.957864292E0,2.280719329E0,-1.391316898E0,1.663068584E0,3.146941449E0
7.967863292E0,2.152781081E0,-2.495906221E0,1.970559037E0,3.840197543E0
7.977862292E0,1.986357045E0,-3.744725888E0,2.730378399E0,5.042177356E0
7.987861292E0,1.875889692E0,-5.112570308E0,3.425466744E0,6.433596173E0
7.997861292E0,1.816819950E0,-6.683069867E0,3.162675331E0,7.613591323E0
8.007860292E0,2.080953299E0,-8.340541497E0,2.736509789E0,9.021279561E0
8.017859292E0,2.561564021E0,-9.639801586E0,2.226059557E0,1.021972240E1
8.027858583E0,2.920702345E0,-1.018556900E1,1.697585868E0,1.073117495E1
8.037858583E0,3.783864811E0,-9.288809018E0,9.705698244E-1,1.007678578E1
8.047857583E0,5.391393033E0,-7.408803470E0,1.939451265E-1,9.164884200E0
8.057856583E0,6.795608888E0,-6.115201732E0,-2.212574708E-1,9.144667695E0
8.067855583E0,8.463603167E0,-4.950239323E0,-6.036624509E-1,9.823535834E0
8.077855583E0,1.060229889E1,-3.713297689E0,-6.417963834E-1,1.125207643E1
8.087854583E0,1.219572948E1,-2.732194544E0,-8.332019180E-1,1.252577063E1
8.097853583E0,1.340379230E1,-1.441785970E0,-9.727357793E-1,1.351616105E1
8.107852583E0,1.431512295E1,-8.475492311E-1,-1.966442013E0,1.447439046E1
8.117852583E0,1.319501161E1,-1.988222306E0,-3.156765258E0,1.371227648E1
8.127851583E0,1.023988496E1,-3.883656317E0,-2.181031027E0,1.116668826E1
8.137850583E0,6.880925612E0,-6.123931040E0,3.716674164E0,9.932941936E0
8.147849583E0,3.635323899E0,-8.214910560E0,7.674076442E0,1.181489672E1
8.157849583E0,1.090151378E0,-1.061092236E1,6.205602025E0,1.234056725E1
8.167848583E0,-4.344530931E-1,-1.236335044E1,4.893826556E0,1.330378600E1
8.177847583E0,-1.396350181E0,-1.293823231E1,4.510511164E0,1.377288496E1
8.187846583E0,-1.657562554E0,-1.273780379E1,4.866280323E0,1.373607816E1
8.197846583E0,-1.523335041E0,-1.186678383E1,4.915405705E0,1.293453986E1
8.207845583E0,-1.534255008E0,-1.057670680E1,4.213952081E0,1.148817032E1
8.217844583E0,-1.792036381E0,-9.554076726E0,2.623612919E0,1.006852130E1
8.227843583E0,-2.252055693E0,-8.584195558E0,-3.101776873E-1,8.880111397E0
8.237843583E0,-3.231898763E0,-7.386423837E0,-2.771290782E0,8.525519299E0
8.247842583E0,-4.376027543E0,-5.668714192E0,-5.924714649E0,9.294416674E0
8.257841583E0,-6.052381001E0,-3.512496702E0,-1.316400617E1,1.490838714E1
8.267840583E0,-7.623685722E0,-6.773619264E-1,-2.222979010E1,2.351048641E1
8.277840583E0,-1.111867820E1,3.325724940E0,-3.978734149E1,4.144536155E1
8.287839583E0,-1.169638427E1,4.419157775E0,-2.193766555E1,2.525065405E1
8.297838583E0,-7.419113281E0,4.261409837E0,-5.599584315E0,1.022537042E1
8.307837583E0,-5.810279961E0,5.509029071E0,-2.382225239E0,8.353666956E0
8.317837583E0,-6.343719106E0,6.579692849E0,-6.861239791E-2,9.140013005E0
8.327836583E0,-7.149651364E0,7.456199246E0,1.738689747E0,1.047546962E1
8.337835583E0,-7.956044383E0,8.519680889E0,2.636824703E0,1.195142038E1
8.347835583E0,-8.894030160E0,9.461455661E0,3.245317538E0,1.338487959E1
8.357834583E0,-9.960225495E0,1.038795283E1,5.227992007E0,1.531168039E1
8.367833583E0,-1.121511750E1,1.091405957E1,4.499410810E0,1.628312790E1
8.377832583E0,-1.384944368E1,1.009337127E1,-5.329410793E0,1.794675050E1
8.387832583E0,-1.718826697E1,5.946332390E0,-2.209484572E1,2.861778464E1
8.397831583E0,-1.077534022E1,4.010707542E0,-4.663433395E0,1.240731006E1
8.407830583E0,-6.362847687E0,4.670703238E0,5.262883512E0,9.486793045E0
8.417829583E0,-5.855331588E0,3.793703336E0,5.759461809E0,9.047015715E0
8.427829583E0,-5.730740286E0,1.397551784E0,6.357553033E0,8.672543790E0
8.437828583E0,-4.673681810E0,-2.294646812E0,6.526538150E0,8.348916449E0
8.447827583E0,-8.657904974E-1,-6.625511631E0,1.182956981E1,1.358623272E1
8.457826583E0,3.291146845E0,-1.064276747E1,1.241229514E1,1.667828581E1
8.467826583E0,3.833991237E0,-1.349721443E1,5.848240085E0,1.520119069E1
8.477825583E0,4.059509866E0,-1.572892824E1,3.989476302E0,1.672706565E1
8.487824583E0,2.481116566E0,-1.636772018E1,2.660884241E0,1.676718546E1
8.497823583E0,7.752378845E-1,-1.604814880E1,1.081848916E0,1.610324410E1
8.507823583E0,-3.751922934E-1,-1.750482119E1,1.361757469E0,1.756171739E1
8.517822583E0,-4.104713959E-1,-2.162539382E1,2.566435336E0,2.178101777E1
8.527821583E0,-2.157469086E-1,-2.561478066E1,2.438795881E0,2.573152270E1
8.537820583E0,1.389985341E0,-2.127198577E1,9.119604045E-1,2.133684864E1
8.547820583E0,3.026827262E0,-1.095755349E1,1.835477538E0,1.151514827E1
8.557819583E0,2.819827350E0,-2.914538210E0,2.690741878E0,4.866831733E0
8.567818583E0,1.773814118E0,1.456188247E0,6.626817606E-1,2.388733525E0
8.577817583E0,1.516281106E0,2.940137320E0,-9.986624797E-1,3.455552431E0
8.587817583E0,1.314673349E0,3.507228945E0,-1.865870196E0,4.184554036E0
8.597816583E0,1.278510221E0,4.125193101E0,-2.535489239E0,5.008044747E0
8.607815583E0,1.150023066E0,4.658279074E0,-2.674756175E0,5.493308437E0
8.617814583E0,8.701930122E-1,5.066122951E0,-2.513855711E0,5.722089493E0
8.627814583E0,7.809466673E-1,5.444542469E0,-2.669892754E0,6.114020585E0
8.637813583E0,7.636073340E-1,5.554158466E0,-2.990005006E0,6.353888760E0
8.647812583E0,7.173644829E-1,5.486631896E0,-3.375686766E0,6.481743786E0
8.657811583E0,7.286873236E-1,5.587409243E0,-3.623872712E0,6.699446298E0
8.667811583E0,5.254495096E-1,5.591416925E0,-4.104658849E0,6.956167384E0
8.677810583E0,-7.340980446E-1,5.134915443E0,-6.512251064E0,8.325603309E0
8.687809583E0,-1.464006559E0,4.929747756E0,-9.321573890E0,1.064600714E1
8.697808583E0,-1.050130110E0,4.941916396E0,-8.314009756E0,9.728723921E0
8.707808583E0,-3.056523809E-1,4.962169982E0,-5.700227176E0,7.563672664E0
8.717807583E0,3.135785741E-1,4.843986644E0,-3.980684136E0,6.277609762E0
8.727806583E0,7.740772122E-1,4.518501969E0,-2.835548466E0,5.390398007E0
8.737805583E0,1.035382263E0,4.218164999E0,-1.674797806E0,4.655091845E0
8.747805583E0,9.210610110E-1,3.675831655E0,-1.063291023E0,3.935820059E0
8.757804583E0,9.500944832E-1,2.861746624E0,-1.274802355E0,3.273743165E0
8.767803583E0,1.152929424E0,2.254998597E0,-1.208057412E0,2.806005638E0
8.777802583E0,1.400173968E0,1.842434848E0,-1.013303177E0,2.526229728E0
8.787802583E0,1.664834151E0,1.588870926E0,-8.549738793E-1,2.455028290E0
8.797801583E0,1.873517769E0,1.499705565E0,-3.590314664E-1,2.426538524E0
8.807800583E0,1.949151211E0,1.574608982E0,8.652351581E-2,2.507203664E0
8.817799583E0,1.883795128E0,1.636907557E0,3.631388430E-1,2.521908058E0
8.827799583E0,1.789140109E0,1.490159401E0,6.368727355E-1,2.413960283E0
8.837798583E0,1.866903107E0,9.836016601E-1,7.940266695E-1,2.254612558E0
8.847797583E0,1.793779874E0,2.771170914E-1,1.101350477E0,2.123066884E0
8.857796583E0,1.541246231E0,-4.300434154E-1,1.565472708E0,2.238544635E0
8.867796583E0,1.269322052E0,-1.383605005E0,1.816304811E0,2.612375250E0
8.877795583E0,1.034429752E0,-2.763579474E0,2.010120714E0,3.570434386E0
8.887794583E0,7.744029021E-1,-4.588484954E0,2.684276027E0,5.372078910E0
8.897793583E0,1.002797192E0,-6.656499535E0,3.230686635E0,7.466721128E0
8.907793583E0,1.506596801E0,-8.855503440E0,2.981157292E0,9.464516570E0
8.917792583E0,1.931088870E0,-1.087812492E1,2.865790558E0,1.141382764E1
8.927791583E0,2.356963513E0,-1.228904402E1,2.839426047E0,1.283114259E1
8.937790583E0,2.839242445E0,-1.245822034E1,2.831512426E0,1.308762829E1
8.947790583E0,3.608204513E0,-1.106205961E1,2.480805202E0,1.189717181E1
8.957789583E0,5.018131928E0,-8.766029931E0,1.602903074E0,1.022713191E1
8.967788583E0,6.574275404E0,-6.920518863E0,6.948481710E-1,9.570657887E0
8.977787583E0,7.870155802E0,-5.497541047E0,1.404963130E-1,9.601148323E0
8.987787583E0,9.362845877E0,-3.901788533E0,-2.165130401E-1,1.014562539E1
8.997786583E0,1.117871858E1,-2.483611865E0,-6.648889384E-1,1.147057776E1
9.007785583E0,1.267032224E1,-1.238693460E0,-1.413389845E0,1.280894602E1
9.017784583E0,1.352312695E1,1.003867525E-1,-1.619581672E0,1.362013527E1
9.027784542E0,1.262996125E1,7.324532229E-1,2.626224578E0,1.292089256E1
9.037783542E0,1.011296529E1,6.027900463E-1,1.316770044E1,1.661396273E1
9.047782542E0,7.415877432E0,-8.019222379E-1,2.576812389E0,7.891658853E0
9.057781542E0,6.164658067E0,-3.850524824E0,-1.202224960E0,7.367149744E0
9.067781542E0,4.776154849E0,-6.766538871E0,-5.633912149E-1,8.301512699E0
9.077780542E0,3.109604540E0,-9.023540724E0,3.164891718E-1,9.549559832E0
9.087779542E0,1.744114501E0,-1.073008394E1,1.253334741E0,1.094291939E1
9.097778542E0,2.865787634E-1,-1.246425701E1,1.743573488E0,1.258887916E1
9.107778542E0,-1.318120721E0,-1.382295814E1,1.668740968E0,1.398557508E1
9.117777542E0,-2.695479877E0,-1.403698494E1,-1.908766539E-1,1.429471902E1
9.127776542E0,-3.811094710E0,-1.290530196E1,-2.538765727E0,1.369366981E1
9.137775542E0,-4.107914871E0,-1.041822503E1,-4.123795032E0,1.193398772E1
9.147775542E0,-4.547165020E0,-7.389587765E0,-7.050854470E0,1.118021761E1
9.157774542E0,-5.534734601E0,-4.658829297E0,-1.256424907E1,1.449821824E1
9.167773542E0,-7.576371222E0,-1.174482261E0,-2.439138878E1,2.556796152E1
9.177772542E0,-1.153019939E1,2.438264953E0,-3.376466492E1,3.576231580E1
9.187772542E0,-9.880884626E0,3.172820835E0,-1.615900031E1,1.920447771E1
9.197771542E0,-7.214003481E0,3.861159739E0,-1.027683702E1,1.313635337E1
9.207770542E0,-5.285263145E0,4.884825352E0,-5.460228209E0,9.033804145E0
9.217769542E0,-4.769949784E0,5.975344520E0,-2.683100152E0,8.102850702E0
9.227768542E0,-4.934509728E0,6.909172341E0,-1.230367609E0,8.579035677E0
9.237768542E0,-5.535382472E0,7.640824496E0,5.184357744E-1,9.449414465E0
9.247767542E0,-5.848889126E0,8.393989141E0,9.553239405E-2,1.023121127E1
9.257766542E0,-5.747008410E0,9.197739218E0,-3.819600070E-1,1.085229956E1
9.267765542E0,-5.739887670E0,1.003030437E1,2.411456054E-1,1.155904267E1
9.277765542E0,-6.434207107E0,1.058434911E1,-2.821418962E-1,1.238979706E1
9.287764542E0,-9.343274662E0,1.022654395E1,-7.588811173E0,1.579458887E1
9.297763542E0,-1.253440254E1,6.932215633E0,-1.247669403E1,1.899565094E1
9.307762542E0,-8.417123650E0,5.293481407E0,-1.322809896E0,1.003088939E1
9.317762542E0,-6.163491547E0,5.731322084E0,3.299874399E0,9.040235170E0
9.327761542E0,-5.215577783E0,4.317846578E0,3.606424035E0,7.671528205E0
9.337760542E0,-3.057926264E0,1.837700942E0,4.469025461E0,5.718412923E0
9.347759542E0,6.569434494E-2,-3.160367435E0,4.655200515E0,5.627000081E0
9.357759542E0,2.320952266E0,-8.347920683E0,5.638415090E0,1.033761693E1
9.367758542E0,4.964272056E0,-1.339929345E1,7.072309073E0,1.594373286E1
9.377757542E0,5.520610651E0,-1.718624150E1,8.110281068E0,1.978940873E1
9.387756542E0,4.199924903E0,-1.931200610E1,7.350878028E0,2.108621248E1
9.397756542E0,2.110913263E0,-1.820641924E1,5.682739323E0,1.918914231E1
9.407755542E0,1.104891478E0,-1.344955728E1,7.276871574E0,1.533180473E1
9.417754542E0,1.403075649E0,-1.285440195E1,1.533559072E1,2.005952675E1
9.427753542E0,1.202281094E0,-1.810301007E1,1.145864701E1,2.145844926E1
9.437753542E0,9.277835548E-1,-1.985996505E1,1.523014905E0,1.993987384E1
9.447752542E0,1.792949862E0,-1.600957238E1,-4.078111321E-1,1.611481886E1
9.457751542E0,3.033648916E0,-9.475362679E0,-9.372572136E-1,9.993196422E0
9.467750542E0,3.487378233E0,-2.942056376E0,-1.510368840E0,4.806112430E0
9.477750542E0,3.004526274E0,1.202661163E0,-3.506831042E0,4.771942578E0
9.487749542E0,2.761544935E0,2.790181966E0,-4.489609707E0,5.963878030E0
9.497748542E0,2.663648220E0,3.673516742E0,-5.353021849E0,7.017448968E0
9.507747542E0,1.615416846E0,4.872811078E0,-1.018813710E1,1.140841781E1
9.517747542E0,-1.444003673E0,5.782082348E0,-1.727121791E1,1.827053888E1
9.527746542E0,-6.389074788E0,4.285582811E0,-1.970458582E1,2.115318414E1
9.537745542E0,-5.966968968E0,3.388614668E0,-1.421654475E1,1.578599292E1
9.547744542E0,-1.853029857E0,4.020426199E0,-5.927261696E0,7.397971187E0
9.557744542E0,-5.309270351E-1,4.436599435E0,-3.328434832E0,5.571694221E0
9.567743542E0,-2.230094428E-1,4.494914301E0,-2.993560991E0,5.405126751E0
9.577742542E0,-9.214890271E-2,4.635073814E0,-2.786679484E0,5.409064913E0
9.587741542E0,-4.906090213E-1,4.528136426E0,-2.524653472E0,5.207551426E0
9.597741542E0,-7.644012398E-1,4.359912032E0,-2.056751089E0,4.880918686E0
9.607740542E0,-8.940290406E-1,4.199158625E0,-1.445034830E0,4.529938934E0
9.617739542E0,-7.871083170E-1,4.045463392E0,-7.708039409E-1,4.192785742E0
9.627738542E0,-3.966423655E-1,3.747284630E0,-1.737067437E-1,3.772219678E0
9.637738542E0,1.933951959E-1,3.471498365E0,2.363163900E-1,3.484902873E0
9.647737542E0,8.365661135E-1,3.194168435E0,7.596374401E-1,3.388156415E0
9.657736542E0,1.318192496E0,3.079163643E0,1.459276162E0,3.653541722E0
9.667735542E0,1.733251252E0,3.012981933E0,2.083036662E0,4.052315605E0
9.677734542E0,1.979245369E0,2.801037907E0,1.919178384E0,3.930199900E0
9.687734542E0,2.014112315E0,2.359118797E0,1.540110848E0,3.463240006E0
9.697733542E0,2.201355071E0,1.856731290E0,1.432250916E0,3.216326774E0
9.707732542E0,2.385319000E0,1.701683596E0,1.785081849E0,3.431033518E0
9.717731542E0,2.643946319E0,1.487214743E0,1.882107037E0,3.569956124E0
9.727731542E0,2.860327797E0,1.343703606E0,1.996758657E0,3.738189350E0
9.737730542E0,2.762222628E0,1.114610281E0,3.462922838E0,4.567719837E0
9.747729542E0,1.985912071E0,5.327135056E-1,6.252749294E0,6.582135229E0
9.757728542E0,1.268091213E0,-3.049551004E-1,7.857503597E0,7.965011972E0
9.767728542E0,1.244117629E0,-1.538281401E0,7.494321923E0,7.751064406E0
9.777727542E0,1.351981509E0,-3.263654407E0,5.651743818E0,6.664945781E0
9.787726542E0,1.657176930E0,-4.844340400E0,3.680514690E0,6.305557681E0
9.797725542E0,1.967258284E0,-6.150042366E0,2.272402834E0,6.845212992E0
9.807725542E0,2.213871621E0,-7.315169082E0,1.234612103E0,7.741911476E0
9.817724542E0,2.342176489E0,-8.312978307E0,9.129287034E-1,8.684747426E0
9.827723542E0,2.430807999E0,-9.301095772E0,9.820176494E-1,9.663517411E0
9.837722542E0,2.742413138E0,-1.016430852E1,1.046172130E0,1.057962541E1
9.847722542E0,3.319249148E0,-1.071960924E1,1.002923200E0,1.126646760E1
9.857721542E0,4.192723179E0,-1.031026906E1,5.710933866E-1,1.114480702E1
9.867720542E0,5.407999710E0,-8.800521487E0,2.447936833E-1,1.033225838E1
9.877719542E0,6.619444560E0,-7.344382356E0,-2.214106679E-1,9.889692673E0
9.887719542E0,7.725462942E0,-6.208456051E0,-7.738731444E-1,9.941156062E0
9.897718542E0,8.828755937E0,-5.200630546E0,-1.224307701E0,1.031951640E1
9.907717542E0,1.008894493E1,-4.348009440E0,-1.432314066E0,1.107896744E1
9.917716542E0,1.231084244E1,-3.186025017E0,-1.813204909E0,1.284504998E1
9.927716542E0,1.360181995E1,-2.018434870E0,-2.504666519E0,1.397701469E1
9.937715542E0,1.417121362E1,-1.263780938E0,4.359292227E-1,1.423413053E1
9.947714542E0,1.229982512E1,-1.990569963E0,1.444107900E1,1.907335391E1
9.957713542E0,8.165863531E0,-1.569070500E0,1.458355518E0,8.442162652E0
9.967713542E0,7.099514998E0,-2.438423413E0,-4.221881782E0,8.612392683E0
9.977712542E0,5.735325088E0,-3.933361743E0,-4.207118147E0,8.128045987E0
9.987711542E0,3.802287341E0,-5.748184869E0,-3.890809216E0,7.914380245E0
9.997710542E0,2.305995088E0,-7.662899489E0,-2.196151341E0,8.298236116E0
1.000770954E1,6.702999517E-1,-1.021157040E1,2.603681807E-1,1.023685809E1
1.001770954E1,-8.485064203E-1,-1.233461839E1,1.242827441E0,1.242607718E1
1.002770879E1,-2.993582041E0,-1.356861010E1,8.634168202E-1,1.392171692E1
1.003770779E1,-4.730620242E0,-1.381520707E1,7.206723990E-1,1.462046794E1
1.004770679E1,-5.754329123E0,-1.285879671E1,-3.340602010E-1,1.409157737E1
1.005770679E1,-6.047761701E0,-1.055439967E1,-1.566486030E0,1.226477282E1
1.006770579E1,-5.990742577E0,-7.861082677E0,-1.812609370E0,1.004844118E1
1.007770479E1,-5.826768524E0,-5.250480983E0,-2.878603562E0,8.354947064E0
1.008770379E1,-5.854976077E0,-2.888530380E0,-4.887852455E0,8.155700720E0
1.009770379E1,-6.068776594E0,-9.293529475E-1,-6.280325933E0,8.782723955E0
1.010770279E1,-6.177251800E0,9.530780250E-1,-6.682995608E0,9.150367633E0
1.011770179E1,-6.046529692E0,2.694771194E0,-6.603231400E0,9.350132514E0
1.012770079E1,-5.840086142E0,4.183406226E0,-6.925777849E0,9.978671886E0
1.013770079E1,-7.675879723E0,5.346092899E0,-1.117993363E1,1.457706263E1
1.014769979E1,-1.115375915E1,6.614270943E0,-1.824013663E1,2.237984601E1
1.015769879E1,-1.034150839E1,7.444356880E0,-7.438224320E0,1.475440362E1
1.016769779E1,-1.000034324E1,7.878454755E0,-1.701838840E0,1.284418817E1
1.017769779E1,-1.094691507E1,8.099722751E0,2.875181186E-1,1.362068739E1
1.018769679E1,-1.363264764E1,8.032357564E0,9.409409595E-1,1.585096904E1
1.019769579E1,-1.854037595E1,7.029841331E0,-6.335178663E0,2.081582807E1
1.020769479E1,-2.111775259E1,4.266899788E0,-2.030113046E1,2.960239528E1
1.021769379E1,-1.440599102E1,2.755372907E0,-5.603380913E0,1.570103611E1
1.022769379E1,-9.115999821E0,3.276030039E0,5.545198193E0,1.116167768E1
1.023769279E1,-7.818904372E0,2.499968866E0,5.494534408E0,9.878006797E0
1.024769179E1,-7.536315456E0,6.843557811E-1,6.368608364E0,9.890579658E0
1.025769079E1,-6.922113984E0,-1.778375092E0,7.182098733E0,1.013216769E1
1.026769079E1,-5.356297460E0,-4.503885684E0,7.725114448E0,1.042364149E1
1.027768979E1,-1.438960011E0,-6.999046385E0,9.660334668E0,1.201579469E1
1.028768879E1,2.181592359E0,-9.514330863E0,1.097644468E1,1.468891333E1
1.029768779E1,1.827692263E0,-1.259705429E1,8.933454427E0,1.555097565E1
1.030768779E1,9.752430654E-1,-1.466151084E1,6.930555024E0,1.624634088E1
1.031768679E1,1.443180531E-2,-1.587982617E1,6.763526385E0,1.726019631E1
1.032768579E1,-8.244623771E-1,-1.826747119E1,7.352878361E0,1.970900967E1
1.033768479E1,-1.028734856E0,-2.352651074E1,8.575711833E0,2.506188015E1
1.034768479E1,-9.974447239E-1,-2.852089830E1,1.029243622E1,3.033761327E1
1.035768379E1,2.820534278E0,-2.524114592E1,1.254309151E1,2.832666598E1
1.036768279E1,6.119572526E0,-1.717883424E1,4.214498795E0,1.871693121E1
1.037768179E1,5.719093802E0,-9.259604514E0,-2.733974729E0,1.122153855E1
1.038768179E1,5.371614826E0,-3.645160670E0,-4.142430693E0,7.700725563E0
1.039768079E1,4.876085519E0,-9.684503549E-1,-4.449077393E0,6.671461288E0
1.040767979E1,4.746226168E0,7.446312189E-1,-5.571834015E0,7.357069578E0
1.041767879E1,4.394418790E0,2.336847922E0,-8.053983491E0,9.467757115E0
1.042767879E1,3.753176869E0,3.219692116E0,-8.498233886E0,9.832229306E0
1.043767779E1,3.309831915E0,3.873434799E0,-8.115486844E0,9.582255015E0
1.044767679E1,2.981095604E0,4.264449804E0,-7.812560728E0,9.386616443E0
1.045767579E1,2.636264539E0,4.274930354E0,-7.112197609E0,8.706794765E0
1.046767479E1,2.567843345E0,4.198559285E0,-6.240399975E0,7.947597836E0
1.047767479E1,2.432154613E0,3.927149661E0,-5.720578410E0,7.352747641E0
1.048767379E1,2.366865773E0,3.765898656E0,-5.108794177E0,6.773759976E0
1.049767279E1,2.398078210E0,3.600475078E0,-4.411829752E0,6.178870580E0
1.050767179E1,2.547512284E0,3.684501906E0,-3.860322418E0,5.913329207E0
1.051767179E1,2.748199250E0,3.783068420E0,-3.501727300E0,5.841771981E0
1.052767079E1,3.064457896E0,3.861156816E0,-3.213747544E0,5.884522702E0
1.053766979E1,3.571501540E0,3.904118648E0,-2.572490712E0,5.883491662E0
1.054766879E1,4.090536654E0,3.925351642E0,-1.820214259E0,5.954330826E0
1.055766879E1,4.383385094E0,3.767169256E0,-1.550617125E0,5.984149276E0
1.056766779E1,4.641037390E0,3.514242681E0,-1.172935672E0,5.938426371E0
1.057766679E1,4.904483106E0,3.169279761E0,-9.100512886E-1,5.909863120E0
1.058766579E1,5.017371790E0,2.582987634E0,-8.039758531E-1,5.700194907E0
1.059766479E1,5.204162849E0,2.111710238E0,-8.324218994E-1,5.677636595E0
1.060766479E1,5.554736756E0,1.886075542E0,-3.471228077E-1,5.876467955E0
1.061766379E1,5.733277978E0,1.770804702E0,5.172476933E-1,6.022771027E0
1.062766279E1,5.525824029E0,1.498336732E0,2.143969912E0,6.113620134E0
1.063766179E1,5.042637025E0,1.281833632E0,4.151420787E0,6.656243698E0
1.064766179E1,4.686660290E0,8.103597701E-1,5.469163924E0,7.247980523E0
1.065766079E1,4.193128976E0,-2.955399138E-1,8.417051729E0,9.408317292E0
1.066765979E1,3.281749785E0,-1.858495980E0,1.114131745E1,1.176234855E1
1.067765879E1,2.666209885E0,-3.536187866E0,1.202583629E1,1.281538287E1
1.068765879E1,2.658779828E0,-5.366889106E0,1.129742524E1,1.278688492E1
1.069765779E1,2.960048259E0,-7.087998322E0,8.287185654E0,1.129951556E1
1.070765679E1,3.481165566E0,-8.098203644E0,3.999406044E0,9.679600439E0
1.071765579E1,3.664934784E0,-9.153969886E0,1.406989190E0,9.960247498E0
1.072765579E1,3.585236065E0,-1.026261191E1,6.990876216E-2,1.087106288E1
1.073765479E1,3.317512525E0,-1.104852448E1,-5.433127534E-1,1.154863504E1
1.074765379E1,3.215123686E0,-1.119366055E1,-1.097872626E0,1.169787935E1
1.075765279E1,3.562165875E0,-1.017650231E1,-1.413043982E0,1.087413988E1
1.076765179E1,4.233016343E0,-8.216702147E0,-1.054317302E0,9.302913872E0
1.077765179E1,5.039929179E0,-6.508937446E0,-4.289751291E-1,8.243250116E0
1.078765079E1,5.952564352E0,-5.099828641E0,-5.910038137E-1,7.860697173E0
1.079764979E1,7.357338032E0,-3.724735427E0,-1.003858754E0,8.307334670E0
1.080764879E1,8.489534984E0,-2.756813076E0,-1.259244084E0,9.014317403E0
1.081764879E1,9.402630333E0,-1.916927206E0,-1.328065227E0,9.687508675E0
1.082764779E1,1.006989119E1,-9.630013347E-1,-1.134499585E0,1.017925191E1
1.083764679E1,9.689392991E0,-1.918909997E-1,-8.706075798E-1,9.730319432E0
1.084764579E1,8.031156546E0,-5.645972031E-1,-9.973268294E-1,8.112515410E0
1.085764579E1,6.129367197E0,-1.838921256E0,-7.718997091E-1,6.445665425E0
1.086764479E1,4.377063670E0,-3.953952128E0,8.650400072E-2,5.899144577E0
1.087764379E1,2.410383090E0,-6.703453261E0,2.430910910E0,7.526988782E0
1.088764279E1,3.133283132E-1,-9.395986142E0,7.799618500E0,1.221543200E1
1.089764179E1,-2.386770864E0,-1.251882556E1,1.535167875E1,1.995223569E1
1.090764179E1,-4.327609089E0,-1.600539396E1,1.389170970E1,2.163054402E1
1.091764079E1,-5.504909708E0,-1.906588276E1,9.973249583E0,2.220985420E1
1.092763979E1,-5.874823866E0,-1.959516337E1,9.669679103E0,2.262712259E1
1.093763879E1,-4.482200700E0,-1.716167617E1,7.664488177E0,1.932246442E1
1.094763879E1,-2.168447234E0,-1.377497355E1,2.377600968E0,1.414584907E1
1.095763779E1,-3.823883886E-1,-1.034336664E1,-4.773079506E0,1.139797097E1
1.096763679E1,-2.542414097E0,-4.799805667E0,-2.629535914E1,2.685047330E1
1.097763579E1,-7.451274721E0,1.301500742E0,-4.433450592E1,4.497514663E1
1.098763579E1,-9.540202453E0,4.590739641E0,-3.952561543E1,4.091900083E1
1.099763479E1,-8.297712396E0,4.579071522E0,-2.007910700E1,2.220338859E1
1.100763379E1,-6.614444021E0,4.436798240E0,-9.551196388E0,1.243629369E1
1.101763279E1,-4.720699856E0,5.442000684E0,-2.949394632E0,7.784555689E0
1.102763167E1,-4.446402584E0,6.788713852E0,-8.213089737E-1,8.156695417E0
1.103763167E1,-4.932939166E0,7.747282412E0,4.288625702E-1,9.194465547E0
1.104763067E1,-5.697357363E0,8.653244158E0,1.570128553E0,1.047873175E1
1.105762967E1,-6.211281425E0,9.544300767E0,1.692028674E0,1.151245652E1
1.106762867E1,-6.554967313E0,1.022802329E1,1.887750185E0,1.229404969E1
1.107762867E1,-6.944101853E0,1.075736822E1,2.322749700E0,1.301294308E1
1.108762767E1,-8.225724986E0,1.097903616E1,2.269435957E0,1.390511151E1
1.109762667E1,-1.218408182E1,1.012553096E1,-8.059694467E0,1.777461397E1
1.110762567E1,-1.610202972E1,5.438628595E0,-2.559809505E1,3.072647901E1
1.111762567E1,-9.140746992E0,3.425994163E0,-2.169556304E0,9.999883306E0
1.112762467E1,-5.471471820E0,4.992134623E0,8.230278797E0,1.107230333E1
1.113762367E1,-4.763015863E0,4.645978872E0,8.627429286E0,1.089513542E1
1.114762267E1,-3.676873921E0,2.708943091E0,8.976633775E0,1.007162988E1
1.115762167E1,-1.809991572E0,1.568340182E-2,8.446046902E0,8.637825174E0
1.116762167E1,3.492834270E-1,-4.339697038E0,7.213453842E0,8.425490231E0
1.117762067E1,2.271524583E0,-7.947496923E0,8.050171106E0,1.153810150E1
1.118761967E1,4.142721300E0,-1.215447620E1,8.885920072E0,1.561579351E1
1.119761867E1,3.255092329E0,-1.590002362E1,7.889105458E0,1.804561892E1
1.120761867E1,1.382082683E0,-1.838090133E1,7.452334237E0,1.988227783E1
1.121761767E1,1.054853784E-1,-1.882544408E1,8.147942399E0,2.051334779E1
1.122761667E1,1.097001245E0,-1.901014009E1,7.896532007E0,2.061417123E1
1.123761567E1,2.075026854E0,-2.175005880E1,4.312054326E0,2.227026284E1
1.124761567E1,1.447756708E0,-2.501602578E1,8.964749309E-1,2.507391499E1
1.125761467E1,1.592794115E0,-2.318685066E1,-7.013588995E-1,2.325207391E1
1.126761367E1,3.014824390E0,-1.526813491E1,-1.313630498E0,1.561828207E1
1.127761267E1,4.367321624E0,-6.508724023E0,-1.819491251E0,8.046585300E0
1.128761167E1,4.362839148E0,-2.169474882E-1,-5.394117250E0,6.941032528E0
1.129761167E1,3.773662589E0,3.042847171E0,-8.265514703E0,9.582180418E0
1.130761067E1,3.036904646E0,4.187841339E0,-7.458104269E0,9.076570068E0
1.131760967E1,2.683500102E0,5.172411298E0,-7.083913457E0,9.172613657E0
1.132760867E1,2.269393272E0,5.980194200E0,-7.900620965E0,1.016526833E1
1.133760867E1,1.770543916E0,6.188148086E0,-7.848148636E0,1.014994776E1
1.134760767E1,1.272275481E0,6.007490172E0,-6.647284908E0,9.049586715E0
1.135760667E1,8.474872506E-1,5.927598495E0,-6.078412220E0,8.532394370E0
1.136760567E1,4.079388937E-1,5.691220125E0,-6.315928459E0,8.511601080E0
1.137760567E1,1.596289873E-2,5.257964249E0,-5.907258371E0,7.908359142E0
1.138760467E1,-2.481157789E-1,4.692702218E0,-4.605656180E0,6.579900029E0
1.139760367E1,-4.808022174E-1,4.021980389E0,-3.329960955E0,5.243675904E0
1.140760267E1,-6.231696394E-1,3.592177294E0,-2.365975826E0,4.346253528E0
1.141760167E1,-3.225563890E-1,3.602327476E0,-1.722085701E0,4.005793933E0
1.142760167E1,2.748869634E-1,4.261180041E0,-1.099154628E0,4.409235658E0
1.143760067E1,9.249613962E-1,4.890249814E0,-7.393687248E-2,4.977505750E0
1.144759967E1,1.694757862E0,5.174021621E0,5.129617573E-1,5.468622652E0
1.145759867E1,2.222545381E0,4.728116464E0,1.161407594E-1,5.225732670E0
1.146759867E1,2.220483945E0,4.179565190E0,8.083600223E-2,4.733481656E0
1.147759767E1,2.285272848E0,3.593064902E0,4.066738486E-2,4.258431779E0
1.148759667E1,2.261323530E0,2.771096070E0,1.707965845E-1,3.580744198E0
1.149759567E1,2.041957049E0,1.863095400E0,3.097182788E-1,2.781481345E0
1.150759467E1,1.775826583E0,9.869094300E-1,3.020297750E-1,2.053965010E0
1.151759467E1,1.593086184E0,4.644683129E-1,5.617414230E-1,1.751915474E0
1.152759367E1,1.409666338E0,2.364853746E-1,1.116782522E0,1.813915025E0
1.153759267E1,1.342957501E0,4.737554455E-1,1.491874389E0,2.062442306E0
1.154759167E1,1.295935947E0,7.798402280E-1,1.761472546E0,2.321720545E0
1.155759167E1,8.493887651E-1,7.483325064E-1,2.237951624E0,2.507965368E0
1.156759067E1,2.347107446E-1,4.739916730E-1,2.829029113E0,2.878048464E0
1.157758967E1,1.691815835E-1,-9.200359941E-2,2.869183697E0,2.875639435E0
1.158758867E1,7.492967123E-1,-6.744529366E-1,2.992493289E0,3.157744197E0
1.159758867E1,1.426028894E0,-1.357921110E0,3.189971888E0,3.748790311E0
1.160758767E1,1.866247049E0,-2.367969142E0,2.984917052E0,4.242627218E0
1.161758667E1,2.107822425E0,-3.799822447E0,2.503528066E0,5.014899678E0
1.162758567E1,2.150055694E0,-5.572362018E0,1.919965419E0,6.273772801E0
1.163758467E1,2.119171870E0,-7.681567309E0,1.618631061E0,8.131256499E0
1.164758467E1,2.101135549E0,-9.733043041E0,1.307212302E0,1.004269393E1
1.165758367E1,2.242743418E0,-1.105558557E1,1.176970251E0,1.134200729E1
1.166758267E1,2.253528022E0,-1.181381975E1,1.298937761E0,1.209677498E1
1.167758167E1,2.503941464E0,-1.225505416E1,1.069007261E0,1.255383813E1
1.168758167E1,3.561460701E0,-1.168820987E1,2.510162902E-1,1.222134450E1
1.169758067E1,5.027896194E0,-1.029684268E1,-5.169979441E-1,1.147048370E1
1.170757967E1,6.734696689E0,-8.961776000E0,-1.158598300E0,1.126995646E1
1.171757867E1,8.467641254E0,-7.490663905E0,-1.793807210E0,1.144677852E1
1.172757767E1,9.315972258E0,-6.172208576E0,-1.510469704E0,1.127674672E1
1.173757767E1,9.735853212E0,-4.399971306E0,-1.026386468E0,1.073312883E1
1.174757667E1,9.478177528E0,-2.623311203E0,-7.542475498E-1,9.863391926E0
1.175757567E1,8.815977432E0,-1.257878174E0,9.388611048E-2,8.905758260E0
1.176757467E1,7.252121480E0,-7.166277337E-1,1.062334127E0,7.364467059E0
1.177757467E1,5.349712325E0,-1.496008955E0,3.156841564E0,6.389296786E0
1.178757367E1,3.767106106E0,-3.096905850E0,7.688646533E0,9.104789936E0
1.179757267E1,2.205222127E0,-5.194295672E0,6.880475961E0,8.898576381E0
1.180757167E1,1.234595731E0,-7.257219082E0,3.358841815E0,8.091555707E0
1.181757067E1,1.036176315E-1,-8.992335888E0,3.048340046E0,9.495536761E0
1.182757067E1,-1.110903439E0,-1.030382777E1,3.266923585E0,1.086626720E1
1.183756967E1,-2.077118403E0,-1.066717843E1,3.149176157E0,1.131461121E1
1.184756867E1,-2.334864546E0,-9.938469175E0,2.383839655E0,1.048367557E1
1.185756767E1,-1.837981316E0,-8.333471628E0,9.634251116E-1,8.587963242E0
1.186756767E1,-1.214462963E0,-6.554261554E0,-1.128318493E0,6.760648447E0
1.187756667E1,-1.014194731E0,-4.751370256E0,-3.524177977E0,6.001994725E0
1.188756567E1,-1.417755230E0,-2.937347029E0,-6.087685905E0,6.906370764E0
1.189756467E1,-3.584862135E0,5.803139341E-1,-2.486500857E1,2.512880125E1
1.190756467E1,-7.557615108E0,5.481871094E0,-4.404012902E1,4.501890071E1
1.191756367E1,-7.131933131E0,6.333587050E0,-2.495452243E1,2.671529496E1
1.192756267E1,-6.183358632E0,6.160155711E0,-1.480084297E1,1.718273538E1
1.193756167E1,-5.507638019E0,6.299649811E0,-7.550099097E0,1.127047739E1
1.194756067E1,-3.968682434E0,7.031787869E0,-1.932116226E0,8.302382429E0
1.195756067E1,-3.674277172E0,7.943376975E0,-7.805263987E-1,8.786738415E0
1.196755967E1,-4.286237115E0,8.697445015E0,2.081676015E-1,9.698490199E0
1.197755867E1,-5.564974646E0,9.090234650E0,1.777099814E0,1.080552602E1
1.198755767E1,-6.773746149E0,9.491154254E0,3.141475666E0,1.207619623E1
1.199755767E1,-8.042463892E0,9.647773095E0,2.394902002E0,1.278656743E1
1.200755667E1,-1.129108803E1,7.355844069E0,-8.817198915E0,1.610404010E1
1.201755567E1,-1.485599040E1,1.137498037E0,-1.631861059E1,2.209731667E1
1.202755492E1,-9.543544722E0,1.824190950E0,1.608423577E0,9.848550395E0
1.203755392E1,-8.151360682E0,2.435147218E0,6.450705611E0,1.067643320E1
1.204755392E1,-7.101575557E0,-5.600352055E-1,6.188084351E0,9.436016255E0
1.205755292E1,-5.108049826E0,-4.379175099E0,7.340569972E0,9.957575763E0
1.206755192E1,-1.463383831E0,-7.340981031E0,7.245715270E0,1.041786372E1
1.207755092E1,1.883574980E0,-1.022988622E1,5.853528306E0,1.193575387E1
1.208755092E1,3.523295925E0,-1.368613914E1,6.299017142E0,1.547260920E1
1.209754992E1,2.417231934E0,-1.505798481E1,7.071064786E0,1.681029071E1
1.210754892E1,9.933898991E-1,-1.463240457E1,6.701911935E0,1.612481661E1
1.211754792E1,7.738276823E-1,-1.427354457E1,6.061811975E0,1.552670114E1
1.212754692E1,1.287234120E0,-1.619920343E1,6.489634618E0,1.749818622E1
1.213754692E1,1.845433739E0,-1.938745389E1,6.095074446E0,2.040659028E1
1.214754592E1,1.726430913E0,-1.927652286E1,4.862569972E0,1.995518689E1
1.215754492E1,4.809708219E0,-1.407115607E1,1.790916317E1,2.327807663E1
1.216754392E1,6.879213547E0,-8.355819102E0,1.252606675E1,1.655432391E1
1.217754392E1,5.114753659E0,-2.542866379E0,-5.723562244E0,8.086163440E0
1.218754292E1,4.317940718E0,1.008793804E0,-4.691807886E0,6.455643905E0
1.219754192E1,3.689712360E0,1.768385709E0,-4.348978323E0,5.971162179E0
1.220754092E1,3.217646175E0,1.804057817E0,-4.307063435E0,5.670861218E0
1.221753992E1,2.752831122E0,1.828741838E0,-5.407517899E0,6.337477868E0
1.222753992E1,1.490899073E0,2.636420660E0,-9.716207153E0,1.017733636E1
1.223753892E1,-2.480923900E-1,3.274971108E0,-1.322252276E1,1.362431994E1
1.224753792E1,-3.114507723E0,3.151144037E0,-2.086274850E1,2.132801309E1
1.225753692E1,-6.510531982E0,2.733699617E0,-2.498757557E1,2.596611394E1
1.226753692E1,-2.920863728E0,2.474004890E0,-9.584449503E0,1.032055315E1
1.227753592E1,-9.219293225E-1,2.281803988E0,-3.525996169E0,4.299910708E0
1.228753492E1,-7.083507076E-1,2.130133646E0,-1.703545057E0,2.818030489E0
1.229753392E1,-9.696233064E-1,1.925369416E0,-8.110465255E-1,2.303261429E0
1.230753292E1,-5.450116619E-1,1.893610849E0,-2.497696638E-1,1.986248888E0
1.231753292E1,1.536525482E-1,2.129815557E0,-9.809595957E-2,2.137602917E0
1.232753192E1,7.575190669E-1,2.640387996E0,-1.071544661E-1,2.748993631E0
1.233753092E1,1.448862271E0,3.197682027E0,-5.414068535E-2,3.511025981E0
1.234752992E1,2.131700115E0,3.675950353E0,1.404669307E-1,4.251645250E0
1.235752992E1,2.673586440E0,4.099088207E0,5.806477370E-1,4.928259365E0
1.236752892E1,3.211848076E0,4.151467565E0,9.017879304E-1,5.325774355E0
1.237752792E1,3.714274759E0,4.012922468E0,4.549373513E-1,5.486925524E0
1.238752692E1,3.922459025E0,3.552657133E0,4.348691225E-2,5.292348120E0
1.239752592E1,3.936670098E0,2.817539334E0,1.022449976E-1,4.842143471E0
1.240752592E1,3.906988462E0,2.086452021E0,4.304679233E-1,4.450072304E0
1.241752492E1,3.757758163E0,1.284403483E0,1.060712401E0,4.110419628E0
1.242752392E1,3.658550794E0,5.330321789E-1,2.038123029E0,4.221736929E0
1.243752292E1,3.808301495E0,1.695832872E-1,3.149684572E0,4.944940007E0
1.244752192E1,4.382165365E0,6.417640775E-1,4.888585696E0,6.596476675E0
1.245752192E1,4.388031292E0,6.284347647E-1,6.989558108E0,8.276694474E0
1.246752092E1,3.853787570E0,8.001037538E-2,7.517594426E0,8.448213198E0
1.247751992E1,2.985839158E0,-1.252022188E0,7.908631650E0,8.545715278E0
1.248751892E1,2.493549793E0,-2.924373227E0,8.785249729E0,9.589075145E0
1.249751892E1,2.644508529E0,-4.352887772E0,8.107136436E0,9.574273784E0
1.250751792E1,3.004368984E0,-5.526170769E0,5.511859124E0,8.363335899E0
1.251751692E1,3.269691072E0,-6.653984063E0,3.107075912E0,8.038675534E0
1.252751592E1,3.229745818E0,-7.798816847E0,1.828645359E0,8.636940785E0
1.253751492E1,2.909799626E0,-8.964725921E0,1.302412323E0,9.514700340E0
1.254751492E1,2.590307178E0,-1.010679765E1,1.359303392E0,1.052163275E1
1.255751392E1,2.532022718E0,-1.069397972E1,1.284925640E0,1.106450972E1
1.256751292E1,2.809576596E0,-1.042718998E1,1.063954682E0,1.085135988E1
1.257751192E1,3.463296475E0,-9.133447328E0,8.263706160E-1,9.802916452E0
1.258751192E1,4.337431242E0,-7.291810040E0,3.187749946E-1,8.490313359E0
1.259751092E1,5.077467719E0,-5.634391036E0,-1.057083035E-1,7.585394850E0
1.260750992E1,5.561072799E0,-4.364977475E0,-3.482180643E-1,7.078122269E0
1.261750892E1,5.979027096E0,-3.194825077E0,-4.042683041E-1,6.791104855E0
1.262750792E1,6.766321355E0,-1.927825246E0,-3.486472499E-1,7.044229536E0
1.263750792E1,7.395388203E0,-9.448773050E-1,4.107545839E-1,7.466811845E0
1.264750692E1,6.521517731E0,-3.461668611E-1,5.212032616E-1,6.551463795E0
1.265750592E1,5.913623065E0,4.709593070E-1,-8.287434161E-2,5.932925803E0
1.266750492E1,5.484356160E0,4.683958876E-1,-1.923931293E-1,5.507683026E0
1.267750492E1,4.518763924E0,-7.047912151E-1,-2.212169789E-1,4.578743825E0
1.268750392E1,3.111548447E0,-2.754830285E0,4.399896754E-1,4.179044694E0
1.269750292E1,1.545711165E0,-5.138966979E0,1.523339426E0,5.578419814E0
1.270750192E1,-1.201883483E-1,-7.807692921E0,2.574111561E0,8.221956234E0
1.271750092E1,-2.046288081E0,-1.056470246E1,3.795324184E0,1.141072823E1
1.272750092E1,-4.093670762E0,-1.304938905E1,4.850524415E0,1.451110891E1
1.273749992E1,-5.771890651E0,-1.450117200E1,5.286426156E0,1.647862290E1
1.274749892E1,-6.377276861E0,-1.339645521E1,4.292866103E0,1.544549681E1
1.275749792E1,-5.886403107E0,-1.033627514E1,3.125796942E0,1.229873700E1
1.276749692E1,-4.690938697E0,-6.845351152E0,1.705802814E0,8.471924309E0
1.277749692E1,-3.519836127E0,-3.772964432E0,-8.519773275E-2,5.160597409E0
1.278749592E1,-2.777444099E0,-1.371258025E0,-1.859451415E0,3.612769555E0
1.279749492E1,-2.316044990E0,8.303016990E-1,-4.494170243E0,5.123576044E0
1.280749392E1,-2.412585737E0,3.024474050E0,-8.623650230E0,9.451738280E0
1.281749392E1,-3.154066768E0,4.714524027E0,-1.197044093E1,1.324637045E1
1.282749292E1,-4.200727725E0,6.319273651E0,-1.621380275E1,1.790158464E1
1.283749192E1,-6.840293895E0,8.077670562E0,-2.698346182E1,2.898526512E1
1.284749092E1,-9.075389155E0,8.688001177E0,-2.257243694E1,2.583329174E1
1.285748992E1,-6.532958393E0,8.178879433E0,-6.879474333E0,1.252600420E1
1.286748992E1,-5.164041009E0,8.199599041E0,-1.742032893E0,9.845578834E0
1.287748892E1,-5.430579903E0,8.455064478E0,-1.890053988E-2,1.004886415E1
1.288748792E1,-6.244048637E0,8.569387484E0,9.255680448E-1,1.064327118E1
1.289748692E1,-7.798057294E0,8.288166817E0,1.618503445E0,1.149447520E1
1.290748592E1,-9.870789993E0,7.349529660E0,1.830323510E0,1.244179109E1
1.291748592E1,-1.354877050E1,4.513120776E0,-7.189727011E0,1.598842130E1
1.292748492E1,-1.826341089E1,-1.965892375E-2,-2.077562499E1,2.766187191E1
1.293748392E1,-1.251680476E1,1.392397463E-2,-3.533122463E0,1.300590442E1
1.294748292E1,-9.171280568E0,6.700330263E-1,4.398461555E0,1.019351733E1
1.295748292E1,-7.704769061E0,-9.441043031E-1,4.976444789E0,9.220618307E0
1.296748192E1,-7.255305288E0,-3.959748473E0,4.734709200E0,9.525572634E0
1.297748092E1,-5.878298281E0,-6.719510885E0,5.174555472E0,1.031902328E1
1.298747992E1,-2.093914530E0,-9.623081473E0,6.960082878E0,1.205947465E1
1.299747892E1,1.466338429E0,-1.262092730E1,8.269827025E0,1.516007894E1
1.300747892E1,3.029980666E0,-1.561767912E1,8.801940606E0,1.818149725E1
1.301747792E1,2.626018463E0,-1.760146631E1,8.604380731E0,1.976721926E1
1.302747683E1,1.440818987E0,-1.923021759E1,7.501544403E0,2.069179539E1
1.303747583E1,6.003813589E-1,-2.102841416E1,6.118303095E0,2.190863511E1
1.304747483E1,1.378330524E-1,-2.207589840E1,4.934486924E0,2.262108418E1
1.305747483E1,1.708445609E0,-2.027917533E1,2.803573844E0,2.054321700E1
1.306747383E1,2.493762047E0,-1.464052051E1,1.232067249E0,1.490240516E1
1.307747283E1,2.464884987E0,-8.108987664E0,3.452377385E0,9.151516188E0
1.308747183E1,4.059682651E0,-4.483119298E0,1.903033520E1,1.996830087E1
1.309747183E1,4.368222095E0,-2.453964143E0,3.474941205E0,6.097419181E0
1.310747083E1,4.554962575E0,-1.372341514E-3,-4.881641251E0,6.676683850E0
1.311746983E1,4.426238168E0,1.385732222E0,-3.422730832E0,5.764280047E0
1.312746883E1,4.198142964E0,2.127958481E0,-3.301542318E0,5.749155879E0
1.313746783E1,3.983648090E0,2.409389648E0,-3.223258917E0,5.662509040E0
1.314746783E1,3.725939077E0,2.359259714E0,-3.769141230E0,5.801306233E0
1.315746683E1,3.378862097E0,2.069954102E0,-3.817401516E0,5.502178968E0
1.316746583E1,2.865724192E0,1.426110170E0,-3.720197988E0,4.907752890E0
1.317746483E1,2.372698078E0,7.794689298E-1,-3.756364186E0,4.510824745E0
1.318746383E1,2.141166464E0,4.434873337E-1,-3.992112227E0,4.551728779E0
1.319746383E1,1.955665887E0,6.775215554E-1,-4.770089240E0,5.199751520E0
1.320746283E1,1.721386667E0,1.162231759E0,-6.323083697E0,6.655474600E0
1.321746183E1,1.101477142E0,2.346334444E0,-1.322005056E1,1.347175839E1
1.322746083E1,-3.732283598E-1,3.606310015E0,-2.112545455E1,2.143430897E1
1.323746083E1,7.847904807E-1,3.272358572E0,-1.303142172E1,1.345890704E1
1.324745983E1,2.445945271E0,2.842308140E0,-5.991309757E0,7.068037665E0
1.325745883E1,3.351502390E0,2.898403988E0,-2.965854836E0,5.331942316E0
1.326745783E1,3.932883441E0,3.156936289E0,-2.100845235E0,5.463274622E0
1.327745683E1,4.311259105E0,3.231181310E0,-1.727798577E0,5.657983355E0
1.328745683E1,4.516548414E0,3.193945656E0,-1.018954511E0,5.624834818E0
1.329745583E1,4.605900886E0,2.904216120E0,8.633574709E-2,5.445755054E0
1.330745483E1,4.720551336E0,2.250906131E0,1.801898441E-1,5.232843559E0
1.331745383E1,5.200723516E0,1.538126450E0,5.458533686E-1,5.450808561E0
1.332745283E1,5.755130192E0,9.009091669E-1,1.486298046E0,6.011841875E0
1.333745283E1,5.860272485E0,4.220385772E-1,2.558206842E0,6.408223810E0
1.334745183E1,6.209603274E0,6.623737586E-1,3.025820079E0,6.939272222E0
1.335745083E1,6.776924111E0,9.684105939E-1,5.001641026E0,8.478262348E0
1.336744983E1,6.607767670E0,8.701574904E-1,8.188357185E0,1.055788620E1
1.337744883E1,6.226766607E0,5.275527531E-1,8.247852604E0,1.034785035E1
1.338744883E1,5.627800055E0,-7.110331178E-2,7.478932051E0,9.360107572E0
1.339744783E1,4.756194209E0,-1.118964702E0,7.321665339E0,8.802286560E0
1.340744683E1,3.913160782E0,-2.682265170E0,7.247664147E0,8.662332788E0
1.341744583E1,3.278130358E0,-4.294631962E0,6.897453936E0,8.761556548E0
1.342744583E1,2.832517562E0,-5.717103410E0,5.173228154E0,8.214056043E0
1.343744483E1,2.602399220E0,-6.768261461E0,2.869399459E0,7.798416388E0
1.344744383E1,2.441087989E0,-7.507783967E0,9.065594045E-1,7.946545201E0
1.345744283E1,2.134229620E0,-8.102094966E0,-5.588943406E-1,8.397097224E0
1.346744183E1,1.785861867E0,-8.731598017E0,-1.675271577E0,9.068442060E0
1.347744183E1,1.742516457E0,-8.859811669E0,-2.180466478E0,9.289082865E0
1.348744083E1,2.121571568E0,-8.198045436E0,-1.944589798E0,8.688523717E0
1.349743983E1,2.930216349E0,-6.910985563E0,-7.738743138E-1,7.546308419E0
1.350743883E1,3.705938383E0,-5.762916929E0,2.639925043E-1,6.856739960E0
1.351743783E1,4.438320270E0,-4.996276206E0,8.435087319E-1,6.735946090E0
1.352743783E1,5.115882756E0,-4.336526093E0,7.984827594E-1,6.753909212E0
1.353743683E1,5.767336255E0,-3.712050478E0,5.796684380E-1,6.883131680E0
1.354743583E1,6.183520600E0,-3.316850621E0,6.626579332E-1,7.048158666E0
1.355743483E1,6.333959518E0,-2.968723188E0,7.804623717E-1,7.038571024E0
1.356743483E1,6.065165938E0,-2.796024504E0,7.208926928E-1,6.717415959E0
1.357743383E1,5.778980400E0,-2.847315695E0,5.729692465E-1,6.467775111E0
1.358743283E1,4.666517801E0,-3.635228589E0,8.085307610E-1,5.970343146E0
1.359743183E1,2.903325589E0,-5.015536349E0,1.819260724E0,6.074093672E0
1.360743083E1,1.168898170E0,-6.661049838E0,3.251582245E0,7.503911978E0
1.361743083E1,-6.196089774E-1,-8.570000272E0,4.410787486E0,9.658357324E0
1.362742983E1,-2.310060950E0,-1.031437614E1,5.783950533E0,1.204893442E1
1.363742883E1,-4.106025636E0,-1.194152879E1,7.186577700E0,1.452950293E1
1.364742783E1,-5.831656796E0,-1.291924874E1,8.268175771E0,1.640969041E1
1.365742683E1,-7.188149432E0,-1.247936153E1,9.039808847E0,1.700359081E1
1.366742683E1,-7.061115164E0,-1.045325219E1,8.142602137E0,1.501438638E1
1.367742583E1,-6.255484622E0,-7.904692381E0,6.799539971E0,1.215931714E1
1.368742483E1,-4.377947769E0,-5.247775476E0,3.813415470E0,7.826091723E0
1.369742383E1,-3.316241925E0,-3.381486327E0,1.269325122E0,4.903376036E0
1.370742283E1,-3.703384027E0,-2.265214267E0,-9.936484922E-1,4.453491468E0
1.371742283E1,-3.698763265E0,-1.227602461E0,-3.275217276E0,5.090668492E0
1.372742183E1,-3.534060064E0,6.040612310E-1,-6.560503457E0,7.476274213E0
1.373742083E1,-3.937241078E0,3.414537714E0,-1.647430908E1,1.727899866E1
1.374741983E1,-5.717513884E0,7.659017522E0,-3.572861368E1,3.698492058E1
1.375741883E1,-6.863188668E0,9.365716276E0,-3.050015273E1,3.263555295E1
1.376741883E1,-7.115617061E0,8.981738979E0,-1.926918577E1,2.241885728E1
1.377741783E1,-5.318157241E0,8.311353951E0,-7.710365431E0,1.252242532E1
1.378741683E1,-4.172578644E0,8.561732894E0,-1.893949695E0,9.710856200E0
1.379741583E1,-4.387722559E0,8.922678593E0,5.834927729E-1,9.960259351E0
1.380741483E1,-5.199323108E0,9.156708722E0,2.158428907E0,1.074881811E1
1.381741483E1,-6.006769795E0,9.411548506E0,2.798142951E0,1.151034894E1
1.382741383E1,-7.538228080E0,9.711038214E0,4.722590845E0,1.316935876E1
1.383741283E1,-9.141011871E0,9.564920388E0,5.911923864E0,1.449126095E1
1.384741183E1,-1.030905284E1,7.421538121E0,1.544958336E0,1.279619845E1
1.385741183E1,-1.538553998E1,2.315982133E0,-2.664280538E1,3.085316340E1
1.386741083E1,-1.156930557E1,-8.237808841E-1,-1.220112996E1,1.683434046E1
1.387740983E1,-6.328483601E0,5.897700512E-1,8.147241318E0,1.033320253E1
1.388740883E1,-6.526008393E0,-7.892162383E-1,7.879863934E0,1.026176902E1
1.389740783E1,-6.316813143E0,-3.802743716E0,7.562271831E0,1.056176800E1
1.390740783E1,-3.899296449E0,-6.802313890E0,8.603117732E0,1.164000094E1
1.391740683E1,-1.426457494E-2,-1.012133851E1,1.172359137E1,1.548819845E1
1.392740583E1,3.376533443E0,-1.359215450E1,1.161152013E1,1.819271947E1
1.393740483E1,4.327655574E0,-1.561580567E1,7.431592408E0,1.782724194E1
1.394740383E1,4.153574609E0,-1.708813808E1,6.367648836E0,1.870303710E1
1.395740383E1,2.232327626E0,-1.776760325E1,5.646366718E0,1.877638062E1
1.396740283E1,8.576071729E-1,-2.003635216E1,5.852093984E0,2.089109624E1
1.397740183E1,8.206523314E-2,-2.324299329E1,5.318244950E0,2.384380844E1
1.398740083E1,-3.626086102E-1,-2.319819894E1,3.252342383E0,2.342788189E1
1.399739983E1,1.728973063E-1,-1.715179906E1,7.260803425E-1,1.716803125E1
1.400739983E1,8.802113391E-1,-9.710727142E0,-5.301859005E-1,9.764941921E0
1.401739883E1,1.212601575E0,-3.956851178E0,-1.466489433E0,4.390633790E0
1.402739779E1,1.134719879E0,5.463679236E-1,-3.162879399E0,3.404396159E0
1.403739679E1,1.124679186E0,2.211355564E0,-3.173971275E0,4.028534517E0
1.404739579E1,8.972659130E-1,2.227733615E0,-3.271149952E0,4.058115966E0
1.405739579E1,1.058834276E0,2.738096139E0,-3.534370259E0,4.594570014E0
1.406739479E1,1.423657263E0,3.607909813E0,-3.409952912E0,5.164454674E0
1.407739379E1,1.744125026E0,4.136496354E0,-3.473588160E0,5.676124461E0
1.408739279E1,1.826988843E0,4.198064611E0,-3.993176128E0,6.075120600E0
1.409739179E1,1.663134073E0,3.978135043E0,-4.371892392E0,6.140441063E0
1.410739179E1,1.641587668E0,3.806857817E0,-4.535539586E0,6.144761659E0
1.411739079E1,1.488587669E0,3.425638652E0,-4.603576033E0,5.928221126E0
1.412738979E1,1.215981997E0,3.091826958E0,-4.835602906E0,5.866946533E0
1.413738879E1,9.293359905E-1,3.234989017E0,-5.629558897E0,6.559020712E0
1.414738779E1,8.179778150E-1,3.887705514E0,-6.349782668E0,7.490199050E0
1.415738779E1,8.466508064E-1,4.595217438E0,-7.131473540E0,8.525887388E0
1.416738679E1,1.402250022E0,5.185276927E0,-6.197380840E0,8.201276193E0
1.417738579E1,2.175945411E0,5.607731826E0,-4.351264877E0,7.423941048E0
1.418738479E1,2.623278750E0,5.666898047E0,-3.357122441E0,7.089823408E0
1.419738479E1,2.925890287E0,5.257947292E0,-2.941140702E0,6.697548233E0
1.420738379E1,3.216917027E0,4.659360225E0,-2.591098307E0,6.226715290E0
1.421738279E1,3.278904530E0,3.800963824E0,-2.224723468E0,5.490713562E0
1.422738179E1,3.235807042E0,2.783743597E0,-1.853764121E0,4.653613332E0
1.423738079E1,3.309053943E0,1.854561973E0,-1.377764952E0,4.035774322E0
1.424738079E1,3.328235734E0,1.019902344E0,-1.104875398E0,3.652136846E0
1.425737979E1,3.222986437E0,2.454362923E-1,-9.909907866E-1,3.380819913E0
1.426737879E1,3.204784055E0,-3.700199926E-1,-6.118501608E-1,3.283582838E0
1.427737779E1,3.308060501E0,-8.402314407E-1,-2.723435707E-1,3.423948623E0
1.428737679E1,3.445599877E0,-1.221264079E0,1.621596622E-1,3.659226724E0
1.429737679E1,3.324916270E0,-1.956373107E0,1.735551985E0,4.230201488E0
1.430737579E1,2.881309653E0,-3.007616528E0,4.205351996E0,5.918841770E0
1.431737479E1,2.714331300E0,-4.087662748E0,7.055993003E0,8.594394592E0
1.432737379E1,2.520427689E0,-5.438847281E0,9.102707931E0,1.089921590E1
1.433737279E1,2.346234457E0,-7.544096931E0,1.046660840E1,1.311366105E1
1.434737279E1,2.526060312E0,-9.850897765E0,1.006772422E1,1.431014460E1
1.435737179E1,2.801717353E0,-1.163997502E1,6.451834123E0,1.360017655E1
1.436737079E1,3.165934569E0,-1.261846095E1,2.908184626E0,1.333065025E1
1.437736979E1,3.633622359E0,-1.279106023E1,1.029567792E0,1.333695779E1
1.438736879E1,4.302010564E0,-1.128669911E1,-1.712193382E-1,1.207999122E1
1.439736879E1,5.181496117E0,-8.493444432E0,-8.485059817E-1,9.985312350E0
1.440736779E1,5.916808044E0,-5.921322094E0,-7.873667639E-1,8.407771357E0
1.441736679E1,6.537208149E0,-3.831024359E0,-3.717497452E-1,7.586173996E0
1.442736579E1,6.831063480E0,-2.505819005E0,-7.347508863E-2,7.276534598E0
1.443736479E1,6.859681508E0,-1.856232523E0,-1.362980121E-1,7.107700522E0
1.444736479E1,7.142283288E0,-1.305179810E0,-6.446363761E-1,7.289119354E0
1.445736379E1,7.796659225E0,-7.779468995E-1,-1.083742245E0,7.909967996E0
1.446736279E1,8.344291316E0,-3.673548317E-1,-1.293660357E0,8.451964521E0
1.447736179E1,8.636218235E0,7.502854764E-2,-1.554980464E0,8.775412180E0
1.448736079E1,8.189791507E0,1.468563294E-1,-1.674143503E0,8.360443061E0
1.449736079E1,6.807460610E0,-6.605774939E-1,-1.253398915E0,6.953336711E0
1.450735979E1,5.412930082E0,-2.091613358E0,-1.992555678E-1,5.806406918E0
1.451735879E1,3.530057937E0,-4.260384820E0,9.649654144E-1,5.616346331E0
1.452735779E1,1.339027587E0,-7.086525409E0,2.714721602E0,7.705942552E0
1.453735679E1,-6.844513831E-1,-1.020616757E1,5.161586933E0,1.145758744E1
1.454735679E1,-2.756673328E0,-1.338365215E1,6.505531443E0,1.513417761E1
1.455735579E1,-5.022253046E0,-1.621197024E1,6.060009863E0,1.802150727E1
1.456735479E1,-6.427834226E0,-1.714935024E1,4.379953364E0,1.883085920E1
1.457735379E1,-6.638101856E0,-1.547310086E1,3.178420129E0,1.713428146E1
1.458735279E1,-5.657693360E0,-1.196423587E1,1.766045069E0,1.335182943E1
1.459735279E1,-4.364836849E0,-8.619949527E0,-5.681061172E-1,9.678743469E0
1.460735179E1,-3.474735968E0,-6.017959027E0,-2.659816539E0,7.440715350E0
1.461735079E1,-2.836067991E0,-3.512626510E0,-5.725453234E0,7.291271589E0
1.462734979E1,-3.735329998E0,-3.372779238E-1,-1.341620360E1,1.393057664E1
1.463734879E1,-5.380188013E0,2.835759258E0,-2.221719052E1,2.303457202E1
1.464734879E1,-8.506276731E0,5.883611062E0,-3.301595703E1,3.459807858E1
1.465734779E1,-9.040182484E0,6.436572890E0,-2.113749279E1,2.387358313E1
1.466734679E1,-6.448535709E0,6.154785043E0,-1.037820201E1,1.368108434E1
1.467734579E1,-4.477629932E0,6.781677897E0,-4.561695059E0,9.319301836E0
1.468734479E1,-3.856977811E0,7.642783898E0,-1.317832600E0,8.661703429E0
1.469734479E1,-4.177789975E0,8.305196832E0,-6.526475000E-1,9.319665888E0
1.470734379E1,-4.674992171E0,8.894671599E0,-5.324381018E-1,1.006251584E1
1.471734279E1,-5.216444925E0,9.682245355E0,-4.908310694E-1,1.100900031E1
1.472734179E1,-6.410527053E0,1.018152390E1,5.539020610E-1,1.204429713E1
1.473734079E1,-7.659360169E0,1.009003134E1,1.833188061E0,1.279980895E1
1.474734079E1,-8.624018020E0,9.054698782E0,-3.025723600E-1,1.250810964E1
1.475733979E1,-1.049027442E1,6.315804498E0,-1.111628435E1,1.653804770E1
1.476733879E1,-1.049784540E1,4.069415342E0,-1.061855532E1,1.547638899E1
1.477733779E1,-7.345186933E0,4.137454128E0,9.840621284E-1,8.487560074E0
1.478733679E1,-6.766986768E0,1.741846951E0,2.486020333E0,7.416632512E0
1.479733679E1,-6.866333300E0,-2.000970406E0,3.542037713E0,7.981005370E0
1.480733579E1,-6.752667521E0,-6.027854855E0,4.957307437E0,1.032029311E1
1.481733479E1,-4.686085216E0,-9.599260501E0,7.015116287E0,1.277955607E1
1.482733379E1,-8.912343639E-1,-1.236656641E1,6.781557444E0,1.413208352E1
1.483733279E1,1.014909115E0,-1.451498663E1,6.411452667E0,1.590036486E1
1.484733279E1,5.704246844E-1,-1.388060700E1,5.182428748E0,1.482748134E1
1.485733179E1,-9.731620413E-1,-1.034412912E1,3.113388566E0,1.084625465E1
1.486733079E1,-1.353022313E0,-7.083097186E0,1.938953667E0,7.467293784E0
1.487732979E1,-1.087143278E0,-7.763180991E0,2.277231465E0,8.163004518E0
1.488732879E1,-4.238641145E-1,-1.265351384E1,3.277014710E0,1.307783998E1
1.489732879E1,-1.124338805E0,-1.862838941E1,2.484978652E0,1.882700583E1
1.490732779E1,-1.824216678E0,-2.188322095E1,6.609441143E-1,2.196906855E1
1.491732679E1,1.779261238E0,-1.423571543E1,9.251961619E-1,1.437627741E1
1.492732579E1,3.603599246E0,-4.566464925E0,4.552029319E0,7.386440303E0
1.493732479E1,1.754275647E0,8.512230366E-1,5.446524675E0,5.785040599E0
1.494732479E1,9.021875145E-1,1.317131519E0,-1.693675835E0,2.327512746E0
1.495732379E1,7.945369121E-1,1.210742015E0,-2.347668487E0,2.758393093E0
1.496732279E1,9.556209791E-1,1.673931541E0,-2.044295350E0,2.809697802E0
1.497732179E1,1.242693540E0,2.196501297E0,-2.019706054E0,3.232354827E0
1.498732079E1,1.237863740E0,2.587530921E0,-2.342487561E0,3.703359404E0
1.499732079E1,9.711868519E-1,2.188558440E0,-2.202413709E0,3.253247315E0
1.500731979E1,6.423584470E-1,1.320971385E0,-2.679976862E0,3.056119395E0
1.501731879E1,4.278635734E-1,6.161971271E-1,-3.345573606E0,3.428648260E0
1.502731767E1,4.477014220E-1,6.337896448E-1,-4.006437321E0,4.080890330E0
1.503731667E1,4.349933758E-1,8.534022939E-1,-4.914666032E0,5.007140593E0
1.504731667E1,-5.636028841E-1,1.126769566E0,-1.013528061E1,1.021328404E1
1.505731567E1,-3.310886461E0,1.713947546E0,-2.135532731E1,2.167832073E1
1.506731467E1,-7.538940856E-1,2.338140741E0,-1.038160509E1,1.066831677E1
1.507731367E1,1.311894460E0,3.088760093E0,-3.405141823E0,4.780846873E0
1.508731267E1,2.017773550E0,3.961489189E0,-2.371370468E0,5.038670915E0
1.509731267E1,2.455928515E0,4.803352003E0,-1.860371182E0,5.706553800E0
1.510731167E1,2.910941003E0,5.458708518E0,-1.237369650E0,6.308895296E0
1.511731067E1,3.334888111E0,5.887156813E0,-5.041295381E-1,6.784853768E0
1.512730967E1,3.748807830E0,6.336261567E0,-2.461707026E-1,7.366299668E0
1.513730867E1,4.009805902E0,6.340479748E0,1.982276273E-1,7.504633302E0
1.514730867E1,3.980363417E0,5.623812838E0,3.760279336E-1,6.900142084E0
1.515730767E1,3.825042073E0,4.712754074E0,2.346054947E-1,6.074210859E0
1.516730667E1,3.648323429E0,3.835164773E0,6.761837125E-1,5.336288700E0
1.517730567E1,3.081821787E0,2.910893641E0,1.342441192E0,4.446692666E0
1.518730467E1,2.604270914E0,1.775031654E0,2.064303353E0,3.767534034E0
1.519730367E1,2.426031409E0,4.561874861E-1,2.712243844E0,3.667424449E0
1.520730367E1,1.716314499E0,-1.321203520E0,4.273905337E0,4.791406999E0
1.521730267E1,1.064993148E0,-3.184947376E0,5.291463532E0,6.267191277E0
1.522730167E1,1.323182217E0,-5.153554612E0,5.529702487E0,7.673822119E0
1.523730067E1,1.983725798E0,-7.137783270E0,5.604039309E0,9.289153602E0
1.524729967E1,2.262782410E0,-9.481825022E0,5.572345061E0,1.122836673E1
1.525729967E1,2.281622724E0,-1.231956999E1,6.308837541E0,1.402779520E1
1.526729867E1,2.442400104E0,-1.449050902E1,5.886338788E0,1.583000803E1
1.527729767E1,2.750572928E0,-1.530021741E1,4.665022668E0,1.623036477E1
1.528729667E1,3.076052340E0,-1.433721374E1,3.503493744E0,1.507621518E1
1.529729567E1,3.825878810E0,-1.132458790E1,2.338822526E0,1.218005462E1
1.530729567E1,4.620973254E0,-7.958262817E0,1.349295444E0,9.300964416E0
1.531729467E1,5.208331329E0,-5.657384042E0,3.758588760E-1,7.698959626E0
1.532729367E1,5.904495562E0,-4.146119701E0,-5.567303592E-1,7.236250763E0
1.533729267E1,6.725069833E0,-3.023090014E0,-1.498146990E0,7.523967165E0
1.534729167E1,7.534816230E0,-2.282411513E0,-2.297639709E0,8.201341730E0
1.535729167E1,8.284998211E0,-1.779253344E0,-2.858425405E0,8.943015912E0
1.536729067E1,8.801173452E0,-1.364209206E0,-3.299924978E0,9.497959030E0
1.537728967E1,9.660099610E0,-1.016634920E0,-1.661058604E0,9.854450097E0
1.538728867E1,1.148741765E1,-1.843966234E0,9.175197033E0,1.481705829E1
1.539728767E1,9.668686246E0,-1.744558305E0,1.902554457E0,1.000733186E1
1.540728767E1,7.283480682E0,-3.070873461E0,-3.805281993E0,8.772657847E0
1.541728667E1,5.226507983E0,-5.449750584E0,-2.965634981E0,8.112407655E0
1.542728567E1,2.811713461E0,-8.178000596E0,-2.090204764E0,8.896874861E0
1.543728467E1,7.812613937E-1,-1.114359669E1,-3.808297402E-1,1.117743924E1
1.544728367E1,-1.676982034E0,-1.378327893E1,1.626608563E0,1.397987490E1
1.545728367E1,-4.315278773E0,-1.559759627E1,3.029164979E0,1.646458262E1
1.546728267E1,-5.928863833E0,-1.562633300E1,2.867238328E0,1.695743981E1
1.547728167E1,-6.357688689E0,-1.404458281E1,1.935904344E0,1.553763938E1
1.548728067E1,-5.793890215E0,-1.131954643E1,5.323467390E-1,1.272732054E1
1.549727967E1,-5.128953037E0,-8.720112332E0,-1.321323972E0,1.020256906E1
1.550727867E1,-4.414221556E0,-6.193433969E0,-2.754917409E0,8.089100457E0
1.551727867E1,-3.816543145E0,-3.436115109E0,-5.716054419E0,7.684150359E0
1.552727767E1,-3.958182881E0,-5.492751592E-1,-1.181609432E1,1.247353197E1
1.553727667E1,-4.664739078E0,2.133510413E0,-1.787241810E1,1.859395025E1
1.554727567E1,-5.709392102E0,5.200760354E0,-2.693979481E1,2.802494623E1
1.555727467E1,-7.511537295E0,7.344913868E0,-3.151321559E1,3.321827372E1
1.556727467E1,-6.749053942E0,6.827905399E0,-1.623492875E1,1.886114876E1
1.557727367E1,-3.487953014E0,6.554930475E0,-3.915602287E0,8.394335652E0
1.558727267E1,-2.932119033E0,7.614928347E0,-4.225849995E-1,8.170864938E0
1.559727167E1,-4.139974862E0,8.168881863E0,7.167549106E-1,9.186063377E0
1.560727067E1,-5.524062847E0,8.302336959E0,1.202357400E0,1.004438812E1
1.561727067E1,-6.773954895E0,8.742280880E0,1.804880228E0,1.120587045E1
1.562726967E1,-9.118166215E0,9.069386403E0,3.327214810E0,1.328401608E1
1.563726867E1,-1.195501715E1,8.677657453E0,5.005116026E0,1.559728695E1
1.564726767E1,-1.580047477E1,6.755813908E0,6.254444987E0,1.828699283E1
1.565726667E1,-1.829403392E1,3.039224237E0,6.014661198E0,1.949576135E1
1.566726667E1,-1.477057428E1,9.439815116E-1,7.149499921E0,1.643704093E1
1.567726567E1,-1.095901296E1,-9.699700463E-1,6.560819206E0,1.280957281E1
1.568726467E1,-9.304540951E0,-2.815098122E0,5.044167826E0,1.095184408E1
1.569726367E1,-8.471034978E0,-4.790872291E0,4.443071133E0,1.069821350E1
1.570726267E1,-7.503292136E0,-6.721717039E0,4.488555454E0,1.102850864E1
1.571726267E1,-6.191007959E0,-8.670608050E0,4.788003647E0,1.168045386E1
1.572726167E1,-4.727700435E0,-1.019685647E1,4.338158051E0,1.204768229E1
1.573726067E1,-3.706170225E0,-1.149556165E1,2.825144223E0,1.240423619E1
1.574725967E1,-2.265631759E0,-1.290094812E1,1.822394686E0,1.322454809E1
1.575725867E1,-2.400371195E0,-1.555006776E1,1.144910260E0,1.577584257E1
1.576725767E1,-3.059533371E0,-2.017306006E1,9.627893731E-1,2.042645491E1
1.577725767E1,-2.532189071E0,-2.437837756E1,5.763499604E-1,2.451630994E1
1.578725667E1,-5.883780485E-1,-2.347210357E1,-1.619357139E-2,2.347948247E1
1.579725567E1,1.455600310E0,-1.681455037E1,2.996386658E-1,1.688009655E1
1.580725467E1,1.392244266E0,-1.011743257E1,4.065504724E-1,1.022086440E1
1.581725367E1,1.773970677E-1,-6.207563766E0,9.603072301E-2,6.210840485E0
1.582725367E1,2.668828560E-1,-2.697578443E0,-3.577273911E-1,2.734250318E0
1.583725267E1,7.869201829E-1,-2.444294018E-1,-1.284556827E0,1.526130842E0
1.584725167E1,9.962445098E-1,1.140915150E0,-1.843507812E0,2.385940392E0
1.585725067E1,1.061556154E0,2.167595587E0,-2.323571234E0,3.350276910E0
1.586724967E1,7.472133493E-1,2.744339211E0,-2.692674091E0,3.916659195E0
1.587724967E1,4.114526318E-1,2.774789171E0,-2.549963145E0,3.790918128E0
1.588724867E1,1.459886026E-1,2.324589819E0,-2.090751479E0,3.129899718E0
1.589724767E1,7.290147677E-2,1.822867141E0,-1.563970120E0,2.402948558E0
1.590724667E1,2.021674812E-1,1.494038444E0,-1.172262950E0,1.909770401E0
1.591724567E1,6.045250614E-1,1.531981611E0,-1.017725134E0,1.936022379E0
1.592724567E1,1.197363293E0,1.916759976E0,-1.270483894E0,2.592639000E0
1.593724467E1,1.856426358E0,2.352730713E0,-1.557499444E0,3.377493916E0
1.594724367E1,2.595990087E0,2.960386813E0,-1.951832452E0,4.394622229E0
1.595724267E1,3.049584918E0,3.531630546E0,-1.796552624E0,4.999998381E0
1.596724167E1,3.434895672E0,4.085349004E0,-1.582930155E0,5.567248211E0
1.597724067E1,3.912978642E0,4.502256065E0,-1.635731097E0,6.185250823E0
1.598724067E1,4.599158169E0,4.746337557E0,-1.765787206E0,6.840904950E0
1.599723967E1,5.197198815E0,4.947572408E0,-1.419174495E0,7.314602142E0
1.600723867E1,5.894721941E0,5.215022298E0,-5.312821072E-1,7.888375308E0
1.601723767E1,6.465372182E0,5.314322637E0,-2.529578581E-1,8.372995295E0
1.602723667E1,6.668332545E0,4.938004024E0,-3.411515580E-1,8.304632867E0
1.603723654E1,6.751200455E0,3.906214290E0,2.891154318E-1,7.805178114E0
1.604723554E1,6.785341762E0,3.003530493E0,9.473945314E-1,7.480615927E0
1.605723454E1,7.019681209E0,2.371316673E0,2.235071432E0,7.739160894E0
1.606723354E1,7.319303064E0,1.689393334E0,3.715515538E0,8.380411857E0
1.607723254E1,7.158718057E0,8.064093912E-1,4.043945455E0,8.261418472E0
1.608723254E1,6.749640418E0,-2.323396987E-1,3.792707555E0,7.745725150E0
1.609723154E1,6.341255089E0,-1.576062015E0,3.940843840E0,7.630579123E0
1.610723054E1,5.745130284E0,-3.123099037E0,4.056354416E0,7.695081593E0
1.611722954E1,4.968514795E0,-4.899028239E0,4.064241140E0,8.074941053E0
1.612722854E1,4.010315194E0,-6.878934050E0,3.194898752E0,8.579611859E0
1.613722754E1,3.214951193E0,-8.652064190E0,1.654427569E0,9.377166763E0
1.614722754E1,2.265738763E0,-1.050455449E1,2.504303992E-1,1.074904427E1
1.615722654E1,1.522303884E0,-1.218889993E1,-7.338325810E-1,1.230549474E1
1.616722554E1,1.192939582E0,-1.310159182E1,-1.045901989E0,1.319729987E1
1.617722454E1,1.342704901E0,-1.296230296E1,-9.124848998E-1,1.306356701E1
1.618722354E1,2.117843968E0,-1.112224383E1,-1.027294979E0,1.136859296E1
1.619722354E1,3.236813348E0,-8.269074488E0,-5.238941137E-1,8.895449319E0
1.620722254E1,4.209712265E0,-6.157088261E0,-2.116644923E-1,7.461649621E0
1.621722154E1,4.970512789E0,-4.731516035E0,-3.431461895E-1,6.871025446E0
1.622722054E1,5.629792201E0,-3.573524677E0,-4.616891313E-1,6.684145098E0
1.623721954E1,6.155853329E0,-2.614032256E0,-5.082038049E-1,6.707157815E0
1.624721954E1,6.415846850E0,-1.913362743E0,-4.505561057E-1,6.710219713E0
1.625721854E1,6.476921602E0,-1.182453770E0,-2.636766815E-1,6.589251532E0
1.626721754E1,6.207873668E0,-6.413992113E-1,-2.163250521E-2,6.240957971E0
1.627721654E1,5.496734131E0,-6.720386213E-1,1.487974589E-1,5.539662688E0
1.628721554E1,4.079229308E0,-1.703458226E0,1.074647339E0,4.549367932E0
1.629721454E1,2.113182860E0,-3.804573310E0,2.925050919E0,5.243685989E0
1.630721454E1,1.672756836E-1,-6.367249471E0,4.353920390E0,7.715339898E0
1.631721354E1,-1.495213442E0,-8.832749001E0,5.767959568E0,1.065469266E1
1.632721254E1,-3.077096945E0,-1.107678524E1,6.822075140E0,1.336803673E1
1.633721154E1,-4.443920733E0,-1.279391835E1,7.466151792E0,1.546532252E1
1.634721054E1,-5.584310219E0,-1.331651675E1,7.045587298E0,1.606718518E1
1.635721054E1,-5.926430222E0,-1.234809154E1,5.465080229E0,1.474669596E1
1.636720954E1,-4.984197028E0,-1.011210224E1,3.481632759E0,1.179909312E1
1.637720854E1,-3.749136443E0,-7.791899591E0,1.825531717E0,8.837549963E0
1.638720754E1,-2.631180970E0,-5.788833543E0,-5.019635832E-1,6.378532318E0
1.639720654E1,-1.936998797E0,-4.001382987E0,-3.765143196E0,5.825747457E0
1.640720554E1,-2.450497475E0,-1.062484108E0,-1.392354194E1,1.417740563E1
1.641720554E1,-4.479325332E0,2.627912377E0,-2.662794877E1,2.712965047E1
1.642720454E1,-7.145482884E0,5.191315931E0,-3.178266230E1,3.298704760E1
1.643720354E1,-7.391489865E0,6.193236333E0,-2.177587777E1,2.381552332E1
1.644720254E1,-6.283634872E0,6.269702126E0,-1.238891096E1,1.524068065E1
1.645720154E1,-4.387835410E0,6.353473431E0,-4.785008118E0,9.083833272E0
1.646720154E1,-4.041546342E0,7.114840550E0,-1.905683887E0,8.401588182E0
1.647720054E1,-4.853051874E0,7.632792175E0,-3.624852705E-1,9.052238644E0
1.648719954E1,-5.918938769E0,7.671901862E0,3.384108219E-1,9.695691632E0
1.649719854E1,-7.352756739E0,7.494808411E0,1.463819741E0,1.060084681E1
1.650719754E1,-9.051046611E0,7.422630966E0,2.515062284E0,1.197257005E1
1.651719754E1,-1.090249377E1,7.515903996E0,2.826878507E0,1.354047360E1
1.652719654E1,-1.263894374E1,7.045873227E0,2.878158588E0,1.475367837E1
1.653719554E1,-1.296711872E1,5.507347997E0,-1.365974042E0,1.415425501E1
1.654719454E1,-1.090863569E1,3.857283620E0,-7.903054576E0,1.401196778E1
1.655719354E1,-7.899463801E0,3.347817475E0,1.578851576E0,8.723656486E0
1.656719254E1,-7.379496056E0,1.135036944E0,2.700109118E0,7.939512589E0
1.657719254E1,-7.446977602E0,-1.515177882E0,2.804763753E0,8.100613503E0
1.658719154E1,-6.593890473E0,-4.075888209E0,4.012282197E0,8.728726408E0
1.659719054E1,-5.485239674E0,-6.926116403E0,4.646333213E0,9.982352179E0
1.660718954E1,-4.748576749E0,-9.822351658E0,4.971541314E0,1.198932009E1
1.661718854E1,-2.015696326E0,-1.198388719E1,5.207551310E0,1.322101261E1
1.662718854E1,2.521388094E0,-1.234052875E1,4.333969105E0,1.332026036E1
1.663718754E1,4.579996259E0,-1.333866601E1,4.051752073E0,1.467355006E1
1.664718654E1,4.391687556E0,-1.770587420E1,4.715799304E0,1.884207164E1
