"Time (s)","Linear Acceleration x (m/s^2)","Linear Acceleration y (m/s^2)","Linear Acceleration z (m/s^2)","Absolute acceleration (m/s^2)"
1.462199993E-2,-4.686101881E-1,9.901727611E-1,-9.399410856E-1,1.443442707E0
2.462199994E-2,-1.870252392E-1,9.278718477E-1,-8.672683811E-1,1.283775312E0
3.462299996E-2,-1.076764762E-1,8.442326903E-1,-7.579108304E-1,1.139627959E0
4.462399997E-2,-1.618091217E-1,7.830304688E-1,-6.546899325E-1,1.033410768E0
5.462499999E-2,-2.340912321E-1,6.626357138E-1,-6.728098691E-1,9.729120793E-1
6.462600001E-2,-2.354778993E-1,3.901911324E-1,-4.604185313E-1,6.478303673E-1
7.462600002E-2,-8.486765742E-2,6.884979486E-2,8.629671693E-2,1.392477536E-1
8.462699992E-2,3.106157899E-2,-7.376613379E-2,2.736409217E-1,2.851063279E-1
9.462799993E-2,8.421540052E-2,8.582543135E-3,1.837569380E-1,2.023178341E-1
1.046290000E-1,1.629990301E-1,4.469319284E-2,-1.541922462E-1,2.287824602E-1
1.146300000E-1,2.525812975E-1,6.562680960E-2,-5.358534604E-1,5.960227521E-1
1.246300000E-1,3.076483279E-1,2.968216234E-1,-6.893914032E-1,8.111788191E-1
1.346310000E-1,4.580694124E-1,6.512646335E-1,-7.301540977E-1,1.080323200E0
1.446320000E-1,6.819432199E-1,9.637784296E-1,-8.145732737E-1,1.434379669E0
1.546329999E-1,8.698654220E-1,1.301264514E0,-8.598821783E-1,1.785875849E0
1.646339999E-1,1.014940397E0,1.458352302E0,-6.857415712E-1,1.904504384E0
1.746339999E-1,1.172681319E0,1.094773017E0,-5.138422018E-1,1.684560252E0
1.846350000E-1,1.262575243E0,6.855942214E-1,-3.124594170E-1,1.470294721E0
1.946360000E-1,1.208023644E0,5.100923824E-1,2.447878361E-2,1.311531385E0
2.046370000E-1,1.140417844E0,3.538588732E-1,4.626387191E-1,1.280548143E0
2.146370000E-1,1.296261637E0,3.053299069E-2,7.570045120E-1,1.501426763E0
2.246380000E-1,1.622967502E0,-2.440206814E-1,7.487055588E-1,1.803920625E0
2.346389999E-1,1.875385662E0,-3.735435247E-1,4.923039830E-1,1.974580806E0
2.446399999E-1,2.176956102E0,-4.658973724E-1,1.643126070E-2,2.226312695E0
2.546409999E-1,2.652080673E0,-3.474602652E-1,-6.944200087E-1,2.763418115E0
2.646406667E-1,2.861334102E0,-2.107628882E-2,-1.586573555E0,3.271833232E0
2.746416667E-1,2.487824199E0,1.618450820E-1,-2.221025105E0,3.338924317E0
2.846426666E-1,2.159362707E0,7.344278276E-2,-3.224721891E0,3.881632700E0
2.946436666E-1,2.090005666E0,-6.207404137E-2,-3.813417224E0,4.349037571E0
3.046446666E-1,2.001096998E0,9.105401158E-2,-3.440689970E0,3.981334889E0
3.146446666E-1,1.868966297E0,6.096137470E-1,-3.068004232E0,3.643804867E0
3.246456666E-1,1.722782397E0,1.254721262E0,-3.142625813E0,3.797157047E0
3.346466667E-1,1.724936073E0,1.795387566E0,-3.096150974E0,3.973030559E0
3.446476667E-1,1.621967044E0,2.158691447E0,-2.658169379E0,3.789009145E0
3.546486666E-1,1.310115152E0,2.128647868E0,-2.374112227E0,3.447310883E0
3.646486666E-1,9.643520415E-1,1.837102187E0,-1.851262974E0,2.780664292E0
3.746496666E-1,5.816459298E-1,1.362363825E0,-1.429758832E0,2.058775728E0
3.846506666E-1,1.632567461E-1,9.481347889E-1,-1.234011594E0,1.564735427E0
3.946516666E-1,-7.420452878E-2,6.771192670E-1,-1.264047571E0,1.435901486E0
4.046526666E-1,4.515738867E-2,5.464644027E-1,-1.055807172E0,1.189702197E0
4.146526667E-1,4.581272268E-1,5.955260503E-1,6.118175626E-2,7.538401951E-1
4.246536667E-1,7.481681266E-1,6.858251864E-1,9.214358175E-1,1.370823000E0
4.346546666E-1,8.116899385E-1,6.398268950E-1,4.171479660E-1,1.114554367E0
4.446556666E-1,8.611233960E-1,5.022758245E-1,-9.520933539E-1,1.378512336E0
4.546556666E-1,8.388222617E-1,5.008339012E-1,-2.030664321E0,2.253454009E0
4.646566666E-1,6.465579904E-1,5.611929542E-1,-2.439736698E0,2.585592760E0
4.746576666E-1,4.571320307E-1,8.300988007E-1,-2.821020766E0,2.975935463E0
4.846586667E-1,2.851568302E-1,1.098282516E0,-3.080310867E0,3.282659583E0
4.946596667E-1,1.929491264E-1,1.192514489E0,-3.147291307E0,3.371166377E0
5.046596667E-1,2.987477876E-1,1.260280795E0,-2.941662859E0,3.214177702E0
5.146606666E-1,5.685718480E-1,1.384513662E0,-2.445942348E0,2.867540060E0
5.246616666E-1,7.806705326E-1,1.584743376E0,-1.724475458E0,2.468739285E0
5.346626666E-1,1.024991468E0,1.913425601E0,-9.074767596E-1,2.352725889E0
5.446636666E-1,1.350306720E0,2.322142174E0,-4.479709786E-1,2.723297728E0
5.546636666E-1,1.663114777E0,2.768649302E0,-2.363812941E-1,3.238401741E0
5.646646667E-1,1.712503577E0,2.846638880E0,-1.937065601E-1,3.327693442E0
5.746656667E-1,1.681906413E0,2.904638582E0,-3.902104282E-1,3.379052922E0
5.846666666E-1,1.507765075E0,2.966955867E0,4.873893982E-1,3.363589015E0
5.946676666E-1,9.347641801E-1,3.198893570E0,1.882087741E0,3.827395774E0
6.046676666E-1,1.316735406E-1,3.485798023E0,2.526631000E0,4.307202107E0
6.146686666E-1,-5.922643273E-1,3.533006688E0,2.789135315E0,4.540064878E0
6.246696666E-1,-9.580205302E-1,3.444785360E0,3.373308411E0,4.915644327E0
6.346706667E-1,-7.965596102E-1,3.707203136E0,3.595982078E0,5.225796533E0
6.446716667E-1,-5.676679781E-1,4.008316031E0,3.381141926E0,5.274558281E0
6.546716667E-1,-2.246568593E-1,4.487211471E0,3.532433369E0,5.715209795E0
6.646726666E-1,4.519379490E-1,5.017892193E0,3.571529022E0,6.175703160E0
6.746736666E-1,8.622702543E-1,5.536402227E0,3.172927254E0,6.439155765E0
6.846746666E-1,9.996148449E-1,6.133288339E0,2.151364301E0,6.576079687E0
6.946756666E-1,1.233920670E0,6.240246778E0,2.491027889E0,6.831431768E0
7.046756666E-1,1.302749999E0,5.347617853E0,3.126472296E0,6.330008158E0
7.146766667E-1,8.730476229E-1,3.557057163E0,3.475790806E0,5.049355359E0
7.246776667E-1,2.486675002E-1,1.681488191E0,3.722595931E0,4.092304794E0
7.346786666E-1,-1.368324568E-1,6.712679583E-1,3.881401631E0,3.941395998E0
7.446796666E-1,-2.064962846E-1,1.045578638E-1,3.915618367E0,3.922453347E0
7.546796666E-1,8.502798990E-2,-2.272181225E-1,4.834726993E0,4.840810152E0
7.646806666E-1,6.251373737E-1,-9.440592796E-2,6.206391399E0,6.238509711E0
7.746816666E-1,1.158186217E0,1.972122583E-1,6.499452093E0,6.604783532E0
7.846826667E-1,1.547444426E0,5.511529925E-1,6.076542866E0,6.294658614E0
7.946836667E-1,1.925279223E0,8.150083065E-1,5.138853543E0,5.547860341E0
8.046836667E-1,2.394008840E0,9.662374762E-1,3.585109180E0,4.417906860E0
8.146846666E-1,2.821668346E0,1.306444270E0,1.032367439E0,3.276338110E0
8.246856666E-1,2.514702095E0,1.438130876E0,-1.587479873E0,3.303337614E0
8.346866666E-1,1.410643992E0,1.575435778E-1,-5.904873877E0,6.073077634E0
8.446876666E-1,6.854043330E-1,2.355129826E-1,-7.043706248E0,7.080892824E0
8.546876666E-1,8.466708331E-1,1.159796394E0,-3.710957633E0,3.979093582E0
8.646886667E-1,2.950548872E0,3.979803546E0,7.476314253E-1,5.010342070E0
8.746896667E-1,3.306687575E0,4.273231445E0,1.462177550E0,5.597557761E0
8.846906667E-1,4.541430071E0,2.364876257E0,-7.973947388E-1,5.181994324E0
8.946916666E-1,4.738862477E0,8.916442537E-1,1.974604726E-2,4.822057337E0
9.046916666E-1,4.140301137E0,-3.872283483E-1,-6.017042184E-1,4.201676721E0
9.146926666E-1,3.637628871E0,-8.445232970E-1,-2.778678739E0,4.654741554E0
9.246936666E-1,3.912077293E0,-1.330371369E0,-4.457253554E0,6.077939287E0
9.346946666E-1,4.575369065E0,-3.279493929E0,-4.768053532E0,7.377222851E0
9.446956667E-1,4.018046090E0,-6.378500683E0,-6.091674875E0,9.692185932E0
9.546956667E-1,2.873350423E0,-7.870327710E0,-5.116775626E0,9.817310921E0
9.646966666E-1,1.938437066E0,-7.088646194E0,-3.877916690E0,8.309312906E0
9.746976666E-1,1.089246594E0,-4.339089220E0,-5.994024035E0,7.479470404E0
9.846986666E-1,1.950681208E-1,-9.876789236E-1,-7.296506524E0,7.365634303E0
9.946996666E-1,-2.170092494E-1,8.228008908E-1,-5.857219654E0,5.918709014E0
1.004699667E0,-5.540888064E-1,6.591440490E-1,-4.736200240E0,4.813842332E0
1.014700667E0,-1.549400320E0,-9.147910416E-1,-3.611349145E0,4.034764758E0
1.024701667E0,-2.997411090E0,-2.696500801E0,-1.668505910E0,4.363427756E0
1.034702667E0,-4.392457927E0,-4.190918144E0,-3.732639694E0,7.126715976E0
1.044703667E0,-3.922204671E0,-6.136038870E0,-7.369482114E0,1.036069154E1
1.054703667E0,-2.967858970E0,-7.783069126E0,-8.066393622E0,1.159530327E1
1.064704667E0,-3.485813811E0,-9.618477960E0,-6.429076175E0,1.208300611E1
1.074705667E0,-6.053660957E0,-1.493110490E1,-2.827325234E0,1.635782604E1
1.084706667E0,-1.014259430E1,-1.726775636E1,-4.084737970E0,2.043851054E1
1.094707667E0,-1.133438549E1,-1.765649329E1,-5.446719972E0,2.167687266E1
1.104707667E0,-9.465457495E0,-1.708867719E1,-4.457116145E0,2.003705712E1
1.114708667E0,-9.453804579E0,-1.939173172E1,-5.996782751E0,2.239140646E1
1.124709667E0,-8.330575503E0,-2.220972012E1,-2.139796169E0,2.381698729E1
1.134710667E0,-3.988585187E0,-2.211275457E1,2.438353246E0,2.260151086E1
1.144711667E0,1.232476115E-2,-2.272836581E1,3.650366738E0,2.301964251E1
1.154711667E0,3.958203054E0,-2.258292450E1,4.527427451E0,2.336992619E1
1.164712667E0,8.705163340E0,-1.785281589E1,6.866902235E0,2.101564299E1
1.174713667E0,1.376183134E1,-1.231183296E1,9.762859163E0,2.088738020E1
1.184714667E0,1.865060649E1,-8.992383835E0,1.429101138E1,2.515832060E1
1.194715667E0,2.165121513E1,-7.226932844E0,1.803575071E1,2.909109793E1
1.204716667E0,1.943757740E1,-5.066239895E0,1.857486634E1,2.735894481E1
1.214716667E0,1.748213867E1,-4.483177185E0,1.636130813E1,2.436014068E1
1.224717667E0,1.996184928E1,-2.064885151E0,1.530401225E1,2.523790737E1
1.234718667E0,2.304693615E1,2.312493099E0,1.140945439E1,2.582023508E1
1.244719667E0,2.841776277E1,7.937664245E0,5.209390844E0,2.996186756E1
1.254720667E0,2.947491597E1,1.152577305E1,2.137189773E0,3.172036721E1
1.264720375E0,2.690812396E1,1.257471091E1,-2.434214002E0,2.980093769E1
1.274721375E0,2.543060507E1,1.252844423E1,-8.786295211E0,2.967956490E1
1.284722375E0,2.212377774E1,1.226293152E1,-1.186882919E1,2.794119070E1
1.294723375E0,1.797350126E1,1.113365292E1,-1.113437213E1,2.389517142E1
1.304724375E0,1.744643324E1,1.125523524E1,-8.146354880E0,2.230294713E1
1.314724375E0,1.557933776E1,9.554778977E0,-7.114237118E0,1.961178054E1
1.324725375E0,1.091143533E1,8.258928400E0,-8.994576541E0,1.637594964E1
1.334726375E0,7.797000117E0,7.819267484E0,-1.126314185E1,1.577315818E1
1.344727375E0,5.331697639E0,6.529369957E0,-1.296602412E1,1.546536302E1
1.354728375E0,3.094500890E0,4.842356440E0,-1.339064542E1,1.457167582E1
1.364728375E0,2.661790559E0,3.589658899E0,-1.278563518E1,1.354412223E1
1.374729375E0,-6.135226107E-1,-1.983105993E0,-7.973686602E0,8.239465844E0
1.384730375E0,-6.207769588E0,-6.753962095E0,-5.476993346E-1,9.189797701E0
1.394731375E0,-1.159398082E1,-8.601498638E0,1.459296627E0,1.450984895E1
1.404732375E0,-1.308104704E1,-8.198689799E0,-8.473787847E-1,1.546125341E1
1.414732375E0,-9.133509309E0,-5.610837282E0,-5.862282758E0,1.221756303E1
1.424733375E0,-5.505039516E0,-2.641195496E0,-9.455910162E0,1.125591448E1
1.434734375E0,-3.138115271E0,1.577802147E0,-8.714749265E0,9.395960932E0
1.444735375E0,1.866910708E-1,5.260579709E0,-8.113064343E0,9.671109836E0
1.454736375E0,2.481713274E0,5.183632690E0,-6.578086034E0,8.734996537E0
1.464737375E0,8.922541183E-1,3.256950574E0,-2.063286083E0,3.957397366E0
1.474737375E0,1.375842826E0,3.583088967E0,-2.537944193E0,4.601372703E0
1.484738375E0,2.437126501E0,4.720007545E0,-1.985370181E0,5.670956847E0
1.494739375E0,5.865891659E0,7.612056779E0,-1.529301393E0,9.730922676E0
1.504740375E0,9.099987221E0,8.910847337E0,-2.030107082E0,1.289706565E1
1.514741375E0,7.458624086E0,5.593733007E0,1.548458918E-1,9.324424886E0
1.524741375E0,9.966057508E0,7.904737989E0,-7.346373041E-1,1.274154139E1
1.534742375E0,9.252191999E0,5.416841285E0,-6.523154513E-1,1.074107731E1
1.544743375E0,5.906684759E0,1.183054279E0,-8.578006426E-1,6.084764927E0
1.554744375E0,2.465630507E0,-7.464473641E-1,6.626118133E-1,2.659994715E0
1.564745375E0,-2.310449497E0,-4.216340961E0,2.753259138E0,5.540410080E0
1.574745375E0,-5.131916406E0,-5.691951027E0,2.179117525E0,7.967648692E0
1.584746375E0,-4.809502105E0,-4.649410310E0,9.610664910E-1,6.758104433E0
1.594747375E0,-1.922543457E0,-3.061297183E0,-5.268112896E-1,3.653114277E0
1.604748375E0,4.641473007E-1,-2.163875296E0,-3.957758081E0,4.534494243E0
1.614749375E0,1.691946813E0,-2.976257618E0,-5.820591525E0,6.752783066E0
1.624749375E0,1.798744453E0,-3.705533171E0,-6.963268442E0,8.090337760E0
1.634750375E0,-2.067645621E-1,-4.387824593E0,-8.699447687E0,9.745570599E0
1.644751375E0,-1.194430622E0,-5.700552281E0,-6.730023594E0,8.900347094E0
1.654752375E0,-2.080070955E0,-5.986541938E0,-3.000798674E0,7.012144624E0
1.664753375E0,-3.595568680E0,-6.567819493E0,-8.052861410E-1,7.530793636E0
1.674753375E0,-4.731771559E0,-7.204049181E0,5.001359263E-2,8.619193004E0
1.684754375E0,-4.187941911E0,-8.191179636E0,2.546178242E0,9.545538482E0
1.694755375E0,-2.499486471E0,-8.491673895E0,4.517535424E0,9.938012098E0
1.704756375E0,-2.753172600E0,-7.767788597E0,4.836414499E0,9.555595443E0
1.714757375E0,-4.142621312E0,-6.021295449E0,4.497678865E0,8.581749553E0
1.724757375E0,-4.512514420E0,-2.887668500E0,4.795500362E0,7.190148780E0
1.734758375E0,-6.020848721E-1,-1.572395226E0,5.704556454E0,5.947848122E0
1.744759375E0,1.309268768E0,-1.763061234E0,2.208529605E0,3.114510016E0
1.754760375E0,1.448926590E0,-3.311065970E0,2.051976838E0,4.156098539E0
1.764761375E0,1.263349414E-1,-2.438686538E0,7.059083841E0,7.469525903E0
1.774762375E0,-1.035679302E0,-9.869164467E-2,6.411943249E0,6.495797709E0
1.784762375E0,8.529479653E-1,-2.766791350E-1,7.298418564E0,7.353297567E0
1.794763375E0,1.705683677E0,-3.378410107E-1,6.896627140E0,7.112451002E0
1.804764375E0,1.825612993E0,3.733874041E-1,5.233609427E0,5.555443149E0
1.814765375E0,2.041841274E0,8.221658832E-1,3.389533265E0,4.041535387E0
1.824766375E0,1.335417224E0,1.936952165E0,6.785202599E-1,2.448573584E0
1.834766375E0,1.959578551E0,1.835387784E0,-8.030150825E-1,2.802397123E0
1.844767375E0,1.663107468E0,2.103083256E0,-1.833500741E0,3.248170347E0
1.854768375E0,1.586881411E0,2.623322897E0,-2.077529170E0,3.703531164E0
1.864769375E0,1.745813410E0,3.146186768E0,-1.542531157E0,3.914812641E0
1.874770375E0,1.552232857E0,3.378113068E0,-9.727386298E-1,3.842823856E0
1.884770375E0,8.375924461E-1,3.741634465E0,-4.671065400E-1,3.862586970E0
1.894771375E0,1.434954230E-1,3.770833122E0,8.141253769E-1,3.860385149E0
1.904772375E0,-1.127780988E0,2.871057145E0,2.675128058E0,4.083034315E0
1.914773375E0,-6.867075312E-1,3.283908577E0,3.576019099E0,4.903420782E0
1.924774375E0,1.126534069E0,5.562995363E0,1.915794600E0,5.990514617E0
1.934774375E0,1.648407714E0,6.941441955E0,-1.217504904E0,7.237622717E0
1.944775375E0,2.122417660E0,1.060770289E1,-8.021420932E-1,1.084764717E1
1.954776375E0,3.428737092E0,1.629314713E1,2.232711934E0,1.679904414E1
1.964777375E0,1.060506652E0,1.275814157E1,1.432096549E0,1.288199330E1
1.974778375E0,-1.980453696E0,7.965719186E0,-2.484481346E0,8.575985457E0
1.984778375E0,-4.393110768E0,5.472769318E0,-4.671137686E0,8.430311590E0
1.994779375E0,-5.918225409E0,3.912161493E0,-4.786719013E0,8.558217014E0
2.004780375E0,-6.618569232E0,1.509737633E0,-5.122262653E0,8.504254293E0
2.014781375E0,-4.748102832E0,-3.690177798E0,-4.293398200E0,7.388853821E0
2.024782375E0,6.038272693E-1,-1.161590788E1,-1.181981315E0,1.169149276E1
2.034782375E0,5.664259783E0,-1.838017510E1,9.678789358E-1,1.925750413E1
2.044783375E0,5.304176549E0,-1.589382440E1,1.453694994E0,1.681847711E1
2.054784375E0,7.607453851E0,-1.124232459E1,3.837562716E-1,1.357978222E1
2.064785375E0,9.773681774E0,-9.201316545E0,-6.567167236E-1,1.343950737E1
2.074786375E0,9.672431973E0,-8.161892102E0,-2.652732053E0,1.293094777E1
2.084787375E0,7.340040214E0,-8.578562935E0,-3.715597399E0,1.188585699E1
2.094787375E0,5.037814826E0,-8.372232821E0,-4.279816872E0,1.066727205E1
2.104788375E0,4.978291340E0,-6.096852584E0,-4.795200984E0,9.216775390E0
2.114789375E0,4.501853484E0,-3.941466569E0,-8.099870685E0,1.007024074E1
2.124790375E0,3.779460688E0,-3.656144080E0,-9.280475566E0,1.066672112E1
2.134791375E0,3.553625140E0,-3.422800999E0,-7.215450667E0,8.741083836E0
2.144791375E0,2.506466877E0,-4.782407861E0,-4.991407814E0,7.353091399E0
2.154792375E0,8.146738458E-1,-6.402663133E0,-2.685541949E0,6.990702699E0
2.164793375E0,-7.656519592E-1,-6.589910274E0,-8.789268520E-1,6.692208361E0
2.174794375E0,-1.498484666E0,-5.858348166E0,1.034170062E0,6.134754050E0
2.184795375E0,-1.665391391E0,-4.370549871E0,2.698189477E0,5.399579716E0
2.194795375E0,-1.854541216E0,-3.495903473E0,3.588047991E0,5.341793014E0
2.204796375E0,-2.020724055E0,-3.073005356E0,4.602145804E0,5.891216650E0
2.214797375E0,-2.115383167E0,-2.732713777E0,5.654797234E0,6.627163970E0
2.224798375E0,-2.395330895E0,-2.470850902E0,6.440943684E0,7.302634444E0
2.234799375E0,-2.559506093E0,-2.239160244E0,6.486349068E0,7.323771861E0
2.244799375E0,-3.032625946E0,-2.057924625E0,6.302928929E0,7.291007268E0
2.254800375E0,-3.591729105E0,-1.789750850E0,6.534270508E0,7.668143005E0
2.264801375E0,-3.985361032E0,-1.507487624E0,6.352858304E0,7.649472539E0
2.274802375E0,-4.061763383E0,-9.138847232E-1,5.350378908E0,6.779355539E0
2.284803375E0,-4.407065733E0,1.379317242E-1,4.233068967E0,6.112293057E0
2.294803375E0,-5.000601391E0,1.400335643E0,3.036145093E0,6.015407818E0
2.304804375E0,-5.188180654E0,2.527958318E0,2.054649015E0,6.126122292E0
2.314805375E0,-4.920178202E0,3.400262321E0,1.402683885E0,6.143082246E0
2.324806375E0,-4.501542705E0,4.290327242E0,8.953262454E-1,6.282706714E0
2.334807375E0,-4.030209761E0,4.967248873E0,-4.424114460E-1,6.411854644E0
2.344808375E0,-3.435907825E0,5.182918745E0,-2.797864038E0,6.818808728E0
2.354808375E0,-2.450574220E0,5.019951582E0,-5.954022648E0,8.164288921E0
2.364809375E0,-5.590131122E-1,5.367370332E0,-7.234649999E0,9.025592532E0
2.374810375E0,8.463713095E-1,5.660336886E0,-6.033457657E0,8.316151114E0
2.384811375E0,3.903063226E-1,6.014116237E0,-2.932093306E0,6.702171610E0
2.394812375E0,-9.944213480E-2,6.784089873E0,4.281320337E-1,6.798313113E0
2.404812375E0,-6.038010299E-1,7.294360596E0,2.121684565E0,7.620617926E0
2.414813375E0,-4.761697608E-1,7.761527399E0,2.951355203E0,8.317363930E0
2.424814375E0,3.181744856E-1,7.826328582E0,3.633482318E0,8.634514916E0
2.434815375E0,1.164676480E0,7.530391642E0,3.664899116E0,8.455457120E0
2.444816375E0,1.627144168E0,7.088190111E0,3.855294690E0,8.231241361E0
2.454816375E0,8.976797497E-1,6.649546026E0,6.124167852E0,9.084477044E0
2.464817375E0,8.275406438E-1,5.570657555E0,8.589468577E0,1.027112552E1
2.474818375E0,2.422917767E0,3.799534764E0,4.978147498E0,6.714830411E0
2.484819375E0,3.315053771E0,1.503737805E0,-3.435777140E0,5.005534282E0
2.494820375E0,4.895575750E0,-3.508614151E0,-1.626996292E1,1.734902674E1
2.504820375E0,7.047586461E0,-1.212647739E1,-2.153066893E1,2.569610152E1
2.514821375E0,6.987084151E0,-1.788113981E1,-1.701318496E1,2.565156853E1
2.524822375E0,5.035307540E0,-1.440249907E1,-7.682439714E0,1.708233536E1
2.534823375E0,7.869387478E-2,-6.593488185E0,2.385979736E-1,6.598273120E0
2.544824375E0,-2.397981731E0,-2.581762058E-1,-1.567710145E0,2.876575470E0
2.554825375E0,-2.789405456E0,1.997027044E0,-3.726675826E0,5.065275168E0
2.564825375E0,-2.013500989E0,1.182837347E0,-1.747330470E0,2.916582623E0
2.574826375E0,-1.238225098E0,-1.548794110E0,-3.844971138E-1,2.019852128E0
2.584827375E0,4.580679506E-2,-5.882597154E0,-4.635456222E-1,5.901010260E0
2.594828375E0,3.591904522E0,-1.015244920E1,-4.315694218E0,1.160169037E1
2.604829375E0,5.769809042E0,-9.924176241E0,3.923719100E0,1.213159272E1
2.614829375E0,4.160815508E0,-6.160282010E0,1.281622898E1,1.481611236E1
2.624830375E0,2.968858843E0,-3.237058931E0,1.228370317E1,1.304538374E1
2.634831375E0,2.135520101E0,-3.001345974E0,9.826559315E0,1.049427423E1
2.644832375E0,2.132207653E0,-2.860380129E0,8.153591394E0,8.899951493E0
2.654833375E0,3.081118952E0,-2.084629444E0,6.155704225E0,7.192473040E0
2.664833375E0,3.126315590E0,-1.761796482E0,3.500449684E0,5.013075304E0
2.674834375E0,2.004817874E0,-2.847439072E0,1.290703858E0,3.713909049E0
2.684835375E0,1.835310016E0,-4.003796718E0,1.638195698E0,4.699195267E0
2.694836375E0,2.084501390E0,-3.438514806E0,3.076275119E0,5.062805420E0
2.704837375E0,1.313869942E0,-1.790398722E0,3.661983694E0,4.282745192E0
2.714837375E0,5.326456779E-1,4.623218000E-1,3.883390853E0,3.946919987E0
2.724838375E0,2.847254884E-1,3.221155674E0,3.073674277E0,4.461433182E0
2.734839375E0,-8.009703112E-1,4.505945073E0,1.331421529E0,4.766316999E0
2.744840375E0,-2.496269917E0,4.887604533E0,3.938158214E-1,5.502284296E0
2.754841375E0,-4.006985790E0,5.102489124E0,7.525835236E-2,6.488219648E0
2.764842375E0,-5.565671634E0,4.922880201E0,-1.371540628E-1,7.431706496E0
2.774842375E0,-6.446952283E0,5.033193771E0,-3.579349673E-1,8.186840093E0
2.784843375E0,-6.850361631E0,5.310445349E0,-1.952724445E-1,8.669856723E0
2.794844375E0,-7.116492974E0,5.459780313E0,3.277112943E-1,8.975581764E0
2.804845375E0,-7.173742477E0,5.583256550E0,7.573611921E-1,9.121892940E0
2.814846375E0,-6.992669411E0,5.828663022E0,7.999944109E-1,9.138420497E0
2.824846375E0,-6.598328510E0,6.098395665E0,8.092248255E-1,9.021264525E0
2.834847375E0,-6.135431929E0,6.210064620E0,6.471744331E-1,8.753699919E0
2.844848375E0,-5.541018019E0,5.801060071E0,4.036689645E-1,8.032317677E0
2.854849375E0,-4.358138279E0,4.975166588E0,2.645023084E-1,6.619336319E0
2.864850375E0,-2.593202135E0,3.934218945E0,5.700563098E-1,4.746339665E0
2.874850375E0,-1.855412451E0,2.208033176E0,-1.192131789E-1,2.886551169E0
2.884851375E0,-2.113816990E0,1.530304044E-1,-1.836569652E0,2.804394526E0
2.894852375E0,-1.626091962E0,-1.424625562E0,-4.038821540E0,4.581027449E0
2.904853375E0,-5.579226065E-1,-2.630423756E0,-6.400448792E0,6.942344813E0
2.914854375E0,4.904404753E-1,-3.169365131E0,-7.993815642E0,8.613158289E0
2.924854375E0,1.737203677E0,-3.152277228E0,-8.960153398E0,9.656038383E0
2.934855375E0,3.187308774E0,-2.808750969E0,-8.975257341E0,9.929917601E0
2.944856375E0,4.956402288E0,-2.327190660E0,-8.390427017E0,1.001903217E1
2.954857375E0,6.437785018E0,-2.310765831E0,-6.923533103E0,9.732421348E0
2.964858375E0,7.884058142E0,-2.884336172E0,-5.717554815E0,1.015717485E1
2.974859375E0,9.359896542E0,-3.681063743E0,-5.568150269E0,1.149618158E1
2.984859375E0,1.033910987E1,-3.613106818E0,-5.607756969E0,1.230441677E1
2.994860375E0,1.092867059E1,-2.818981258E0,-5.931521392E0,1.275011538E1
3.004861375E0,1.136331752E1,-2.386401905E0,-5.106479849E0,1.268448010E1
3.014862375E0,1.071408947E1,-4.377137929E-1,-3.475114868E0,1.127207744E1
3.024863375E0,8.635952187E0,1.635220635E-1,-3.973687066E0,9.507712582E0
3.034863375E0,5.709479225E0,5.575185639E-1,-1.746586704E0,5.996627810E0
3.044864375E0,2.845290805E0,-8.797293824E-1,-2.307796615E-1,2.987116134E0
3.054865375E0,1.175218425E0,-3.336670927E0,4.134781804E-1,3.561667507E0
3.064866375E0,-4.522002697E-1,-5.711637433E0,4.996877738E-1,5.751258568E0
3.074867375E0,-2.290302331E0,-7.568444737E0,1.193138972E0,7.996900719E0
3.084867375E0,-4.461310937E0,-9.688428785E0,2.754104061E0,1.101608083E1
3.094868375E0,-5.681777456E0,-1.052718556E1,4.428622078E0,1.275605442E1
3.104869375E0,-6.546791736E0,-9.979101477E0,5.859225833E0,1.329561866E1
3.114870375E0,-6.710145400E0,-8.639761648E0,6.496741909E0,1.272317523E1
3.124871375E0,-6.034437650E0,-6.359928757E0,5.657653014E0,1.043418273E1
3.134872375E0,-5.475412844E0,-3.997054878E0,4.633330175E0,8.211232674E0
3.144872375E0,-4.872877444E0,-1.731230162E0,3.860533503E0,6.453356598E0
3.154873375E0,-4.220491607E0,-6.586040586E-1,3.894273691E0,5.780283409E0
3.164874375E0,-3.814202797E0,-8.428012919E-1,4.883006868E0,6.253176238E0
3.174875375E0,-3.579670685E0,-1.109468240E0,5.421968123E0,6.591107670E0
3.184876375E0,-3.843467819E0,-8.746276867E-1,5.016166095E0,6.379587820E0
3.194876375E0,-4.216056786E0,3.657257974E-1,3.939343445E0,5.781636183E0
3.204877375E0,-4.423878817E0,1.754960502E0,2.631868603E0,5.438503700E0
3.214878375E0,-4.449861212E0,2.495889848E0,1.598817624E0,5.346676420E0
3.224879375E0,-4.067781337E0,3.659689831E0,1.422305387E0,5.653594191E0
3.234880375E0,-3.788696073E0,5.044280092E0,1.513637141E0,6.487686566E0
3.244880375E0,-3.670969110E0,6.167295161E0,1.515574908E0,7.335428489E0
3.254881375E0,-3.449678018E0,7.105725326E0,1.255123551E0,7.997933856E0
3.264883125E0,-3.065506594E0,7.863090611E0,7.186684120E-1,8.470065461E0
3.274884125E0,-2.496763422E0,8.233701172E0,-8.224751278E-1,8.643154975E0
3.284885125E0,-5.848051804E-1,8.009554008E0,-5.255517190E0,9.597677502E0
3.294885125E0,6.412419212E-1,7.226497811E0,-5.327511617E0,9.000880059E0
3.304886125E0,9.242360491E-1,6.908981137E0,-2.013679329E0,7.255559046E0
3.314887125E0,1.262408597E0,7.406542352E0,3.120952816E-1,7.519837002E0
3.324888125E0,1.185679679E0,8.026992744E0,3.102525609E0,8.687008343E0
3.334889125E0,1.614759473E0,8.547424757E0,5.899276922E0,1.051034663E1
3.344889125E0,2.638076591E0,8.663862702E0,5.962402292E0,1.084307180E1
3.354890125E0,2.636073628E0,7.519285440E0,2.981440882E0,8.507498307E0
3.364891125E0,1.700509768E0,5.773968751E0,3.784426144E-1,6.031058566E0
3.374892125E0,2.166019762E0,3.937310953E0,-8.716654873E-1,4.577538626E0
3.384893125E0,4.978067976E0,1.518586809E0,-2.773043193E0,5.897205713E0
3.394894125E0,8.032989648E0,-1.956453214E0,-6.664925373E0,1.061969218E1
3.404894125E0,8.116514785E0,-7.095642387E0,-1.485931045E1,1.835824230E1
3.414895125E0,6.619779605E0,-1.162971783E1,-1.853272545E1,2.285899673E1
3.424896125E0,5.668219517E0,-1.171692671E1,-1.221905753E1,1.785274351E1
3.434897125E0,2.926424722E0,-7.959843319E0,-4.783062165E0,9.736567721E0
3.444898125E0,3.665786138E-1,-3.756009260E0,-2.693523399E0,4.636491534E0
3.454898125E0,-2.578815061E-1,-1.084130500E0,-3.083930001E0,3.279095312E0
3.464899125E0,-8.991789758E-1,-2.138163042E-1,-3.005855054E0,3.144742414E0
3.474900125E0,-7.652087402E-1,-1.248426150E0,-3.461939044E0,3.758874062E0
3.484901125E0,7.258634108E-1,-4.043005807E0,-3.457818511E0,5.369290689E0
3.494902125E0,3.579216941E0,-6.092952492E0,1.605634016E0,7.246580198E0
3.504902125E0,4.188914888E0,-7.108712668E0,6.879914628E0,1.074309215E1
3.514903125E0,1.026644184E0,-6.552593343E0,8.996175170E0,1.117683522E1
3.524904125E0,-7.525968808E-1,-4.901539618E0,9.712293026E0,1.090505060E1
3.534905125E0,-2.536761886E-1,-4.408319376E0,9.486893388E0,1.046416635E1
3.544906125E0,8.135488415E-1,-4.436527514E0,8.261999942E0,9.413037827E0
3.554907125E0,2.086385363E0,-4.144538614E0,6.290523477E0,7.816705816E0
3.564907125E0,2.197397676E0,-3.403082433E0,4.184179813E0,5.823820679E0
3.574908125E0,1.916593915E0,-3.011644090E0,2.452743244E0,4.331198654E0
3.584909125E0,2.144571006E0,-3.219896184E0,1.447208093E0,4.130535982E0
3.594910125E0,2.616986854E0,-3.158182331E0,1.620078685E0,4.409919588E0
3.604911125E0,2.887522904E0,-2.399302032E0,1.864576499E0,4.191787720E0
3.614911125E0,4.039372932E0,1.541986781E-1,1.906246097E0,4.469237642E0
3.624912125E0,4.989389940E0,4.538818704E0,-4.094957880E-1,6.757408823E0
3.634913125E0,4.271758824E0,6.748523015E0,1.578023171E-1,7.988453411E0
3.644914125E0,3.242858199E0,7.070378907E0,2.926208668E0,8.310781213E0
3.654915125E0,1.569659899E0,6.937886848E0,5.778425499E0,9.164513482E0
3.664915125E0,-6.625965375E-1,6.386842906E0,3.739244124E0,7.430527780E0
3.674916125E0,-3.387254605E0,5.433701731E0,2.306082212E0,6.805631744E0
3.684917125E0,-5.544890045E0,4.911301544E0,1.555337144E0,7.568735832E0
3.694918125E0,-6.691323797E0,4.731978550E0,5.987665772E-1,8.217296184E0
3.704919125E0,-7.240681402E0,4.885030589E0,-7.554573387E-1,8.767080860E0
3.714919125E0,-7.489147722E0,5.285940837E0,-1.079802391E0,9.230085446E0
3.724920125E0,-7.293695183E0,5.608103124E0,-3.056305269E-1,9.205553763E0
3.734921125E0,-6.847409956E0,5.862373974E0,4.381243405E-1,9.024766183E0
3.744922125E0,-6.564133408E0,5.758969474E0,1.765455669E0,8.909007269E0
3.754923125E0,-6.658094071E0,5.214495463E0,2.769409148E0,8.898921655E0
3.764924125E0,-7.353588213E0,3.302061258E0,1.358495892E0,8.174617987E0
3.774924125E0,-7.419402133E0,1.443598022E0,1.844690558E0,7.780384728E0
3.784925125E0,-5.888927350E0,3.273680627E-1,1.162544001E0,6.011500955E0
3.794926125E0,-4.274815164E0,-5.346740770E-1,-4.018346930E-1,4.326822411E0
3.804927125E0,-3.118147615E0,-1.119842370E0,-2.528347158E0,4.167664913E0
3.814928125E0,-1.813136204E0,-1.375814175E0,-4.409587052E0,4.962336699E0
3.824928125E0,-3.903165552E-1,-1.591665310E0,-5.887552085E0,6.111384052E0
3.834929125E0,1.029981190E0,-2.304666601E0,-6.480244575E0,6.954561031E0
3.844930125E0,2.860465499E0,-3.981441643E0,-6.362743022E0,8.032349544E0
3.854931125E0,4.842022564E0,-4.994714414E0,-6.045690617E0,9.216438012E0
3.864932125E0,7.166448660E0,-5.414828673E0,-5.972937806E0,1.078676699E1
3.874932125E0,9.646520621E0,-5.990513366E0,-5.345956074E0,1.255073133E1
3.884933125E0,1.121829487E1,-5.447598808E0,-5.795688234E0,1.375196258E1
3.894934125E0,1.083967597E1,-4.431928679E0,-8.107036448E0,1.424305469E1
3.904935125E0,9.350167944E0,-3.348709175E0,-9.363136484E0,1.364946221E1
3.914936125E0,7.214023946E0,-2.058460230E0,-8.522847156E0,1.135422052E1
3.924937125E0,5.638862402E0,-1.799628552E0,-7.488803905E0,9.545554779E0
3.934937125E0,5.419139825E0,-3.330580468E0,-6.065289899E0,8.789060488E0
3.944938125E0,5.209639351E0,-6.362334886E0,-3.908242689E0,9.104614670E0
3.954939125E0,3.508850378E0,-1.004120125E1,-1.065539716E0,1.068986101E1
3.964940125E0,1.698252450E0,-1.052879120E1,3.942029071E0,1.137009669E1
3.974941125E0,8.228552699E-2,-7.289518517E0,6.675623438E0,9.884725560E0
3.984941125E0,-2.233010142E0,-6.599523681E0,6.231587636E0,9.347338208E0
3.994942125E0,-3.668435512E0,-6.376150687E0,6.360545638E0,9.724672617E0
4.004943125E0,-4.204035203E0,-6.079989799E0,7.081626027E0,1.023667989E1
4.014944125E0,-4.173148456E0,-5.383116299E0,7.468883611E0,1.010828034E1
4.024945125E0,-4.538660830E0,-4.875290297E0,7.273269689E0,9.862471778E0
4.034945125E0,-4.755908865E0,-4.282169791E0,6.584558902E0,9.182160050E0
4.044946125E0,-4.706579707E0,-3.492320300E0,5.996738897E0,8.385050448E0
4.054947125E0,-4.875873265E0,-3.192090919E0,5.762434534E0,8.195684003E0
4.064948125E0,-5.084582611E0,-2.609629303E0,5.417745849E0,7.874967651E0
4.074949125E0,-5.370143666E0,-1.367822785E0,4.216161159E0,6.963145631E0
4.084949125E0,-5.328725499E0,1.577017450E-1,2.645073370E0,5.951184623E0
4.094950125E0,-5.108312366E0,1.534594731E0,1.323335999E0,5.495548597E0
4.104951125E0,-4.966416814E0,2.913793275E0,4.244458759E-1,5.773702584E0
4.114952125E0,-4.698643574E0,4.066929106E0,-7.438155323E-1,6.258628071E0
4.124953125E0,-4.093150652E0,5.033680844E0,-1.799198781E0,6.732677131E0
4.134954125E0,-3.331952809E0,5.918017248E0,-2.670522206E0,7.297706936E0
4.144954125E0,-2.629059600E0,6.392073825E0,-3.881572369E0,7.926989733E0
4.154955125E0,-1.428761297E0,6.636189231E0,-4.345854156E0,8.060199421E0
4.164956125E0,-5.803034091E-1,6.672830808E0,-5.387135675E0,8.595618292E0
4.174957125E0,-9.166867089E-1,6.807293964E0,-3.356477201E0,7.644965980E0
4.184958125E0,-1.669621266E0,7.265006404E0,3.264113121E-1,7.461534532E0
4.194958125E0,-1.940068439E0,7.938533142E0,2.383990367E0,8.512789440E0
4.204959125E0,-1.859772427E0,8.458164087E0,3.369117712E0,9.292483379E0
4.214960125E0,-1.302635979E0,8.776872423E0,4.674204259E0,1.002888506E1
4.224961125E0,-4.596747655E-1,8.861895617E0,5.983269836E0,1.070252366E1
4.234962125E0,6.548492691E-1,8.170184623E0,6.196887335E0,1.027531785E1
4.244962125E0,2.403170842E0,7.318644083E0,4.564238305E0,8.953773093E0
4.254963125E0,2.964246267E0,5.496039482E0,4.720388491E0,7.827852415E0
4.264963667E0,3.162664514E0,3.409460576E0,5.528480419E0,7.224331387E0
4.274964667E0,4.923308802E0,1.834585546E0,2.033440725E0,5.633786903E0
4.284965667E0,7.030591528E0,-5.212459463E-1,-4.276013843E0,8.245314364E0
4.294966667E0,8.022436008E0,-6.497352943E0,-1.626123654E1,1.926143527E1
4.304966667E0,9.453384165E0,-1.585714014E1,-2.565421429E1,3.160623477E1
4.314967667E0,9.312345815E0,-1.627323853E1,-1.304612396E1,2.284161613E1
4.324968667E0,5.258082363E0,-8.532983889E0,-3.048860156E0,1.047639215E1
4.334969667E0,9.953668427E-1,-1.645359707E0,-1.254970646E0,2.296282874E0
4.344970667E0,-2.958088857E-1,2.631782649E0,-2.770418670E0,3.832623437E0
4.354970667E0,-2.611653024E-1,3.550617625E0,-4.520592349E0,5.754202639E0
4.364971667E0,1.496638700E0,3.026008360E0,-2.122386085E0,3.987627952E0
4.374972667E0,2.971312920E0,2.074024349E0,2.763822134E0,4.557300764E0
4.384973667E0,3.385809758E0,-5.588336027E-1,4.790026783E0,5.892398434E0
4.394974667E0,3.854245407E0,-3.856442791E0,5.624037956E0,7.833081232E0
4.404974667E0,4.346574533E0,-6.136422447E0,6.079070617E0,9.669720274E0
4.414975667E0,4.681456853E0,-7.585541410E0,5.827842658E0,1.064989328E1
4.424976667E0,3.641220231E0,-8.096069410E0,6.455271116E0,1.097612636E1
4.434977667E0,2.029972596E0,-6.927800986E0,4.459821067E0,8.485588912E0
4.444978667E0,3.425515276E-1,-6.228582752E0,3.711805480E0,7.258793602E0
4.454979667E0,-7.313966310E-1,-5.766950923E0,3.669704357E0,6.874546825E0
4.464979667E0,-1.663872576E0,-5.239632059E0,3.847096016E0,6.709870626E0
4.474980667E0,-2.275228209E0,-4.793352095E0,4.233570074E0,6.787930707E0
4.484981667E0,-2.419668469E0,-4.156032486E0,4.050858618E0,6.287834052E0
4.494982667E0,-2.451554505E0,-2.320989103E0,3.019726696E0,4.529443589E0
4.504983667E0,-1.965034003E0,6.645284575E-1,2.393922594E0,3.167620888E0
4.514983667E0,-9.885139060E-1,3.150681522E0,2.633359058E0,4.223568838E0
4.524984667E0,-8.939001095E-1,4.276333686E0,2.935197008E0,5.263218471E0
4.534985667E0,-1.108071340E0,5.231496243E0,2.818637441E0,6.044922833E0
4.544986667E0,-2.037314944E0,5.737190934E0,2.488936340E0,6.577295501E0
4.554987667E0,-3.221409443E0,5.763229170E0,1.829993727E0,6.851362369E0
4.564987667E0,-4.039799779E0,6.199565944E0,9.598344827E-1,7.461627328E0
4.574988667E0,-4.893838835E0,6.324338509E0,5.637413900E-2,7.996880277E0
4.584989667E0,-5.942769681E0,5.780994181E0,-2.511659789E-1,8.294545771E0
4.594990667E0,-6.654650061E0,5.366040675E0,-6.337438904E-2,8.548846488E0
4.604991667E0,-7.091869764E0,5.096665882E0,-3.406660929E-3,8.733305872E0
4.614991667E0,-7.277869109E0,4.929734892E0,-4.370005057E-1,8.801172326E0
4.624992667E0,-7.218542089E0,4.641368342E0,-8.055107472E-1,8.619657624E0
4.634993667E0,-6.307240081E0,4.528623499E0,-9.577371595E-1,7.823488270E0
4.644994667E0,-4.649942114E0,4.517184591E0,-6.747418622E-1,6.517836672E0
4.654995667E0,-3.203043339E0,4.404264917E0,-3.207133466E-1,5.455262884E0
4.664996667E0,-2.292302371E0,3.710274678E0,-8.947454707E-1,4.452118351E0
4.674996667E0,-1.849096581E0,2.436472782E0,-1.831070638E0,3.564881129E0
4.684997667E0,-1.196989656E0,6.313753295E-1,-2.833877040E0,3.140426423E0
4.694998667E0,4.746477306E-3,-1.427994143E0,-3.953328230E0,4.203331286E0
4.704999667E0,9.901917645E-1,-3.520609129E0,-5.302695449E0,6.441564049E0
4.715000667E0,1.960278755E0,-4.823919584E0,-7.045651617E0,8.760941711E0
4.725000667E0,3.368101466E0,-5.171793247E0,-8.372394204E0,1.040137191E1
4.735001667E0,5.745413289E0,-5.076285412E0,-8.971711004E0,1.180127306E1
4.745002667E0,8.451926862E0,-4.253763433E0,-8.508810330E0,1.272514928E1
4.755003667E0,1.051421877E1,-2.855243350E0,-7.149063134E0,1.303112868E1
4.765004667E0,1.152297574E1,-1.791893270E0,-5.610362488E0,1.294086622E1
4.775004667E0,1.080526393E1,-1.772807958E0,-4.824093246E0,1.196530202E1
4.785005667E0,8.358538642E0,-3.136236561E0,-4.668200630E0,1.007438559E1
4.795006667E0,5.866272898E0,-4.568574015E0,-4.768994349E0,8.833364780E0
4.805007667E0,4.794540834E0,-3.885050878E0,-6.235239222E0,8.772653549E0
4.815008667E0,5.015052785E0,-2.149994298E0,-5.277144871E0,7.590881892E0
4.825009667E0,4.224596937E0,-2.312891294E0,-2.623321143E0,5.484386860E0
4.835009667E0,2.987591568E0,-4.308137861E0,-8.615065348E-1,5.312998091E0
4.845010667E0,1.183304540E0,-6.032578236E0,3.444536269E-1,6.157179395E0
4.855011667E0,-2.888717490E-1,-6.954751972E0,1.164639643E0,7.057507164E0
4.865012667E0,-1.407922406E0,-7.546180878E0,1.233605797E0,7.774887434E0
4.875013667E0,-2.096345510E0,-7.934085749E0,2.006481407E0,8.448097349E0
4.885013667E0,-2.344507774E0,-8.242252141E0,4.290226085E0,9.583187200E0
4.895014667E0,-2.085852097E0,-8.858017159E0,6.774683458E0,1.134511273E1
4.905015667E0,-2.068233851E0,-8.625842936E0,9.180977590E0,1.276609209E1
4.915016667E0,-1.369396856E0,-5.676104488E0,9.915615917E0,1.150707821E1
4.925017667E0,-2.734634587E0,-4.319694298E0,8.603413017E0,1.000783197E1
4.935017667E0,-3.606490109E0,-3.308923550E0,7.899119985E0,9.292569209E0
4.945018667E0,-3.749207779E0,-1.742975464E0,6.259630882E0,7.501833191E0
4.955019667E0,-4.853997661E0,-1.382300491E0,4.695612962E0,6.893535307E0
4.965020667E0,-5.555529639E0,-1.697815078E-1,4.075461363E0,6.892178222E0
4.975021667E0,-5.768357179E0,1.589027631E0,3.516141856E0,6.939899632E0
4.985021667E0,-6.237839479E0,2.575007939E0,3.041177791E0,7.402031451E0
4.995022667E0,-6.070555317E0,4.019660799E0,2.194730760E0,7.604351248E0
5.005023667E0,-5.696533490E0,5.322059673E0,1.512399870E0,7.941169078E0
5.015024667E0,-5.280718689E0,6.355357988E0,1.040293339E0,8.328191596E0
5.025025667E0,-4.932265567E0,6.990540440E0,1.129304919E0,8.629613483E0
5.035025667E0,-4.412066857E0,7.557460157E0,-8.859677768E-1,8.795821558E0
5.045026667E0,-3.625196814E0,7.938791589E0,-2.340902381E0,9.035833541E0
5.055027667E0,-1.469097145E0,7.948320796E0,-7.028840872E0,1.071161304E1
5.065028667E0,1.522436908E0,7.115463279E0,-9.321626515E0,1.182541131E1
5.075029667E0,6.939686036E-1,6.009179433E0,-3.823052266E0,7.155945675E0
5.085030667E0,-3.362198702E-1,6.735550967E0,1.416296495E0,6.891051182E0
5.095030667E0,-8.536934853E-2,8.043819861E0,3.967566493E0,8.969498857E0
5.105031667E0,9.091455549E-1,9.048609492E0,4.958685626E0,1.035820653E1
5.115032667E0,1.839175610E0,9.245280005E0,5.086980554E0,1.071144904E1
5.125033667E0,2.440461168E0,8.132182399E0,3.670186168E0,9.249784202E0
5.135034667E0,2.684309649E0,6.255025030E0,1.696823683E0,7.014988741E0
5.145034667E0,2.622526506E0,4.083314758E0,2.356021819E0,5.394621720E0
5.155035667E0,3.700010476E0,2.081334538E0,5.166868722E-1,4.276563609E0
5.165036667E0,5.649838210E0,-1.870933592E-1,-5.911278917E0,8.179174418E0
5.175037667E0,5.389684476E0,-4.629886749E0,-8.528839967E0,1.110070544E1
5.185038667E0,3.925481451E0,-1.192080275E1,-1.737708058E1,2.143543497E1
5.195039667E0,3.555158280E0,-1.712812251E1,-1.781013356E1,2.496422617E1
5.205039667E0,3.105174690E0,-1.243565243E1,-5.674446802E0,1.401737877E1
5.215040667E0,-1.291620702E-2,-5.210245122E0,-2.724195845E0,5.879461206E0
5.225041667E0,-1.326255806E0,-9.872620171E-1,-2.857208892E0,3.301103362E0
5.235042667E0,-8.318924341E-1,1.187329178E0,-2.237153187E0,2.665830074E0
5.245043667E0,-1.805474013E-1,1.850143232E0,-2.554301486E0,3.159127004E0
5.255043667E0,1.831466056E0,2.054974705E0,-4.669871764E0,5.420783269E0
5.265045000E0,4.181507635E0,2.689702243E0,1.883133808E-1,4.975436281E0
5.275046000E0,3.779674696E0,1.245551659E0,6.339472858E0,7.485068861E0
5.285047000E0,2.677252936E0,-2.398555927E0,7.774449745E0,8.565210019E0
5.295048000E0,8.816238803E-1,-5.137643754E0,9.593227344E0,1.091799683E1
5.305048000E0,9.107734197E-1,-5.331927434E0,8.483106555E0,1.006091721E1
5.315049000E0,2.189972881E0,-6.349083926E0,9.697393152E0,1.179602822E1
5.325050000E0,3.174339357E0,-6.688718863E0,7.651276978E0,1.064694462E1
5.335051000E0,2.586916378E0,-6.476773667E0,3.559190812E0,7.829979101E0
5.345052000E0,2.010116036E0,-5.822126420E0,1.742016521E0,6.400964309E0
5.355052000E0,2.281101152E0,-4.313950578E0,3.698738122E0,6.123255323E0
5.365053000E0,1.751335228E0,-3.092599960E0,4.763828334E0,5.943518317E0
5.375054000E0,1.697444365E0,-1.628314489E0,4.360179834E0,4.954179411E0
5.385055000E0,1.629469314E0,-7.258926469E-1,4.639739892E0,4.970842650E0
5.395056000E0,9.445679873E-1,4.206674051E-1,4.919810997E0,5.027296490E0
5.405056000E0,5.710156918E-2,1.965600598E0,3.902531129E0,4.369965162E0
5.415057000E0,-9.983629560E-1,2.945216796E0,2.782693437E0,4.173058032E0
5.425058000E0,-2.161918525E0,3.406654497E0,2.002694750E0,4.504439236E0
5.435059000E0,-2.942234132E0,3.825328587E0,1.025566542E0,4.933727517E0
5.445060000E0,-3.300504144E0,4.275431460E0,-1.725794005E-1,5.403926853E0
5.455061000E0,-3.727219909E0,4.981419600E0,-1.535567708E0,6.408172725E0
5.465061000E0,-4.431283731E0,5.028449340E0,-2.433001290E0,7.130292669E0
5.475062000E0,-5.304318636E0,4.688612675E0,-1.930808496E0,7.338045139E0
5.485063000E0,-5.410254981E0,4.686836876E0,-3.102000529E-1,7.164741651E0
5.495064000E0,-5.228384939E0,4.757964746E0,1.186870172E0,7.168186549E0
5.505065000E0,-5.040037937E0,4.970092959E0,1.701181321E0,7.279960461E0
5.515065000E0,-5.692003067E0,4.514798927E0,1.354399332E0,7.390311619E0
5.525066000E0,-6.289160491E0,3.742693981E0,2.971636490E-1,7.324589009E0
5.535067000E0,-6.207406476E0,3.499150432E0,-4.224947331E-1,7.138238627E0
5.545068000E0,-5.633535588E0,3.337145721E0,-1.483763862E0,6.713778369E0
5.555069000E0,-5.098342863E0,2.653002194E0,-2.493018866E0,6.264715768E0
5.565069000E0,-4.361472654E0,1.509640569E0,-3.497628987E0,5.790929708E0
5.575070000E0,-3.428427774E0,2.516442811E-1,-4.551785490E0,5.704050578E0
5.585071000E0,-2.592911528E0,-1.024696476E0,-5.313713942E0,6.000729033E0
5.595072000E0,-1.417451905E0,-2.217690437E0,-5.749299933E0,6.323113988E0
5.605073000E0,6.512087926E-1,-2.987339553E0,-5.638182955E0,6.413842650E0
5.615073000E0,3.101261733E0,-3.223009826E0,-5.350571866E0,6.973825060E0
5.625074000E0,5.168553890E0,-3.708039288E0,-5.285746125E0,8.270587450E0
5.635075000E0,7.706672330E0,-4.319579692E0,-4.660298703E0,9.988490933E0
5.645076000E0,1.030867394E1,-4.157524695E0,-3.793035584E0,1.174482392E1
5.655077000E0,1.166678333E1,-3.491986424E0,-3.113259927E0,1.256981264E1
5.665077000E0,1.136698021E1,-2.783186358E0,-3.631162435E0,1.225315086E1
5.675078000E0,1.028460680E1,-9.120311558E-1,-4.295230717E0,1.118275211E1
5.685079000E0,8.180261714E0,3.636605608E-1,-3.545555105E0,8.922997911E0
5.695080000E0,6.797734351E0,-1.011100531E-2,-6.051745993E0,9.101259479E0
5.705081000E0,7.331499186E0,3.063058072E-1,-7.869462322E0,1.075979279E1
5.715082000E0,8.348450441E0,-1.117959566E0,-5.839029551E0,1.024893772E1
5.725082000E0,7.882820871E0,-3.141449938E0,-1.385955147E0,8.598165169E0
5.735083000E0,5.078078168E0,-4.583228892E0,1.422146927E0,6.986799470E0
5.745084000E0,1.685908978E0,-5.890476862E0,2.083472280E0,6.471542589E0
5.755085000E0,-6.859193265E-1,-6.694243897E0,2.497811244E0,7.177913881E0
5.765086000E0,-2.492806612E0,-7.303918455E0,2.931238443E0,8.255511396E0
5.775086000E0,-3.829513439E0,-7.923328627E0,4.061872433E0,9.692425773E0
5.785087000E0,-3.827979714E0,-8.214526398E0,5.356983338E0,1.052754212E1
5.795088000E0,-3.374255660E0,-7.554145955E0,6.434428716E0,1.048105888E1
5.805089000E0,-3.443753911E0,-6.632427133E0,6.630933754E0,9.990886503E0
5.815090000E0,-4.031779153E0,-5.199999631E0,6.206196687E0,9.045005065E0
5.825090000E0,-5.014868597E0,-4.336324364E0,6.071283295E0,8.989610497E0
5.835091000E0,-5.031060707E0,-3.532967804E0,6.178062809E0,8.715612050E0
5.845092000E0,-4.805473373E0,-2.167919523E0,5.648039022E0,7.726111194E0
5.855093000E0,-4.960424003E0,-1.190875515E0,4.544561255E0,6.832058825E0
5.865094000E0,-5.634941844E0,-3.350051111E-1,3.283049621E0,6.530177090E0
5.875094000E0,-6.011097904E0,1.333144119E0,1.820120704E0,6.420545976E0
5.885095000E0,-6.075366991E0,3.034134235E0,1.036652498E-1,6.791671452E0
5.895096000E0,-5.467688087E0,4.724871844E0,-1.084962559E0,7.307336773E0
5.905097000E0,-5.530797086E0,5.210568473E0,-4.349837279E-1,7.611107085E0
5.915098000E0,-5.192881815E0,5.701396034E0,-1.699594386E0,7.896870226E0
5.925098000E0,-4.164895403E0,6.431951836E0,-1.766806376E0,7.863711777E0
5.935099000E0,-3.640695151E0,7.003657499E0,-1.103849065E0,7.970217206E0
5.945100000E0,-2.890195374E0,7.704724622E0,-1.854235114E0,8.435294818E0
5.955101000E0,-2.028995818E0,8.114274716E0,-2.146794702E0,8.635218914E0
5.965102000E0,-9.058158579E-1,8.212858188E0,-2.204824955E0,8.551771457E0
5.975103000E0,-2.598789150E-1,8.306713600E0,-5.083079584E-1,8.326307997E0
5.985103000E0,1.004002011E-1,8.467308547E0,2.274443951E0,8.768037952E0
5.995104000E0,1.745798500E0,8.564126744E0,3.316463535E0,9.348315874E0
6.005105000E0,3.860134430E0,8.070498952E0,3.231941740E0,9.512047023E0
6.015106000E0,3.821212147E0,6.075928323E0,4.734516242E0,8.598500526E0
6.025107000E0,3.849547169E0,4.202604389E0,4.491440178E0,7.256302911E0
6.035107000E0,4.080525928E0,2.671940156E0,2.203751406E0,5.352240308E0
6.045108000E0,3.655625139E0,1.511540914E0,1.286713718E0,4.159805679E0
6.055109000E0,3.046946070E0,4.179882109E-1,-6.149703813E-1,3.136364626E0
6.065110000E0,3.015880982E0,-1.173905141E0,-5.251041731E0,6.168227512E0
6.075111000E0,3.093258941E0,-3.775721979E0,-8.716774156E0,9.990319265E0
6.085111000E0,2.484056253E0,-9.177330682E0,-1.360852787E1,1.660078205E1
6.095112000E0,3.706723372E0,-1.441074949E1,-1.715249838E1,2.270721691E1
6.105113000E0,5.306006727E0,-1.151621870E1,-6.704618027E0,1.434325289E1
6.115114000E0,2.970583480E0,-4.550175167E0,-1.901069557E0,5.756954552E0
6.125115000E0,1.538341042E0,-1.614229131E-1,-3.470171339E0,3.799294624E0
6.135115000E0,1.800239001E0,1.982131847E0,-3.889282216E0,4.721887681E0
6.145116000E0,1.833364062E0,2.514333721E0,-5.427818263E0,6.256541292E0
6.155117000E0,3.472041571E0,1.870806123E0,-4.852619765E0,6.253231709E0
6.165118000E0,4.552180762E0,3.249192488E-1,3.787767535E0,5.930860402E0
6.175119000E0,3.087591820E0,-3.160141148E0,7.682137413E0,8.861994728E0
6.185119000E0,7.866563272E-1,-6.321217850E0,8.995692190E0,1.102266308E1
6.195120000E0,2.132526326E-1,-5.861792176E0,9.511447016E0,1.117469053E1
6.205121000E0,3.541740382E-1,-5.192545016E0,8.022123767E0,9.562553672E0
6.215122000E0,3.814805353E-1,-5.411808001E0,6.300627465E0,8.314511393E0
6.225123000E0,3.901735908E-1,-6.035906471E0,2.698249118E0,6.623062031E0
6.235123000E0,2.742806071E-1,-6.172039592E0,1.161111945E0,6.286293305E0
6.245124000E0,1.129615991E0,-4.801002007E0,3.205951159E0,5.882497377E0
6.255125000E0,1.604268399E0,-4.128561682E0,3.883570948E0,5.890740358E0
6.265125167E0,1.232595983E0,-4.160506191E0,2.408462280E0,4.962841442E0
6.275126167E0,1.045451753E0,-3.534652387E0,2.210150453E0,4.297848519E0
6.285126167E0,8.968699104E-1,-1.504030166E0,2.511099626E0,3.061389179E0
6.295127167E0,7.843086702E-1,1.125914703E0,3.409442450E0,3.675203644E0
6.305128167E0,3.213998097E-1,3.062611930E0,3.754189607E0,4.855597726E0
6.315129167E0,-4.188904363E-1,4.336602691E0,3.134097065E0,5.366950392E0
6.325130167E0,-1.272681570E0,4.948192213E0,1.761835073E0,5.404478456E0
6.335130167E0,-2.312821128E0,5.295844851E0,5.213728309E-1,5.802322284E0
6.345131167E0,-3.330499776E0,5.898713250E0,-4.673433888E-1,6.790099897E0
6.355132167E0,-4.687788802E0,5.784366270E0,-6.864888453E-1,7.476999662E0
6.365133167E0,-5.813080192E0,5.326110624E0,-4.996293747E-1,7.899935773E0
6.375134167E0,-6.110276037E0,4.872236881E0,-4.042297125E-1,7.825443575E0
6.385134167E0,-5.830566291E0,4.601624233E0,-4.968981403E-1,7.444283485E0
6.395135167E0,-5.588342459E0,4.742340986E0,-4.747155583E-1,7.344707232E0
6.405136167E0,-5.181406070E0,5.019549294E0,2.945946017E-2,7.214132784E0
6.415137167E0,-4.863820984E0,5.244100501E0,4.222970241E-1,7.164892142E0
6.425138167E0,-5.378312811E0,4.939546520E0,6.583785754E-2,7.302718887E0
6.435138167E0,-5.642588832E0,4.431600650E0,-4.987312059E-1,7.192122487E0
6.445139167E0,-5.244686977E0,4.091497352E0,-5.105244917E-1,6.671411194E0
6.455140167E0,-4.751859083E0,3.194597620E0,-3.237643506E-1,5.735018924E0
6.465141167E0,-3.802640805E0,1.914867232E0,-2.859897295E-1,4.267151712E0
6.475142167E0,-2.719930594E0,4.774239886E-1,-6.986938117E-1,2.848531050E0
6.485143167E0,-1.516092972E0,-9.536452049E-1,-1.631855416E0,2.423000036E0
6.495143167E0,-1.829266334E-1,-1.904246934E0,-2.883201227E0,3.460125410E0
6.505144167E0,1.230534255E0,-2.168755090E0,-3.899630910E0,4.628696839E0
6.515145167E0,2.636419491E0,-2.393857105E0,-4.510474327E0,5.746793734E0
6.525146167E0,4.115597820E0,-2.848723120E0,-4.748921442E0,6.899682869E0
6.535147167E0,6.419993695E0,-3.532798820E0,-4.773166337E0,8.745290357E0
6.545147167E0,9.298465109E0,-4.136181189E0,-4.849228672E0,1.127317466E1
6.555148167E0,1.142325265E1,-4.486686684E0,-4.474663054E0,1.306306503E1
6.565149167E0,1.183311440E1,-4.592897263E0,-4.614231999E0,1.350586682E1
6.575150167E0,1.076749560E1,-3.801361434E0,-5.771033449E0,1.279430097E1
6.585151167E0,8.282625995E0,-2.409751591E0,-7.620498405E0,1.151003006E1
6.595151167E0,6.173546419E0,-9.732474107E-1,-8.710687789E0,1.072081936E1
6.605152167E0,2.960442946E0,-1.354444356E0,-9.528951241E0,1.006973951E1
6.615153167E0,2.003698717E0,-6.616340858E-1,-9.176729588E0,9.416205931E0
6.625154167E0,2.147181203E0,-7.718406522E-1,-6.613223707E0,6.995773932E0
6.635155167E0,1.298137423E0,-2.454327840E0,-3.597132810E0,4.544034591E0
6.645155167E0,3.014040864E-1,-4.280696878E0,-1.302084879E0,4.484488289E0
6.655156167E0,1.194931144E-1,-5.400198355E0,1.187352421E-1,5.402825088E0
6.665157167E0,-1.156713742E-1,-6.223325520E0,1.406341903E0,6.381297513E0
6.675158167E0,-6.391667444E-1,-7.288274814E0,2.954974045E0,7.890459777E0
6.685159167E0,-9.825900918E-1,-8.244448940E0,4.909186022E0,9.645544516E0
6.695159167E0,-1.321936761E0,-8.638700963E0,7.938971098E0,1.180685958E1
6.705160167E0,-1.212658147E0,-8.232484367E0,9.966333497E0,1.298353349E1
6.715161167E0,-1.579338795E0,-7.467863272E0,9.645541797E0,1.230039713E1
6.725162167E0,-2.200211356E0,-6.000933105E0,7.941778346E0,1.019431074E1
6.735163167E0,-3.530123134E0,-4.071212776E0,7.140107539E0,8.945260112E0
6.745163167E0,-4.324674371E0,-2.711121179E0,6.524484608E0,8.283832801E0
6.755164167E0,-4.467776204E0,-1.188862903E0,5.147253068E0,6.918716164E0
6.765165167E0,-4.999206830E0,3.668011004E-1,4.029100544E0,6.431194537E0
6.775166167E0,-5.913831811E0,8.124945885E-1,4.340060150E0,7.380357461E0
6.785167167E0,-5.849548692E0,2.305295761E0,3.858964110E0,7.377208987E0
6.795167167E0,-5.946197319E0,3.476434000E0,3.087667834E0,7.548281166E0
6.805168167E0,-5.871036624E0,4.460578281E0,2.392161997E0,7.751662316E0
6.815169167E0,-5.896869623E0,5.138023238E0,1.495124856E0,7.962898498E0
6.825170167E0,-5.996681594E0,5.474392505E0,-6.252661586E-1,8.143716670E0
6.835171167E0,-5.988560396E0,5.175706204E0,-2.229912872E0,8.223338845E0
6.845171167E0,-4.419020950E0,5.705766243E0,-3.442234805E0,7.995779826E0
6.855172167E0,-2.709981557E0,6.583544410E0,-4.568431928E0,8.459174151E0
6.865173167E0,-1.114889778E0,7.339832053E0,-4.809361771E0,8.845681118E0
6.875174167E0,-1.389628807E-1,7.682966548E0,-3.208987033E0,8.327357531E0
6.885175167E0,-2.906978345E-1,7.683261248E0,6.710022023E-1,7.717982417E0
6.895175167E0,-6.458755472E-1,7.987800027E0,4.134490466E0,9.017544893E0
6.905176167E0,-6.192859188E-1,8.516925681E0,5.627976640E0,1.022720192E1
6.915177167E0,-9.757073343E-2,8.441579629E0,4.923540351E0,9.772974792E0
6.925178167E0,5.770161045E-1,7.258510732E0,3.060323330E0,7.898386197E0
6.935179167E0,1.135284866E0,5.858699584E0,2.876372264E0,6.624707536E0
6.945179167E0,1.484350777E0,3.868955247E0,4.438836287E0,6.072510150E0
6.955180167E0,2.665305905E0,1.562018173E0,1.953841263E0,3.655304642E0
6.965181167E0,5.051141800E0,-5.839012009E-1,-7.420929426E0,8.995841686E0
6.975182167E0,7.306968362E0,-6.730786071E0,-1.431153744E1,1.742169256E1
6.985183167E0,7.383682662E0,-1.632110501E1,-1.946110075E1,2.645055161E1
6.995183167E0,7.345253592E0,-1.827905336E1,-1.525583938E1,2.491620310E1
7.005184167E0,5.710082658E0,-9.297095107E0,-4.144601472E0,1.167127854E1
7.015185167E0,2.193834382E0,1.497647345E-1,-2.238824614E0,3.138100448E0
7.025186167E0,3.905595070E-1,4.410291057E0,-2.388726465E0,5.030826777E0
7.035187167E0,1.002266557E0,4.968310727E0,-2.501716307E0,5.652188445E0
7.045187167E0,3.100984867E0,4.075908090E0,-3.084088753E0,5.978355739E0
7.055188167E0,4.324290794E0,1.127585837E0,-3.041575402E-2,4.468989350E0
7.065189167E0,3.625935025E0,-3.234801321E0,5.168902384E0,7.094286169E0
7.075190167E0,1.339649146E0,-5.778552384E0,7.155192186E0,9.294251056E0
7.085191167E0,-3.518088394E-1,-5.629012182E0,8.157704326E0,9.917544428E0
7.095191167E0,-5.809658986E-1,-4.373566450E0,7.134110634E0,8.388154708E0
7.105192167E0,-4.586474097E-1,-4.421106652E0,3.724370269E0,5.798920190E0
7.115193167E0,-3.405868632E-1,-6.025216007E0,1.932386367E-1,6.037927501E0
7.125194167E0,1.062680574E0,-6.036943182E0,2.417009594E0,6.589074925E0
7.135195167E0,2.408186876E0,-4.901384667E0,6.838571305E0,8.751513765E0
7.145195167E0,2.473565179E0,-4.683041448E0,7.184735827E0,8.925795808E0
7.155196167E0,2.224422922E0,-4.644943914E0,4.444525920E0,6.802747383E0
7.165197167E0,2.311861600E0,-4.313603838E0,2.559231566E0,5.522820687E0
7.175198167E0,2.618989525E0,-3.389109342E0,2.451603037E0,4.935131783E0
7.185199167E0,2.570079321E0,-1.399059196E0,2.745909773E0,4.012816322E0
7.195199167E0,1.617020591E0,1.188347763E0,2.884325062E0,3.513724102E0
7.205200167E0,1.705971944E-1,3.458474277E0,2.835912455E0,4.475773361E0
7.215201167E0,-1.394334646E0,4.667966741E0,2.596511074E0,5.520502908E0
7.225202167E0,-2.820434291E0,5.162590899E0,1.952236787E0,6.198259664E0
7.235202167E0,-4.159310435E0,5.512255565E0,1.190231152E0,7.007244459E0
7.245203167E0,-5.135328256E0,5.851742567E0,1.500360453E-1,7.786976190E0
7.255204167E0,-5.668538191E0,6.000758858E0,-7.314925253E-1,8.287129383E0
7.265205167E0,-6.334050150E0,5.690546526E0,-7.780270064E-1,8.550312105E0
7.275206500E0,-6.638842113E0,5.553354474E0,-4.935014927E-1,8.669343357E0
7.285206500E0,-6.886057713E0,5.170610356E0,-5.025097132E-3,8.611215218E0
7.295207500E0,-6.554827564E0,5.399890206E0,3.953103697E-1,8.501814449E0
7.305208500E0,-6.164752792E0,5.451726943E0,9.913398653E-1,8.289044478E0
7.315209500E0,-6.291117554E0,4.878533748E0,1.121448600E0,8.039645425E0
7.325210500E0,-6.379905769E0,4.106092002E0,6.207076693E-1,7.612389057E0
7.335210500E0,-5.643474686E0,3.479557582E0,1.436251581E-1,6.631497243E0
7.345211500E0,-4.653429978E0,2.410539211E0,-7.020097677E-1,5.287525656E0
7.355212500E0,-4.008880872E0,6.709241420E-1,-1.933820397E0,4.501213878E0
7.365213500E0,-3.485131148E0,-1.262388716E0,-2.953613398E0,4.739577671E0
7.375214500E0,-2.767866653E0,-3.014078286E0,-3.802688168E0,5.586250175E0
7.385214500E0,-1.649328797E0,-4.008715396E0,-4.860575194E0,6.512701116E0
7.395215500E0,2.845611817E-1,-4.201847175E0,-5.999708113E0,7.330279134E0
7.405216500E0,3.002833505E0,-3.108558181E0,-6.161756678E0,7.526445933E0
7.415217500E0,5.921539026E0,-1.707423808E0,-5.464308981E0,8.236418708E0
7.425218500E0,9.063488901E0,-1.124753446E0,-4.651268848E0,1.024920501E1
7.435218500E0,1.204246460E1,-8.131032836E-1,-4.360528913E0,1.283340574E1
7.445219500E0,1.284356355E1,-9.249646121E-1,-4.001539108E0,1.348425005E1
7.455220500E0,1.151286473E1,-1.363076600E0,-4.917465094E0,1.259307330E1
7.465221500E0,9.252397821E0,-2.037214957E0,-6.793420275E0,1.165794447E1
7.475222500E0,7.967041826E0,-1.289504009E0,-8.972936581E0,1.206856110E1
7.485222500E0,7.446354289E0,-1.177494746E-1,-9.457343899E0,1.203758326E1
7.495223500E0,6.915942248E0,4.120521176E-1,-6.995622840E0,9.845749491E0
7.505224500E0,6.342744375E0,5.235982811E-1,-3.056986324E0,7.060433892E0
7.515225500E0,5.242239917E0,-2.818878347E-1,-9.107389212E-2,5.250603256E0
7.525226500E0,4.075791730E0,-2.018483402E0,6.317423885E-1,4.591889798E0
7.535226500E0,2.204211436E0,-4.195336885E0,1.594926887E0,5.000319131E0
7.545227500E0,-9.482605040E-2,-6.974702087E0,3.332126471E0,7.730364028E0
7.555228500E0,-8.782383424E-1,-8.216456564E0,4.956364866E0,9.635715528E0
7.565229500E0,-1.242195357E0,-8.865581701E0,6.229904222E0,1.090657118E1
7.575229500E0,-1.700480239E0,-9.837748547E0,7.598675426E0,1.254642570E1
7.585230500E0,-1.166294990E0,-9.447277917E0,8.014564487E0,1.244365493E1
7.595231500E0,-1.476188064E0,-8.770547490E0,7.168751879E0,1.142333743E1
7.605232500E0,-2.772036887E0,-8.351984498E0,5.861529052E0,1.057342690E1
7.615233500E0,-4.441288317E0,-7.315024071E0,4.242525669E0,9.551630391E0
7.625233500E0,-4.771716228E0,-6.221932129E0,2.817679667E0,8.331928581E0
7.635234500E0,-4.395673018E0,-4.273363300E0,1.693253081E0,6.360084997E0
7.645235500E0,-4.356411304E0,-1.964890162E0,1.434509695E0,4.989682441E0
7.655236500E0,-4.744184028E0,-5.841970700E-1,1.129231902E0,4.911591697E0
7.665237500E0,-4.852416574E0,2.771533442E-1,7.557204634E-1,4.918726868E0
7.675237500E0,-6.106924998E0,2.497410125E-1,-2.992991472E0,6.805505232E0
7.685238500E0,-4.863980028E0,1.570562124E0,-4.377102846E0,6.729338483E0
7.695239500E0,-4.058469354E0,3.018580642E0,-3.365258549E0,6.075192811E0
7.705240500E0,-3.713928604E0,4.339416372E0,-1.987310725E0,6.047578361E0
7.715241500E0,-2.961152798E0,6.134150219E0,-8.640874958E-1,6.866066705E0
7.725241500E0,-2.775452245E0,6.928225493E0,7.939919516E-2,7.463896294E0
7.735242500E0,-2.232449979E0,7.386077682E0,2.494109371E-1,7.720115430E0
7.745243500E0,-1.555482740E0,8.134215476E0,3.616131583E-1,8.289496489E0
7.755244500E0,-1.726611446E0,8.364366562E0,1.514721507E0,8.673995406E0
7.765245500E0,-2.138749518E0,8.508838397E0,3.739317506E0,9.537141908E0
7.775245500E0,-2.691188021E0,8.464621167E0,5.185644132E0,1.028509648E1
7.785246500E0,-2.751165251E0,8.115564027E0,5.726862413E0,1.030670863E1
7.795247500E0,-1.415307439E0,7.690017121E0,5.706072053E0,9.679809747E0
7.805248500E0,5.703912091E-1,7.236030527E0,5.274020703E0,8.972222595E0
7.815248500E0,8.012041998E-1,6.528685248E0,4.690420342E0,8.078719095E0
7.825249500E0,5.685277015E-1,5.627362683E0,3.183667420E0,6.490467838E0
7.835250500E0,8.253771740E-1,4.604125671E0,1.383876901E0,4.877943824E0
7.845251500E0,9.733281022E-1,3.154795039E0,1.010451490E0,3.452696272E0
7.855252500E0,2.797034903E0,2.532061309E0,-3.137114228E0,4.906752939E0
7.865252500E0,6.098806724E0,1.342234200E0,-1.322327939E1,1.462368469E1
7.875253500E0,7.089772952E0,-5.097099745E0,-1.685189186E1,1.897976727E1
7.885254500E0,6.802982812E0,-1.306789315E1,-1.541484973E1,2.132294536E1
7.895255500E0,7.004020611E0,-1.216655070E1,-7.090478126E0,1.572755991E1
7.905256500E0,4.393180935E0,-5.869692934E0,-2.205753931E0,7.656283973E0
7.915256500E0,2.423691938E0,-5.358651549E-1,-3.673403014E0,4.433432505E0
7.925257500E0,1.124357589E0,2.629360732E0,-3.179783992E0,4.276534120E0
7.935258500E0,1.035158315E0,4.040340062E0,-2.660260928E0,4.947008061E0
7.945259500E0,1.850291167E0,3.026122965E0,-3.157772441E0,4.748949820E0
7.955260500E0,1.646020442E0,-6.025403702E-1,2.341540605E0,2.924935999E0
7.965260500E0,1.458884983E0,-4.943684009E0,5.503632091E0,7.540445821E0
7.975261500E0,4.750611287E-1,-8.117207680E0,8.153846333E0,1.151520532E1
7.985262500E0,-2.583410972E-1,-9.552168195E0,1.022728187E1,1.399671218E1
7.995263500E0,5.488547444E-2,-9.893117001E0,1.009207553E1,1.413247200E1
8.005264500E0,1.091738897E0,-8.946752749E0,7.713881947E0,1.186339973E1
8.015264500E0,4.286377448E-1,-9.933554006E0,2.024165726E0,1.014674689E1
8.025265500E0,6.353169376E-1,-7.909685318E0,1.474638698E0,8.071016586E0
8.035266500E0,2.065127810E0,-4.761235093E0,5.349753256E0,7.453453722E0
8.045267500E0,2.098017814E0,-5.153928249E0,4.884009665E0,7.403931763E0
8.055267500E0,2.310321443E0,-5.031158355E0,2.583922019E0,6.109565661E0
8.065268500E0,2.678761518E0,-3.113428327E0,2.258801480E0,4.687364221E0
8.075269500E0,2.517568985E0,-4.314993721E-1,2.886187985E0,3.854144054E0
8.085270500E0,1.470053165E0,1.835434561E0,3.326882104E0,4.074066871E0
8.095271500E0,3.260360670E-1,3.603555391E0,3.066422560E0,4.742874476E0
8.105271500E0,-8.596997452E-1,4.553015744E0,1.720737333E0,4.942668610E0
8.115272500E0,-2.096992212E0,4.978544524E0,2.823994660E-1,5.409531530E0
8.125273500E0,-2.777423927E0,5.280842065E0,-5.054706701E-1,5.988061221E0
8.135274500E0,-3.843169026E0,5.298257412E0,-1.372861916E0,6.687767162E0
8.145275500E0,-4.831617444E0,5.410442092E0,-1.055544120E0,7.330183090E0
8.155275500E0,-5.423155693E0,5.929107077E0,-2.056174115E-1,8.037860842E0
8.165276500E0,-6.338718567E0,5.598723021E0,1.040450045E0,8.521008674E0
8.175277500E0,-6.879404166E0,5.204483276E0,1.881946238E0,8.829188496E0
8.185278500E0,-7.108341955E0,4.809004506E0,1.900877184E0,8.790243669E0
8.195278500E0,-7.210119760E0,4.633938870E0,2.079045353E0,8.819390341E0
8.205279500E0,-7.163969441E0,4.498136702E0,3.062683851E0,8.996428419E0
8.215280500E0,-7.336673387E0,4.049052413E0,3.287685878E0,9.001693189E0
8.225281500E0,-7.629756301E0,3.293800896E0,2.494171352E0,8.676588978E0
8.235282500E0,-7.774274914E0,2.089285582E0,1.522023218E0,8.192741870E0
8.245282500E0,-7.260171341E0,5.962399954E-1,3.566210979E-1,7.293337278E0
8.255283500E0,-5.554033921E0,-7.988740844E-1,-1.414773442E0,5.786801922E0
8.265284500E0,-3.344605014E0,-1.705416459E0,-2.757686650E0,4.658289778E0
8.275286250E0,-1.133914279E0,-2.491088700E0,-3.797114602E0,4.680743937E0
8.285287250E0,5.913160551E-1,-3.353818472E0,-4.250656807E0,5.446635321E0
8.295287250E0,2.327000041E0,-3.327671478E0,-4.746879594E0,6.246694529E0
8.305288250E0,4.362643266E0,-2.332191199E0,-4.913044599E0,6.972071377E0
8.315289250E0,6.778308147E0,-1.338902457E0,-4.786611425E0,8.405341757E0
8.325290250E0,9.650386215E0,-9.602046114E-1,-4.708740546E0,1.078073210E1
8.335290250E0,1.205270541E1,-1.003204451E0,-4.787241755E0,1.300737523E1
8.345291250E0,1.312138347E1,-7.214160186E-1,-4.719216417E0,1.396288469E1
8.355292250E0,1.280237810E1,4.726509064E-1,-5.899637695E0,1.410425499E1
8.365293250E0,1.196751031E1,9.795694202E-1,-6.783530880E0,1.379119830E1
8.375294250E0,1.040795732E1,1.256334509E0,-7.224873455E0,1.273195776E1
8.385294250E0,8.047197797E0,1.234911481E0,-8.347171655E0,1.166008891E1
8.395295250E0,6.174616460E0,6.750657248E-1,-7.753917248E0,9.935030691E0
8.405296250E0,5.519467521E0,-1.050575083E0,-4.887924376E0,7.447149416E0
8.415297250E0,4.726129580E0,-3.053882037E0,-2.412072351E0,6.122139277E0
8.425298250E0,2.633813387E0,-4.504048237E0,-5.856606281E-1,5.250373496E0
8.435298250E0,2.041701525E-1,-5.357344111E0,7.477145288E-1,5.413122795E0
8.445299250E0,-1.483496498E0,-6.005950601E0,1.916267055E0,6.476440682E0
8.455300250E0,-1.753851870E0,-6.182901379E0,2.693651453E0,6.968502278E0
8.465301250E0,-1.463512470E0,-6.408958830E0,3.714789898E0,7.550912926E0
8.475302250E0,-6.249679506E-1,-6.924469242E0,4.661127838E0,8.370482181E0
8.485302250E0,-1.282563365E-1,-7.864362965E0,5.633694633E0,9.674873113E0
8.495303250E0,-6.125116271E-1,-7.504019530E0,5.615602178E0,9.392575122E0
8.505304250E0,-1.012461762E0,-6.839927859E0,4.649345114E0,8.332232710E0
8.515305250E0,-1.652678082E0,-6.648594099E0,4.283464950E0,8.079803235E0
8.525305250E0,-2.230231546E0,-6.311916100E0,3.998039550E0,7.797341716E0
8.535306250E0,-3.045412345E0,-5.343835874E0,3.568803635E0,7.111081323E0
8.545307250E0,-4.186913386E0,-4.066245566E0,3.039438245E0,6.580484902E0
8.555308250E0,-5.371463383E0,-2.359953779E0,2.713479946E0,6.464129804E0
8.565309250E0,-6.306909714E0,1.444221336E-1,2.765276921E0,6.888013091E0
8.575309250E0,-6.614347542E0,1.388406739E0,1.952254329E0,7.034810846E0
8.585310250E0,-7.184443467E0,1.809318557E0,1.143739940E0,7.496532706E0
8.595311250E0,-7.370709445E0,3.222236239E0,9.137057984E-1,8.095988043E0
8.605312250E0,-7.097083141E0,4.495492591E0,-1.035681056E0,8.464672350E0
8.615312250E0,-6.768577210E0,5.220470148E0,-1.708393861E0,8.716969405E0
8.625313250E0,-6.526498974E0,5.250108515E0,-1.201835536E0,8.461869588E0
8.635314250E0,-6.403503962E0,4.937668394E0,2.401745291E-1,8.089691957E0
8.645315250E0,-5.133171803E0,5.558831561E0,-2.766420051E-2,7.566427585E0
8.655316250E0,-4.889159308E0,5.486972204E0,1.069768277E0,7.426651121E0
8.665316250E0,-4.402314870E0,6.133445045E0,2.880628452E0,8.080689613E0
8.675317250E0,-4.299819027E0,5.965940443E0,4.248881593E0,8.493166890E0
8.685318250E0,-3.350617121E0,5.411021551E0,4.780450798E0,7.959805221E0
8.695319250E0,-2.278406755E0,4.983544478E0,4.745541751E0,7.248932296E0
8.705319250E0,-1.290093409E0,4.699868565E0,3.937084373E0,6.265280432E0
8.715320250E0,-1.583496165E-1,4.144698828E0,2.737501477E0,4.969659678E0
8.725321250E0,1.298940246E0,3.776631805E0,1.407297631E0,4.234463387E0
8.735322250E0,2.879260204E0,3.226611711E0,2.523111561E-1,4.331838336E0
8.745323250E0,4.951226333E0,2.821066960E0,-2.180408006E0,6.101412956E0
8.755323250E0,7.559886167E0,2.836636925E0,-6.825482898E0,1.057287117E1
8.765324250E0,9.478521345E0,5.434437311E-1,-7.980517319E0,1.240267530E1
8.775325250E0,9.364929825E0,-5.280630396E0,-6.892711844E0,1.277092184E1
8.785326250E0,8.366969742E0,-7.992500603E0,-1.066214865E1,1.573428303E1
8.795327250E0,6.195053063E0,-7.287930998E0,-7.346227738E0,1.206066676E1
8.805327250E0,4.309764556E0,-3.526628253E0,-2.904821599E0,6.280857098E0
8.815328250E0,3.091026474E0,1.853284357E0,-3.116965600E0,4.764932541E0
8.825329250E0,2.909110240E0,4.890389562E0,-3.336540534E0,6.596312242E0
8.835330250E0,2.804115881E0,5.410217559E0,-3.128267975E0,6.849786890E0
8.845330250E0,2.879491169E0,5.081866579E0,-2.550402563E0,6.373491237E0
8.855331250E0,2.887853857E0,3.094166429E0,8.692947337E-1,4.320791493E0
8.865332250E0,1.963783284E0,-1.003058270E0,3.844682871E0,4.432172949E0
8.875333250E0,2.138336120E0,-4.855345445E0,5.641138723E0,7.743985204E0
8.885334250E0,1.962393401E0,-7.407084389E0,7.646954716E0,1.082551631E1
8.895334250E0,1.122033906E0,-8.402322008E0,8.445953346E0,1.196629028E1
8.905335250E0,4.191488832E-1,-8.061626387E0,7.788383660E0,1.121714874E1
8.915336250E0,-4.770971292E-1,-8.130728197E0,6.905380422E0,1.067804483E1
8.925337250E0,-1.604896975E0,-8.578851787E0,5.121545784E0,1.011941814E1
8.935337250E0,-2.530699493E0,-7.942477089E0,1.803405268E0,8.528754469E0
8.945338250E0,-2.734601258E0,-7.040145294E0,1.937977767E-1,7.555080898E0
8.955339250E0,-9.128649688E-1,-6.003046288E0,3.804596114E-1,6.083965541E0
8.965340250E0,2.239577735E0,-3.935520535E0,2.503604665E0,5.174173038E0
8.975341250E0,3.675727574E0,-1.675890359E0,3.300428131E0,5.216551307E0
8.985341250E0,3.490856157E0,4.091635931E-1,3.419885577E0,4.903989082E0
8.995342250E0,2.190941765E0,2.067364955E0,3.628042946E0,4.715603810E0
9.005343250E0,6.087278938E-1,3.703147507E0,3.725875050E0,5.288288570E0
9.015344250E0,-1.096329546E0,4.446633841E0,3.442604349E0,5.729399244E0
9.025344250E0,-2.540253258E0,5.306309028E0,2.172869775E0,6.271456384E0
9.035345250E0,-3.403612191E0,5.561784405E0,6.973354304E-1,6.557766267E0
9.045346250E0,-4.117511614E0,5.217436613E0,3.148959517E-2,6.646543334E0
9.055347250E0,-4.821394172E0,4.682012338E0,-6.410840464E-1,6.751153238E0
9.065348250E0,-5.627279068E0,3.872936032E0,-1.019024677E0,6.906831003E0
9.075348250E0,-6.165414696E0,2.902735021E0,-5.347769149E-1,6.835509880E0
9.085349250E0,-6.413296294E0,2.094945102E0,4.150681114E-1,6.759544798E0
9.095350250E0,-6.039919415E0,2.509105141E0,1.135152719E0,6.638132783E0
9.105351250E0,-6.418145975E0,2.621434246E0,1.483647941E0,7.089832613E0
9.115351250E0,-7.154142610E0,2.083945320E0,1.358301764E0,7.574270148E0
9.125352250E0,-7.677105884E0,1.395764875E0,6.386247075E-1,7.829045654E0
9.135353250E0,-8.122037480E0,6.911689568E-1,-2.089414805E-1,8.154070388E0
9.145354250E0,-8.356179875E0,-1.299631387E-1,-7.723190276E-1,8.392801034E0
9.155355250E0,-7.736934010E0,-9.237776273E-1,-1.717926577E0,7.979021538E0
9.165355250E0,-5.600988232E0,-1.293499412E0,-2.471807506E0,6.257319094E0
9.175356250E0,-3.219131953E0,-1.912143599E0,-2.921678245E0,4.749242828E0
9.185357250E0,-9.559560245E-1,-2.363949766E0,-3.725566317E0,4.514637837E0
9.195358250E0,1.332947652E0,-1.988323463E0,-5.145537495E0,5.675097863E0
9.205358250E0,3.603876988E0,-1.333975008E0,-6.292725538E0,7.373317663E0
9.215359250E0,5.900167453E0,-6.881015074E-1,-7.152677298E0,9.297647670E0
9.225360250E0,8.740267684E0,1.544892848E-1,-7.775470085E0,1.169931969E1
9.235361250E0,1.162866884E1,1.325120569E0,-7.312515031E0,1.380053476E1
9.245362250E0,1.360659712E1,2.314920278E0,-6.112475760E0,1.509505552E1
9.255362250E0,1.467931561E1,3.173016132E0,-3.930715293E0,1.552420243E1
9.265363250E0,1.446331830E1,4.425905462E0,-2.418141761E0,1.531742879E1
9.275364125E0,1.239857640E1,6.184083102E0,-2.172530783E0,1.402453103E1
9.285365125E0,8.191922817E0,4.452710853E0,-3.080231929E0,9.819473617E0
9.295365125E0,4.796191503E0,1.994854803E0,-3.488648833E0,6.257281302E0
9.305366125E0,3.742688718E0,2.079854608E-3,-3.202396637E0,4.925755514E0
9.315367125E0,3.877105681E0,-1.907810227E0,-2.658127279E0,5.073197114E0
9.325368125E0,3.439084325E0,-3.519495819E0,-2.024856282E0,5.321108416E0
9.335369125E0,1.561295457E0,-4.801632922E0,-1.337006789E0,5.223112996E0
9.345369125E0,-7.422695285E-1,-5.471662440E0,-4.959315956E-2,5.522002661E0
9.355370125E0,-1.801341201E0,-6.211563846E0,8.993181396E-1,6.529711223E0
9.365371125E0,-1.385359170E0,-6.927966462E0,1.404448575E0,7.203361377E0
9.375372125E0,-8.653890860E-1,-7.831869403E0,2.305212731E0,8.209816219E0
9.385372125E0,-5.978871560E-1,-9.436339531E0,3.656734648E0,1.013773550E1
9.395373125E0,1.049902654E-1,-8.877883074E0,4.521664143E0,9.963597616E0
9.405374125E0,6.596010089E-2,-8.366929981E0,4.667118895E0,9.580807212E0
9.415375125E0,-8.971774739E-1,-7.552555513E0,3.966871551E0,8.578000472E0
9.425375125E0,-1.910325699E0,-7.237675349E0,3.693545794E0,8.347189303E0
9.435376125E0,-2.636546375E0,-6.689581327E0,3.847842121E0,8.155229249E0
9.445377125E0,-3.197986082E0,-6.027205229E0,3.840521407E0,7.829682148E0
9.455378125E0,-3.656889600E0,-4.420365225E0,3.379850861E0,6.658518011E0
9.465379125E0,-4.684779240E0,-2.866530231E0,2.638623306E0,6.093150667E0
9.475379125E0,-5.898508013E0,-1.509296168E0,1.888402149E0,6.374671315E0
9.485380125E0,-6.663600394E0,6.555196524E-2,1.195835123E0,6.770368447E0
9.495381125E0,-6.850281524E0,1.390724575E0,9.437242341E-1,7.053445061E0
9.505382125E0,-6.633109503E0,2.881779769E0,4.550256443E-1,7.246367687E0
9.515382125E0,-6.481107624E0,3.996784737E0,-4.574101754E-1,7.628123513E0
9.525383125E0,-6.505377077E0,4.513568088E0,-5.387297058E-1,7.936148782E0
9.535384125E0,-6.409782702E0,4.869865251E0,1.281358838E-1,8.050920485E0
9.545385125E0,-6.104858007E0,5.369004629E0,6.432146987E-1,8.155318948E0
9.555386125E0,-5.643975207E0,5.950326038E0,-6.275582671E-2,8.201510495E0
9.565386125E0,-4.504541742E0,6.596581947E0,-4.401688926E-1,7.999971146E0
9.575387125E0,-4.008408417E0,6.795443997E0,9.055221815E-1,7.941370636E0
9.585388125E0,-4.167974839E0,6.682510289E0,2.928379154E0,8.402580704E0
9.595389125E0,-4.308272347E0,6.383863750E0,4.745105549E0,9.046046300E0
9.605389125E0,-3.369521754E0,6.249304115E0,5.162781519E0,8.778484595E0
9.615390125E0,-1.681158115E0,6.235487144E0,3.743926574E0,7.464889733E0
9.625391125E0,1.512510967E-1,5.968081108E0,1.668889049E0,6.198875678E0
9.635392125E0,1.845818047E0,5.338191556E0,1.087273671E0,5.751999425E0
9.645392125E0,3.440969467E0,4.360941727E0,1.296691407E0,5.704339771E0
9.655393125E0,6.043033057E0,3.971347595E0,-1.183793075E0,7.327429037E0
9.665394125E0,8.287140630E0,2.970100207E0,-6.496304537E0,1.094075718E1
9.675395125E0,1.015974068E1,-1.820925280E0,-7.744678062E0,1.290411321E1
9.685396125E0,1.152785349E1,-7.913160903E0,-1.185817790E1,1.833373679E1
9.695396125E0,1.080868572E1,-8.208766306E0,-1.329968613E1,1.900245201E1
9.705397125E0,7.137654632E0,-4.731551118E0,-6.684455073E0,1.086349986E1
9.715398125E0,2.839138949E0,2.774544758E-1,-1.763849731E0,3.353931549E0
9.725399125E0,1.358686511E0,4.089626243E0,-2.139914868E0,4.811476642E0
9.735399125E0,1.529199505E0,5.299292954E0,-1.945334734E0,5.848528376E0
9.745400125E0,1.800916108E0,5.163995401E0,-1.075315822E0,5.573728684E0
9.755401125E0,2.734121786E0,3.125830271E0,1.117370459E0,4.300552705E0
9.765402125E0,3.013688861E0,-1.673240401E0,4.395530054E0,5.585941142E0
9.775403125E0,3.463427453E0,-5.919325270E0,7.197189227E0,9.941492551E0
9.785403125E0,2.470985972E0,-8.559705665E0,9.480089568E0,1.300947466E1
9.795404125E0,5.830925310E-1,-9.527523351E0,9.491679919E0,1.346126613E1
9.805405125E0,-3.309424657E-1,-9.008502855E0,7.332516017E0,1.162017374E1
9.815406125E0,-1.040003902E0,-8.249645360E0,3.553276938E0,9.042346691E0
9.825406125E0,-2.146936204E0,-8.705238184E0,-2.082582918E0,9.204762817E0
9.835407125E0,-2.515222498E0,-6.788666489E0,-3.049163918E0,7.855554564E0
9.845408125E0,-7.862271416E-1,-4.340401627E0,2.491717275E0,5.066151832E0
9.855409125E0,1.233150884E0,-3.883295544E0,5.546253616E0,6.881974611E0
9.865409125E0,3.525977458E0,-3.076304355E0,5.883760750E0,7.517633011E0
9.875410125E0,3.913981147E0,-2.367969142E0,4.897288984E0,6.701489810E0
9.885411125E0,2.917401007E0,-9.527956045E-1,3.643382531E0,4.763746883E0
9.895412125E0,1.677474954E0,1.470573567E0,2.556739483E0,3.393143914E0
9.905413125E0,3.030793136E-1,3.373599018E0,2.161803335E0,4.018260950E0
9.915413125E0,-9.576078629E-1,4.619726627E0,1.814913758E0,5.054977634E0
9.925414125E0,-2.210076193E0,5.049011659E0,6.233060988E-1,5.546662601E0
9.935415125E0,-3.245895243E0,5.253696951E0,-3.340736496E-1,6.184559224E0
9.945416125E0,-4.453833518E0,5.064173489E0,-9.863796723E-1,6.815822107E0
9.955416125E0,-5.335539844E0,4.719678932E0,-6.369010214E-1,7.151852736E0
9.965417125E0,-6.458884111E0,3.786901855E0,5.828890479E-1,7.509831507E0
9.975418125E0,-7.252993884E0,2.571121294E0,1.590241513E0,7.857827503E0
9.985419125E0,-7.771326163E0,1.572208115E0,1.342940544E0,8.041693727E0
9.995419125E0,-8.210804061E0,7.364059407E-1,4.456151354E-1,8.255796139E0
1.000542012E1,-7.900972967E0,7.750069195E-1,4.129104888E-1,7.949622923E0
1.001542112E1,-6.645620205E0,1.869913838E0,9.235688818E-1,6.965186656E0
1.002542213E1,-6.998536507E0,1.676929409E0,7.413491768E-1,7.234722116E0
1.003542312E1,-7.219664170E0,1.302595925E0,-4.435990155E-1,7.349631757E0
1.004542312E1,-6.874479641E0,1.087110241E0,-1.432010010E0,7.105697129E0
1.005542412E1,-6.015257614E0,8.973113751E-1,-2.417789758E0,6.544784120E0
1.006542512E1,-4.676990749E0,4.606582671E-1,-3.229945793E0,5.702543146E0
1.007542612E1,-3.056568248E0,2.081632161E-1,-3.565124567E0,4.700644057E0
1.008542612E1,-1.479436192E0,-1.828406793E-1,-3.824363796E0,4.104621859E0
1.009542712E1,5.719962698E-1,-5.087907922E-1,-3.896196256E0,3.970691762E0
1.010542813E1,2.916233903E0,-1.022631825E0,-4.289056057E0,5.286416356E0
1.011542912E1,5.792830700E0,-1.306685468E0,-4.764924687E0,7.613725875E0
1.012542912E1,9.127490770E0,-8.978259301E-1,-4.348377230E0,1.015015092E1
1.013543012E1,1.255946722E1,1.382586420E0,-3.370622200E0,1.307718838E1
1.014543112E1,1.411671289E1,4.037834530E0,-2.562825850E0,1.490482361E1
1.015543212E1,1.531622709E1,5.238985357E0,-2.936357680E0,1.645162533E1
1.016543312E1,1.452461232E1,4.818492199E0,-4.492547641E0,1.594883113E1
1.017543312E1,1.089443865E1,3.648997028E0,-6.516752250E0,1.320878619E1
1.018543413E1,6.650584491E0,2.107851076E0,-7.124997164E0,9.971905276E0
1.019543512E1,4.633434840E0,9.423454607E-1,-6.514274200E0,8.049378966E0
1.020543612E1,5.188094700E0,-5.524659848E-1,-5.222129003E0,7.381881644E0
1.021543612E1,6.292674083E0,-2.021875956E0,-3.998629534E0,7.724944507E0
1.022543712E1,5.137756605E0,-3.370632725E0,-2.671904488E0,6.700506063E0
1.023543812E1,2.137581244E0,-4.493010448E0,-9.219632363E-1,5.060277924E0
1.024543912E1,-6.881471157E-1,-5.221527910E0,8.231388599E-1,5.330615138E0
1.025543913E1,-2.224504198E0,-6.607305740E0,2.475523412E0,7.398183847E0
1.026544013E1,-2.058828020E0,-7.716071729E0,3.682817908E0,8.794298351E0
1.027544062E1,-1.441159149E0,-9.144158258E0,4.723163872E0,1.039234559E1
1.028544162E1,-3.537588859E-1,-1.028498804E1,6.030044637E0,1.192759668E1
1.029544262E1,5.823312235E-1,-9.901059859E0,6.992491656E0,1.213528061E1
1.030544262E1,-3.606597698E-1,-9.416030397E0,6.875987054E0,1.166494329E1
1.031544362E1,-1.267948834E0,-8.213853968E0,5.654260460E0,1.005215164E1
1.032544462E1,-1.895960260E0,-7.159439018E0,4.666985579E0,8.754026888E0
1.033544563E1,-2.064568232E0,-6.062229466E0,4.540607952E0,7.850489709E0
1.034544563E1,-2.936744766E0,-4.480064127E0,4.177970654E0,6.793444133E0
1.035544662E1,-4.013348145E0,-3.068437511E0,3.418979843E0,6.100138954E0
1.036544762E1,-4.952514474E0,-1.863582473E0,2.926846014E0,6.047046125E0
1.037544862E1,-5.437208306E0,-5.964961034E-1,1.964865603E0,5.812033947E0
1.038544862E1,-5.362696652E0,4.766930866E-1,-1.332475380E-1,5.385490376E0
1.039544962E1,-5.056304891E0,1.421455202E0,-2.562065127E0,5.843879855E0
1.040545062E1,-4.612853810E0,2.489258521E0,-3.030218940E0,6.054507006E0
1.041545163E1,-4.365902504E0,3.513567912E0,-2.665668433E0,6.205807952E0
1.042545162E1,-4.356931706E0,4.631436262E0,-2.199816084E0,6.728465393E0
1.043545262E1,-4.497295287E0,5.443198194E0,-1.473438557E0,7.212842204E0
1.044545362E1,-4.662062223E0,6.159621860E0,-7.970444906E-1,7.766018642E0
1.045545462E1,-5.174294102E0,6.842847374E0,6.051657701E-1,8.600238674E0
1.046545462E1,-6.069301089E0,7.461546525E0,2.354696109E0,9.902307106E0
1.047545562E1,-6.832139953E0,8.094666079E0,4.132892715E0,1.137024879E1
1.048545662E1,-7.030846467E0,8.440082742E0,5.699503291E0,1.237546510E1
1.049545763E1,-6.079092252E0,8.395384287E0,5.856849525E0,1.190548303E1
1.050545762E1,-3.981184366E0,7.612787097E0,5.049967679E0,9.965266172E0
1.051545862E1,-1.929986962E0,6.542301074E0,3.483489250E0,7.659063283E0
1.052545962E1,-3.848549634E-1,5.452813940E0,2.407777279E0,5.973163704E0
1.053546062E1,7.417309999E-1,4.392742978E0,3.356385692E0,5.577784566E0
1.054546162E1,2.558127027E0,3.393457332E0,4.140888197E0,5.933508373E0
1.055546162E1,4.660527914E0,2.147400473E0,1.999552456E0,5.507273305E0
1.056546263E1,5.940724325E0,-3.540225953E-1,-2.449093705E0,6.435495123E0
1.057546363E1,6.551668314E0,-6.122734115E0,-9.030326418E0,1.272631235E1
1.058546462E1,9.782362550E0,-1.081200928E1,-1.919974307E1,2.410859381E1
1.059546462E1,1.175392205E1,-1.084172951E1,-1.767816424E1,2.383726648E1
1.060546562E1,7.250209440E0,-6.543254755E0,-7.653448634E0,1.240786024E1
1.061546662E1,3.402302999E0,3.553937674E-1,-4.558275607E0,5.699109311E0
1.062546762E1,1.033238089E0,5.110888649E0,-3.295465306E0,6.168375420E0
1.063546762E1,1.989918584E-1,6.437261108E0,-1.467419871E0,6.605395477E0
1.064546863E1,8.806444716E-1,6.204064792E0,-1.252583813E0,6.390220719E0
1.065546962E1,1.574777967E0,5.175646563E0,1.044667349E0,5.509861419E0
1.066547062E1,1.330868967E0,1.704410738E0,5.044589995E0,5.488544104E0
1.067547162E1,3.356026965E0,-2.114041523E0,6.329294025E0,7.469407701E0
1.068547162E1,5.622276775E0,-5.561059350E0,7.959875479E0,1.122029389E1
1.069547262E1,4.857406003E0,-8.486234815E0,8.589241705E0,1.301482414E1
1.070547362E1,3.902862666E0,-9.552713156E0,7.969374865E0,1.303831283E1
1.071547463E1,3.122717214E0,-9.934875476E0,7.530163600E0,1.285132201E1
1.072547463E1,1.643413169E0,-9.503230509E0,6.307630091E0,1.152381856E1
1.073547562E1,2.555853045E-1,-7.634438167E0,3.440838490E0,8.377907822E0
1.074547662E1,-1.739079464E0,-4.848472627E0,-1.445665598E-1,5.152958732E0
1.075547762E1,-2.339731768E0,-3.458299445E0,-1.216559921E0,4.349045624E0
1.076547762E1,9.670534551E-2,-2.818629840E0,6.967694199E-1,2.905084116E0
1.077547862E1,2.652459573E0,-1.642978721E0,3.360679010E0,4.585747951E0
1.078547962E1,3.340694981E0,-1.772033787E-1,4.961509831E0,5.983997309E0
1.079548063E1,2.516880768E0,1.410195218E0,4.693683965E0,5.509447206E0
1.080548063E1,1.166071041E0,3.291373717E0,3.993921940E0,5.305117820E0
1.081548162E1,-3.959751981E-1,5.044949014E0,2.934885936E0,5.849945501E0
1.082548262E1,-2.276891742E0,5.415098230E0,1.866982044E0,6.163858109E0
1.083548362E1,-3.516464623E0,5.532589842E0,8.182559232E-1,6.606407235E0
1.084548362E1,-4.943860595E0,4.381129239E0,1.573403871E-1,6.607632480E0
1.085548462E1,-5.892711083E0,3.349642391E0,4.698074055E-1,6.794473273E0
1.086548562E1,-6.818284391E0,2.671827890E0,7.422549105E-1,7.360611976E0
1.087548663E1,-7.618518537E0,1.700948017E0,4.636877461E-1,7.819850074E0
1.088548663E1,-8.031217357E0,7.620956826E-1,-1.852736874E-1,8.069421813E0
1.089548762E1,-8.366049390E0,3.905600917E-1,-9.701945794E-1,8.431168194E0
1.090548862E1,-8.330548605E0,4.338224709E-1,-1.117159667E0,8.416310814E0
1.091548962E1,-6.762460438E0,1.451397623E0,-2.683614707E-1,6.921664837E0
1.092548962E1,-6.498189095E0,1.276260651E0,6.038940372E-1,6.649811333E0
1.093549062E1,-6.623770915E0,2.487785608E-1,-1.631571607E-1,6.630448866E0
1.094549162E1,-6.197397212E0,-4.270806313E-1,-9.361269468E-1,6.282233976E0
1.095549263E1,-5.438688236E0,-6.044015390E-1,-1.854456723E0,5.777857794E0
1.096549362E1,-4.373983941E0,-9.456351042E-1,-2.846653790E0,5.303715591E0
1.097549362E1,-2.955123734E0,-1.004089134E0,-3.720815454E0,4.856482154E0
1.098549462E1,-1.786013310E0,-1.158014163E0,-4.284977624E0,4.784545285E0
1.099549562E1,-1.289778829E-1,-1.305295585E0,-4.656358849E0,4.837572696E0
1.100549662E1,1.953155969E0,-1.195957330E0,-4.688455385E0,5.217925457E0
1.101549662E1,4.396182895E0,-5.918072212E-1,-4.274691787E0,6.160328702E0
1.102549762E1,7.309151128E0,4.989663005E-2,-4.068176317E0,8.365180119E0
1.103549863E1,1.058754637E1,1.208469787E0,-3.910633616E0,1.135119344E1
1.104549962E1,1.287518997E1,3.013716343E0,-3.211339953E0,1.360756066E1
1.105549962E1,1.392748530E1,4.410008052E0,-2.921308116E0,1.489822335E1
1.106550062E1,1.372387122E1,4.518748137E0,-4.431228182E0,1.511289215E1
1.107550162E1,1.200725500E1,4.033604069E0,-6.625550807E0,1.429482627E1
1.108550262E1,8.645263293E0,3.017362082E0,-7.685189075E0,1.195437922E1
1.109550262E1,5.357011405E0,1.710805838E0,-7.508217831E0,9.380712275E0
1.110550363E1,4.043307524E0,5.466836733E-1,-6.285158656E0,7.493358266E0
1.111550463E1,4.753102201E0,-8.215799922E-1,-4.620101434E0,6.679244829E0
1.112550562E1,5.153215474E0,-3.010839513E0,-2.605518125E0,6.512258364E0
1.113550562E1,4.101570935E0,-4.681333476E0,-1.250829940E0,6.348412620E0
1.114550662E1,2.168634052E0,-5.688674247E0,-1.052164795E-1,6.088929204E0
1.115550762E1,7.262709618E-1,-6.476656138E0,1.246730458E0,6.635426217E0
1.116550862E1,-1.669543791E-1,-7.924926086E0,2.393347812E0,8.280123247E0
1.117550862E1,-2.955095083E-1,-8.387077147E0,3.911942807E0,9.259248645E0
1.118550963E1,-3.674197358E-1,-8.545450153E0,5.129291006E0,9.973431797E0
1.119551062E1,-5.020279026E-1,-8.153166887E0,5.584581529E0,9.895135833E0
1.120551162E1,-6.712527555E-1,-7.999612572E0,5.819400448E0,9.915130011E0
1.121551262E1,-7.986536443E-1,-7.982009529E0,5.520340510E0,9.737786356E0
1.122551262E1,-1.272638301E0,-7.646768190E0,5.019009596E0,9.234886535E0
1.123551362E1,-1.897121517E0,-7.023650299E0,4.807318754E0,8.720151786E0
1.124551462E1,-2.643898664E0,-5.308214051E0,4.109434855E0,7.214900650E0
1.125551462E1,-3.478223832E0,-3.334285848E0,3.289576868E0,5.834108254E0
1.126551563E1,-4.254951587E0,-1.528869138E0,2.828802241E0,5.333308164E0
1.127551704E1,-4.890603570E0,3.083225119E-1,2.298277348E0,5.412498944E0
1.128551804E1,-5.445458727E0,1.761876588E0,1.481669244E0,5.912070163E0
1.129551804E1,-5.931672251E0,2.879913338E0,3.918780176E-1,6.605467803E0
1.130551904E1,-6.280877910E0,3.753703703E0,-6.256813109E-1,7.343786211E0
1.131552004E1,-6.220211878E0,5.012557778E0,-8.935386785E-1,8.038356962E0
1.132552104E1,-6.553654613E0,5.732429547E0,-3.860670181E-1,8.715514043E0
1.133552204E1,-7.294219093E0,5.745437847E0,9.574955964E-1,9.334478349E0
1.134552204E1,-7.596653459E0,5.967124504E0,1.611298506E0,9.793467287E0
1.135552304E1,-7.459802885E0,6.484914161E0,2.261403637E0,1.013985785E1
1.136552404E1,-6.988422579E0,7.120284308E0,2.639312693E0,1.032000340E1
1.137552504E1,-5.941269870E0,7.889827589E0,1.918555509E0,1.006125849E1
1.138552504E1,-4.492775974E0,8.163069146E0,1.035516310E0,9.375128152E0
1.139552604E1,-3.718985860E0,7.410389820E0,2.356398672E0,8.619590931E0
1.140552704E1,-2.929638060E0,6.648316941E0,4.647369047E0,8.624438322E0
1.141552804E1,-1.099939032E0,6.383446258E0,5.237510104E0,8.330051867E0
1.142552804E1,6.932388711E-1,5.960966801E0,4.882802215E0,7.736631231E0
1.143552904E1,1.916760560E0,5.101316172E0,5.006347450E0,7.400061657E0
1.144553004E1,3.274781658E0,4.002698611E0,3.456651407E0,6.220468634E0
1.145553104E1,4.712014986E0,2.647384189E0,-1.892981981E0,5.726701411E0
1.146553104E1,5.536784635E0,-4.110785562E-1,-9.225945017E0,1.076768458E1
1.147553204E1,8.105124993E0,-5.730587674E0,-1.552906574E1,1.843053360E1
1.148553304E1,1.254996549E1,-8.308425665E0,-1.653891964E1,2.236218759E1
1.149553404E1,9.498290781E0,-7.860503803E0,-1.165999588E1,1.696940045E1
1.150553404E1,4.969024673E0,-5.752783120E0,-6.762458099E0,1.017430879E1
1.151553504E1,2.813619361E0,-1.757471296E0,-4.678470387E0,5.735263240E0
1.152553604E1,1.956592963E0,1.989494076E0,-3.818219250E0,4.729179732E0
1.153553704E1,1.319346444E0,3.859171686E0,-2.185459415E0,4.627106439E0
1.154553704E1,1.396700429E0,5.141201200E0,-1.382764468E0,5.504067536E0
1.155553804E1,1.858939199E0,6.227463010E0,1.479997232E0,6.665383882E0
1.156553904E1,1.100834241E0,6.169718247E0,5.926405663E0,8.625516991E0
1.157554004E1,5.523391002E-1,4.287341654E0,4.824151719E0,6.477562562E0
1.158554004E1,2.161891043E0,1.285855347E0,3.159062337E0,4.038176780E0
1.159554104E1,4.115077418E0,-1.617872823E0,4.595087923E0,6.377006166E0
1.160554204E1,4.023259760E0,-5.811464607E0,6.347710415E0,9.500166708E0
1.161554304E1,3.656049939E0,-8.904240568E0,6.755288243E0,1.175951192E1
1.162554304E1,4.126083632E0,-9.802110937E0,7.191166595E0,1.283817830E1
1.163554404E1,3.560345052E0,-1.122419121E1,6.726270851E0,1.356101931E1
1.164554504E1,1.456736716E0,-1.297344892E1,5.587117467E0,1.420029367E1
1.165554604E1,-1.049557668E0,-1.251174341E1,4.311167303E0,1.327521970E1
1.166554604E1,-2.092031434E0,-8.897319803E0,2.018827218E0,9.360264875E0
1.167554704E1,-1.938030977E0,-5.301144183E0,6.372155285E-1,5.680152933E0
1.168554804E1,-2.741215628E-1,-2.402247567E0,2.223261080E0,3.284634810E0
1.169554904E1,5.358715868E-1,-5.705505458E-1,4.096811886E0,4.170917634E0
1.170554904E1,-6.387673795E-2,1.108253480E0,3.814125906E0,3.972387499E0
1.171555004E1,-1.750601403E0,2.333607687E0,2.926578212E0,4.132213709E0
1.172555104E1,-3.271142936E0,2.817219199E0,2.240216836E0,4.863709654E0
1.173555204E1,-3.907733397E0,3.280518654E0,1.848474437E0,5.426697033E0
1.174555204E1,-4.868331526E0,3.304346057E0,1.268029525E0,6.018908007E0
1.175555304E1,-5.716835023E0,3.271508094E0,1.177991394E-1,6.587779939E0
1.176555404E1,-6.585061178E0,3.062582694E0,-9.012757874E-1,7.318110515E0
1.177555504E1,-7.494321923E0,2.310441311E0,-1.531386949E0,7.990503496E0
1.178555504E1,-7.728567229E0,1.470180050E0,-1.919628035E0,8.097972128E0
1.179555604E1,-7.611139936E0,6.758831656E-1,-2.884906860E0,8.167555128E0
1.180555704E1,-7.717846944E0,-7.056069016E-2,-3.307865204E0,8.397149068E0
1.181555804E1,-7.018029370E0,2.567763823E-1,-2.988307267E0,7.632080364E0
1.182555804E1,-5.982612609E0,1.228144498E0,-2.578478846E0,6.629369932E0
1.183555904E1,-4.988123433E0,2.145823479E0,-1.924937891E0,5.761190821E0
1.184556004E1,-4.726695006E0,2.390679728E0,-1.588223639E0,5.529868856E0
1.185556104E1,-4.278242801E0,2.002746790E0,-1.949293883E0,5.110195967E0
1.186556104E1,-3.472150914E0,1.479175406E0,-2.519469915E0,4.537788063E0
1.187556204E1,-2.129830760E0,8.796299797E-1,-3.131027861E0,3.887578094E0
1.188556304E1,-2.557092655E-1,6.628824663E-1,-3.748323095E0,3.815065716E0
1.189556404E1,1.554223834E0,8.669251496E-1,-4.402516599E0,4.748612782E0
1.190556404E1,3.497268214E0,1.256628624E0,-4.597678531E0,5.911738182E0
1.191556504E1,5.430206265E0,1.716953015E0,-4.661972761E0,7.359963163E0
1.192556604E1,7.393079138E0,2.138115095E0,-4.373060081E0,8.851712251E0
1.193556704E1,9.288327207E0,2.660121179E0,-3.680265014E0,1.033893696E1
1.194556704E1,1.089989995E1,3.353172355E0,-3.489413064E0,1.192592081E1
1.195556804E1,1.126312431E1,3.934932305E0,-3.596020669E0,1.246085976E1
1.196556904E1,1.007307325E1,4.137392732E0,-3.877643040E0,1.155945236E1
1.197557004E1,8.690578630E0,4.846901481E0,-4.035467577E0,1.073795183E1
1.198557004E1,6.615345077E0,5.698353728E0,-4.262810830E0,9.716253489E0
1.199557104E1,4.814028434E0,5.697202996E0,-4.522662263E0,8.722812946E0
1.200557204E1,4.899380241E0,4.044010944E0,-4.432914519E0,7.746527118E0
1.201557304E1,6.117624818E0,1.286815460E0,-2.889103991E0,6.886809807E0
1.202557304E1,6.272010022E0,-2.033768608E0,-1.503947135E0,6.762853056E0
1.203557404E1,4.880883159E0,-4.816191904E0,-4.856820112E-1,6.874198999E0
1.204557504E1,3.079614463E0,-8.236862177E0,1.394563272E0,8.903635802E0
1.205557604E1,2.594211364E0,-1.086175973E1,3.978868868E0,1.185492111E1
1.206557604E1,1.950940459E0,-1.174197385E1,5.871050073E0,1.327212671E1
1.207557704E1,1.412492005E0,-1.299784116E1,7.173378780E0,1.491295986E1
1.208557804E1,1.122728555E0,-1.311132042E1,7.503941762E0,1.514847796E1
1.209557904E1,-8.290767074E-2,-1.277932487E1,6.740333989E0,1.444818743E1
1.210557904E1,-1.493700475E0,-1.174464719E1,5.133858851E0,1.290443278E1
1.211558004E1,-2.332308728E0,-1.076703951E1,3.243990220E0,1.148443627E1
1.212558104E1,-3.123755094E0,-9.813800690E0,1.849662591E0,1.046373650E1
1.213558104E1,-3.726148700E0,-8.581520457E0,1.226597909E0,9.435635639E0
1.214558204E1,-3.776185078E0,-6.895508568E0,1.550875719E0,8.013290688E0
1.215558304E1,-4.248813765E0,-5.009861627E0,1.615764610E0,6.764748865E0
1.216558404E1,-4.771741955E0,-3.236256985E0,1.411642989E0,5.935959610E0
1.217558404E1,-5.109893453E0,-1.330670454E0,1.112232803E0,5.396179831E0
1.218558504E1,-5.425451310E0,7.338290727E-1,7.585908616E-1,5.527159046E0
1.219558604E1,-5.583465296E0,2.615834953E0,4.689291902E-1,6.183653596E0
1.220558704E1,-6.005149532E0,3.773292168E0,-3.673278614E-1,7.101724047E0
1.221558704E1,-6.275748732E0,4.672928689E0,-1.152550598E0,7.908834146E0
1.222558804E1,-6.381705542E0,5.517734991E0,-1.268098522E0,8.531098342E0
1.223558904E1,-6.411666675E0,6.145260513E0,-1.227060424E0,8.965454457E0
1.224559004E1,-6.164856287E0,6.644765927E0,-1.762888888E0,9.233966889E0
1.225559004E1,-5.479546825E0,7.205401642E0,-2.129936010E0,9.299455556E0
1.226559104E1,-4.931759198E0,7.532604228E0,-1.323753783E0,9.100258201E0
1.227559142E1,-5.079030095E0,7.469061366E0,4.558723211E-1,9.043851169E0
1.228559242E1,-5.759616176E0,7.261535497E0,3.401280029E0,9.872779857E0
1.229559242E1,-5.975535724E0,7.290151770E0,5.407005098E0,1.086687831E1
1.230559342E1,-4.691685387E0,7.480428938E0,6.792298779E0,1.114019980E1
1.231559442E1,-1.613816902E0,7.844168437E0,6.559655610E0,1.035202710E1
1.232559542E1,5.205425262E-1,7.184080939E0,4.070078124E0,8.273301602E0
1.233559542E1,1.343458022E0,5.967240279E0,2.598229279E0,6.645572314E0
1.234559642E1,1.933586508E0,5.462127385E0,3.305778333E0,6.670964154E0
1.235559742E1,3.638819364E0,5.149034715E0,6.023851267E-1,6.333753445E0
1.236559842E1,6.718149653E0,4.849781234E0,-5.119517970E0,9.739783213E0
1.237559842E1,8.995766450E0,1.822539404E0,-1.008532200E1,1.363668522E1
1.238559942E1,9.602133822E0,-5.151118662E0,-2.153636880E1,2.413607628E1
1.239560042E1,9.957092557E0,-9.552211465E0,-2.230789721E1,2.623033957E1
1.240560142E1,5.652598681E0,-9.723643641E0,-1.025557888E1,1.522097289E1
1.241560142E1,-1.393859267E-2,-7.228572403E0,-3.458020533E0,8.013136669E0
1.242560242E1,-3.774320401E0,-3.568767674E0,-4.386888161E-1,5.212873016E0
1.243560342E1,-3.184724012E0,-1.882367238E0,6.078008178E-1,3.749025911E0
1.244560442E1,-8.013328385E-1,-2.180637217E0,2.031694308E0,3.086275223E0
1.245560442E1,1.913442265E0,-2.139133388E0,2.762398629E0,3.983465719E0
1.246560542E1,4.663309434E0,-3.373986104E0,5.663446435E-1,5.783682509E0
1.247560642E1,5.266705252E0,-4.552287181E0,2.796021581E-2,6.961485801E0
1.248560742E1,4.632322115E0,-5.943174309E0,-1.210341480E-1,7.536204502E0
1.249560742E1,4.450741510E0,-5.749266604E0,4.905605772E0,8.770868513E0
1.250560842E1,3.720435385E0,-5.660971309E0,7.504121271E0,1.010940511E1
1.251560942E1,4.008286210E0,-6.165580757E0,5.993647474E0,9.487073019E0
1.252560942E1,4.898951640E0,-5.234303491E0,4.972535926E0,8.724893910E0
1.253561042E1,4.671219547E0,-3.319565775E0,4.712424291E0,7.419349816E0
1.254561142E1,3.835388721E0,-2.204518707E0,4.403497177E0,6.241866449E0
1.255561242E1,3.451821899E0,-2.295814793E0,4.145924112E0,5.862979339E0
1.256561242E1,2.698698769E0,-2.546723202E0,4.158568716E0,5.573371321E0
1.257561342E1,1.974049825E0,-1.909697416E0,5.210445682E0,5.890039146E0
1.258561442E1,1.153515315E0,-6.127113095E-1,5.795228058E0,5.940596012E0
1.259561542E1,2.382857323E-2,2.523865852E-1,5.446691905E0,5.452588330E0
1.260561542E1,-1.143706026E0,8.256344515E-1,4.550704340E0,4.764309573E0
1.261561642E1,-2.282001624E0,1.404572828E0,3.297511832E0,4.248992883E0
1.262561742E1,-3.244925775E0,2.091083893E0,2.177090296E0,4.431918014E0
1.263561842E1,-4.481669188E0,2.204117296E0,1.908675177E0,5.346637513E0
1.264561842E1,-5.699281096E0,1.901000560E0,1.748127007E0,6.257120438E0
1.265561942E1,-6.476578370E0,1.948921416E0,1.123424374E0,6.856124590E0
1.266562042E1,-7.000607007E0,2.200988158E0,6.972570777E-2,7.338781166E0
1.267562142E1,-7.441667746E0,2.542366150E0,-4.254713313E-1,7.875472705E0
1.268562142E1,-7.736931671E0,2.852370028E0,-3.002743312E-1,8.251441761E0
1.269562242E1,-7.471529476E0,3.305644432E0,1.359549268E-1,8.171261932E0
1.270562342E1,-7.183040135E0,3.286190745E0,1.595715384E-1,7.900669482E0
1.271562442E1,-6.775917220E0,2.846748808E0,3.332948736E-1,7.357181418E0
1.272562442E1,-6.303386766E0,2.863601360E0,6.985353521E-1,6.958509116E0
1.273562542E1,-5.942129996E0,2.824845430E0,1.014056810E0,6.657099354E0
1.274562642E1,-5.578149592E0,2.386472656E0,9.879571780E-1,6.147118349E0
1.275562742E1,-4.975644305E0,1.947470137E0,2.267749035E-1,5.347999911E0
1.276562742E1,-4.174552372E0,1.609576501E0,-1.006480061E0,4.585916063E0
1.277562842E1,-3.200340171E0,1.062116318E0,-2.493717023E0,4.193911405E0
1.278562942E1,-2.185975140E0,4.435142308E-1,-3.529909126E0,4.175577878E0
1.279562942E1,-7.543656635E-1,-5.715302467E-2,-4.153273185E0,4.221612508E0
1.280563042E1,8.251520562E-1,-4.920548916E-1,-4.724059081E0,4.820760120E0
1.281563142E1,2.789540527E0,-1.031821893E0,-5.220680063E0,6.008468448E0
1.282563242E1,5.579158237E0,-1.262666459E0,-5.378259017E0,7.851560563E0
1.283563242E1,8.205488357E0,-8.290381157E-1,-5.075322375E0,9.683813329E0
1.284563342E1,1.029239061E1,5.405803496E-1,-4.491659156E0,1.124279919E1
1.285563442E1,1.163085102E1,2.494512244E0,-3.781552237E0,1.248196395E1
1.286563542E1,1.220310398E1,4.373874013E0,-4.222253373E0,1.363355949E1
1.287563542E1,1.147667398E1,5.340224633E0,-6.497458193E0,1.422845767E1
1.288563642E1,9.157450148E0,4.101930538E0,-9.380279351E0,1.373587886E1
1.289563742E1,6.490284829E0,1.517216222E0,-1.061949087E1,1.253791564E1
1.290563842E1,5.271032192E0,-4.676339954E-1,-1.026457307E1,1.154832985E1
1.291563842E1,5.085149206E0,-3.351945316E0,-8.260967909E0,1.026342392E1
1.292563942E1,4.901864138E0,-6.472898133E0,-5.390303112E0,9.745873481E0
1.293564042E1,4.140202319E0,-8.363156773E0,-2.534718869E0,9.669977569E0
1.294564142E1,2.865877097E0,-9.781940382E0,3.326539457E-1,1.019854244E1
1.295564142E1,2.407098125E0,-1.049803485E1,2.659849284E0,1.109403692E1
1.296564242E1,2.279272143E0,-9.671316909E0,4.700120580E0,1.099184178E1
1.297564342E1,1.617265590E0,-9.433605373E0,6.030984285E0,1.131287893E1
1.298564442E1,1.204662665E0,-8.978102596E0,7.145337288E0,1.153747734E1
1.299564442E1,7.879152328E-1,-8.553129886E0,7.440556190E0,1.136392176E1
1.300564542E1,2.114926207E-1,-7.421977247E0,7.434685585E0,1.050737956E1
1.301564642E1,-8.333498526E-1,-6.383852055E0,6.640119145E0,9.248741606E0
1.302564642E1,-1.949720145E0,-6.089870424E0,5.348759229E0,8.336495410E0
1.303564742E1,-3.181821454E0,-6.177591523E0,4.526768178E0,8.293265637E0
1.304564842E1,-4.508960482E0,-4.534222793E0,3.620213524E0,7.348186642E0
1.305564942E1,-5.995682890E0,-3.160936662E0,3.013286573E0,7.417521814E0
1.306564942E1,-6.617468786E0,-1.544235036E0,3.547940769E0,7.665731451E0
1.307565042E1,-6.647319991E0,4.463094923E-1,4.399804076E0,7.984004705E0
1.308565142E1,-7.096819432E0,1.731177829E0,4.886612846E0,8.788674976E0
1.309565242E1,-7.396926606E0,3.112019440E0,5.397717966E0,9.671326044E0
1.310565242E1,-7.933450742E0,4.835284817E0,6.450980430E0,1.131082528E1
1.311565342E1,-8.182945002E0,6.350293715E0,7.165699632E0,1.259500180E1
1.312565442E1,-7.853880662E0,5.835392582E0,6.419201982E0,1.170219647E1
1.313565542E1,-6.858130826E0,3.843623647E0,-3.089693309E0,8.447106364E0
1.314565542E1,-3.719958252E0,5.047421801E0,-7.033692892E0,9.422706189E0
1.315565642E1,-2.772457886E0,6.293792655E0,-5.456929210E0,8.779318033E0
1.316565742E1,-2.742985581E0,7.049260519E0,-4.091402627E0,8.599745299E0
1.317565742E1,-3.047047811E0,7.330724430E0,-1.485257387E0,8.076509799E0
1.318565842E1,-4.091890869E0,6.825810342E0,1.492368479E0,8.097062516E0
1.319565942E1,-4.507371209E0,6.630949541E0,4.042219942E0,8.979166392E0
1.320566042E1,-4.052834392E0,6.150630596E0,5.428372579E0,9.150024710E0
1.321566042E1,-2.301750594E0,5.643758860E0,4.116195698E0,7.354803661E0
1.322566142E1,6.903988785E-1,5.662997369E0,2.248984151E0,6.132219788E0
1.323566242E1,3.460392163E0,4.865764598E0,1.562038053E0,6.171704945E0
1.324566342E1,4.161358130E0,2.566530061E0,1.764318678E0,5.197768602E0
1.325566342E1,3.891935974E0,9.337915689E-1,1.286562860E-2,4.002411504E0
1.326566442E1,4.518779127E0,-5.825130719E-1,-3.973218412E0,6.045258541E0
1.327566554E1,5.267577072E0,-4.911907901E0,-7.534913878E0,1.042348956E1
1.328566654E1,7.546141117E0,-1.016271925E1,-1.132388389E1,1.698397641E1
1.329566654E1,1.033008060E1,-9.970332992E0,-1.719549296E1,2.240096166E1
1.330566754E1,8.719460367E0,-5.647101713E0,-1.089610394E1,1.505469454E1
1.331566854E1,3.227402839E0,4.659459043E-1,-4.829157520E0,5.827005837E0
1.332566854E1,8.163210064E-1,5.182787182E0,-5.763512760E0,7.793955498E0
1.333566954E1,1.404735673E0,6.896743500E0,-3.950411639E0,8.071189834E0
1.334567054E1,2.081180171E0,6.756737768E0,-1.238349351E0,7.177626717E0
1.335567154E1,2.085242232E0,6.646236502E0,-4.966891024E-1,6.983365583E0
1.336567154E1,1.976080563E0,5.558043941E0,5.533021367E-1,5.924769202E0
1.337567254E1,1.790563613E0,2.398153639E0,3.509949363E0,4.612700235E0
1.338567354E1,2.891717112E0,-1.119752615E0,5.744150290E0,6.527720608E0
1.339567454E1,3.422382338E0,-3.987519532E0,7.719717468E0,9.338471538E0
1.340567454E1,3.088765941E0,-6.459893925E0,8.170593928E0,1.086412950E1
1.341567554E1,3.089838905E0,-8.068410326E0,7.805083308E0,1.164326737E1
1.342567654E1,3.220806595E0,-9.247161055E0,7.749114929E0,1.248728813E1
1.343567754E1,2.798458115E0,-1.003963653E1,6.876202816E0,1.248630589E1
1.344567754E1,1.613603479E0,-1.056765180E1,4.519628727E0,1.160629246E1
1.345567854E1,4.527750510E-1,-8.805757084E0,2.459824222E0,9.154075501E0
1.346567954E1,1.571942067E-1,-5.170002830E0,1.461943077E0,5.375027148E0
1.347567954E1,9.394972819E-1,-2.887716155E0,1.148644584E0,3.246682016E0
1.348568054E1,2.204682137E0,-1.228528660E0,1.719831015E0,3.054132399E0
1.349568154E1,2.433167351E0,1.073724210E-1,2.993594320E0,3.859201879E0
1.350568254E1,2.136238723E0,1.337413756E0,4.180133832E0,4.881158704E0
1.351568254E1,4.811626983E-1,2.403576639E0,4.337525382E0,4.982250961E0
1.352568354E1,-1.747028169E0,2.939136277E0,4.220596272E0,5.431764204E0
1.353568454E1,-3.426578300E0,2.763872420E0,3.969275926E0,5.927527392E0
1.354568554E1,-4.721126702E0,2.418362786E0,3.182630124E0,6.186004398E0
1.355568554E1,-5.801042529E0,1.920666208E0,1.820560853E0,6.376166162E0
1.356568654E1,-6.721993028E0,1.224065773E0,7.543178625E-1,6.874047041E0
1.357568754E1,-7.334100612E0,8.406091708E-1,3.054562799E-1,7.388434145E0
1.358568754E1,-7.753151847E0,9.521834010E-1,3.412508145E-3,7.811403743E0
1.359568854E1,-8.032146479E0,8.783012000E-1,-4.945621777E-1,8.095145571E0
1.360568954E1,-7.863093535E0,7.363118005E-1,-1.058507343E0,7.968113503E0
1.361569054E1,-7.310442778E0,9.260802609E-1,-1.245773853E0,7.473429651E0
1.362569054E1,-6.793472900E0,1.213928747E0,-1.519418868E0,7.066366163E0
1.363569154E1,-5.709857540E0,1.870069374E0,-1.710014709E0,6.246901864E0
1.364569254E1,-5.025837389E0,2.442200130E0,-1.341062418E0,5.746462507E0
1.365569354E1,-4.942740853E0,2.289228782E0,-1.917900183E0,5.774910967E0
1.366569354E1,-4.484800372E0,1.779994186E0,-2.712477733E0,5.535282209E0
1.367569454E1,-3.507424827E0,9.558624691E-1,-2.923067544E0,4.664764286E0
1.368569554E1,-2.261218865E0,1.326885259E-1,-3.178054093E0,3.902658686E0
1.369569554E1,-7.487143296E-1,-5.817131728E-1,-3.350677933E0,3.482241515E0
1.370569654E1,1.032725288E0,-1.214141001E0,-3.236199390E0,3.607443192E0
1.371569754E1,2.755791568E0,-1.462794431E0,-3.363214948E0,4.587523242E0
1.372569854E1,4.310746304E0,-1.307915722E0,-3.779112194E0,5.880039643E0
1.373569854E1,6.266134155E0,-6.698020613E-1,-3.875487172E0,7.398139825E0
1.374569954E1,8.351255935E0,1.189382136E-2,-3.457018320E0,9.038506116E0
1.375570054E1,1.027595292E1,5.704309702E-1,-3.435253814E0,1.084995708E1
1.376570154E1,1.092678311E1,1.657534195E0,-3.443524700E0,1.157583133E1
1.377570154E1,9.999597137E0,3.580838374E0,-3.669561685E0,1.123743874E1
1.378570254E1,8.700883178E0,5.188024533E0,-4.271849456E0,1.099407406E1
1.379570354E1,7.735370464E0,6.027502853E0,-4.879852880E0,1.095352505E1
1.380570354E1,6.796449718E0,6.366346661E0,-5.444831321E0,1.078741335E1
1.381570454E1,6.121926615E0,5.175752982E0,-5.852884528E0,9.925858235E0
1.382570554E1,6.810629801E0,2.537132015E0,-5.033746918E0,8.840832833E0
1.383570654E1,7.300430591E0,-7.799273515E-1,-2.827215891E0,7.867510609E0
1.384570654E1,5.625234881E0,-3.852821610E0,-1.327550672E0,6.946214265E0
1.385570754E1,3.178518362E0,-6.323936806E0,-2.561887737E-1,7.082428142E0
1.386570854E1,1.628412137E0,-8.526072480E0,2.047666270E0,8.918440176E0
1.387570954E1,1.142306787E0,-9.584426115E0,4.071625589E0,1.047588773E1
1.388570954E1,2.560893345E-1,-9.874335744E0,4.510326392E0,1.085868925E1
1.389571054E1,-7.737293029E-1,-9.613042973E0,5.215552640E0,1.096408872E1
1.390571154E1,-1.936168638E0,-9.150489623E0,5.821804238E0,1.101696936E1
1.391571154E1,-2.701491984E0,-8.220843145E0,6.079073541E0,1.057522842E1
1.392571254E1,-3.463638538E0,-7.272660409E0,5.448306906E0,9.724835705E0
1.393571354E1,-3.688827676E0,-6.377391466E0,4.745468076E0,8.763449025E0
1.394571454E1,-3.712186133E0,-5.542604368E0,4.190115321E0,7.877680844E0
1.395571454E1,-3.394722669E0,-4.739707984E0,3.373272159E0,6.735572643E0
1.396571554E1,-3.237453033E0,-3.792994654E0,2.764336104E0,5.701707172E0
1.397571654E1,-3.292975854E0,-2.937815391E0,2.529054086E0,5.086311416E0
1.398571754E1,-3.660103814E0,-1.807919319E0,1.766685923E0,4.448158197E0
1.399571754E1,-3.825804550E0,-6.917817450E-1,1.122899294E-1,3.889466733E0
1.400571854E1,-3.865788980E0,1.773904896E-1,-2.231132601E0,4.466961440E0
1.401571954E1,-3.638938648E0,1.336599823E0,-3.633651595E0,5.313360282E0
1.402571954E1,-3.579352012E0,2.609708240E0,-3.546747937E0,5.674659360E0
1.403572054E1,-3.870702980E0,3.460323166E0,-1.957222123E0,5.548594094E0
1.404572154E1,-4.398900681E0,4.257922558E0,-1.197566776E-1,6.123281259E0
1.405572254E1,-4.897388679E0,5.088483873E0,1.082617971E0,7.144868485E0
1.406572254E1,-5.349619939E0,5.748730415E0,1.854249147E0,8.068740594E0
1.407572354E1,-5.653337769E0,6.264373559E0,2.166379951E0,8.711819908E0
1.408572454E1,-5.719828212E0,6.888183761E0,2.239323089E0,9.229197050E0
1.409572454E1,-5.720073795E0,7.302681184E0,2.274486782E0,9.551004493E0
1.410572554E1,-5.739485382E0,7.383657519E0,3.113718641E0,9.856740566E0
1.411572654E1,-5.869490620E0,7.199344511E0,5.383600448E0,1.073613689E1
1.412572754E1,-4.919204056E0,6.957233530E0,6.055081830E0,1.045302267E1
1.413572754E1,-2.814046792E0,6.023278239E0,4.502132981E0,8.029193078E0
1.414572854E1,-6.131144750E-1,5.271363729E0,3.364694586E0,6.283657738E0
1.415572954E1,8.032355225E-1,4.255507658E0,2.720089346E0,5.114041335E0
1.416573054E1,2.574968762E0,3.456675673E0,1.673402076E0,4.623780417E0
1.417573054E1,5.723078095E0,2.737624853E0,-2.077812468E0,6.675740960E0
1.418573154E1,8.952698198E0,1.705512938E0,-7.184126548E0,1.160479443E1
1.419573254E1,1.148032732E1,-1.542424153E0,-1.302500733E1,1.743065700E1
1.420573254E1,1.217262011E1,-6.195699765E0,-1.630554206E1,2.127040380E1
1.421573354E1,9.565319168E0,-7.497090579E0,-1.188361446E1,1.699770545E1
1.422573454E1,5.540782376E0,-5.706181980E0,-5.044484160E0,9.418471350E0
1.423573554E1,3.058380885E0,-7.396043676E-1,-2.646921090E0,4.111800033E0
1.424573554E1,6.838932663E-1,3.336626489E0,-2.423400454E0,4.180150247E0
1.425573654E1,-2.094314772E-1,4.215513872E0,6.983461216E-1,4.278096078E0
1.426573754E1,2.138291681E-1,4.838896642E0,1.475705376E0,5.063432629E0
1.427573850E1,1.513034293E0,5.338062333E0,-3.777134666E-1,5.561191393E0
1.428573850E1,2.641536389E0,3.433694946E0,1.610965215E0,4.622032497E0
1.429573950E1,2.654378044E0,-1.423790579E0,3.924722190E0,4.947357545E0
1.430574050E1,1.626933376E0,-4.775552001E0,6.949763128E0,8.587899432E0
1.431574050E1,1.071851347E0,-6.172044854E0,8.510174485E0,1.056721689E1
1.432574150E1,1.212950508E0,-7.908809406E0,7.993991643E0,1.131036770E1
1.433574250E1,1.836752524E0,-9.693190758E0,7.117940744E0,1.216538891E1
1.434574350E1,1.928340386E0,-1.061875179E1,4.741580848E0,1.178808615E1
1.435574350E1,5.528378677E-1,-1.080537503E1,-5.380327177E-1,1.083287766E1
1.436574450E1,-1.349144440E0,-7.331948837E0,-1.831957076E0,7.676830804E0
1.437574550E1,-8.909139365E-1,-4.390405262E0,2.814538543E0,5.290653383E0
1.438574650E1,1.274319375E0,-3.591778514E0,4.916306176E0,6.220516794E0
1.439574650E1,3.550404201E0,-2.696839355E0,4.497982335E0,6.333258054E0
1.440574750E1,4.667016569E0,-1.650377787E0,4.298651923E0,6.556157323E0
1.441574850E1,4.920642471E0,6.101277173E-1,5.175562363E0,7.167386130E0
1.442574850E1,3.422018057E0,2.837509038E0,4.904547426E0,6.619384455E0
1.443574950E1,2.396845617E0,4.448533894E0,2.501496159E0,5.638422275E0
1.444575050E1,1.607476766E0,5.261401827E0,5.585060124E-1,5.529761270E0
1.445575150E1,1.456541419E-2,5.573432059E0,4.367951953E-1,5.590540860E0
1.446575150E1,-1.801661628E0,4.956713945E0,6.981379607E-1,5.319999470E0
1.447575250E1,-2.873647462E0,4.777380133E0,5.791773815E-1,5.605056388E0
1.448575350E1,-3.893678445E0,4.728905253E0,3.343554854E-2,6.125715849E0
1.449575350E1,-5.027597986E0,4.454895665E0,9.019783303E-2,6.717958956E0
1.450575450E1,-6.104131199E0,3.501141409E0,1.742472457E0,7.249456471E0
1.451575550E1,-7.070951934E0,2.727121207E0,3.230857959E0,8.238567502E0
1.452575650E1,-7.823166992E0,2.476354886E0,3.503131217E0,8.922230866E0
1.453575650E1,-8.243944910E0,2.437486689E0,2.974955735E0,9.096940731E0
1.454575750E1,-8.538995996E0,2.355147368E0,2.416975826E0,9.181663460E0
1.455575850E1,-8.781060784E0,2.176497973E0,2.132155613E0,9.294636059E0
1.456575850E1,-8.889935939E0,1.649963220E0,2.209824763E0,9.307881881E0
1.457575950E1,-8.907846546E0,9.388920951E-1,1.721015076E0,9.121027428E0
1.458576050E1,-8.825018982E0,1.217600799E-1,5.608567393E-1,8.843661336E0
1.459576150E1,-8.370826566E0,-9.252540493E-1,-5.392278886E-1,8.439052030E0
1.460576150E1,-7.354045465E0,-2.109784166E0,-1.700458020E0,7.837393151E0
1.461576250E1,-5.253570067E0,-3.096056249E0,-2.897467849E0,6.751361542E0
1.462576350E1,-1.740999105E0,-3.188955057E0,-3.983867653E0,5.391819147E0
1.463576450E1,1.089007663E0,-3.358930693E0,-4.644153956E0,5.834082537E0
1.464576450E1,3.134221610E0,-3.124190127E0,-5.098006648E0,6.750820753E0
1.465576550E1,5.244869995E0,-2.528617299E0,-5.597575212E0,8.076844369E0
1.466576650E1,7.405351274E0,-2.788649704E0,-6.594655289E0,1.030074138E1
1.467576650E1,1.030211336E1,-4.672863200E0,-7.721433041E0,1.369633960E1
1.468576750E1,1.551212401E1,1.992918205E-1,-4.239887406E0,1.608236157E1
1.469576850E1,1.738630515E1,4.788917567E0,-3.399113343E0,1.835132992E1
1.470576950E1,1.401713598E1,5.323339044E0,-8.246292567E0,1.711196601E1
1.471576950E1,1.089284353E1,6.349480952E0,-1.072762928E1,1.655451535E1
1.472577050E1,8.193329072E0,6.500087686E0,-1.153947073E1,1.557373321E1
1.473577150E1,6.053102548E0,4.272618365E0,-1.002392623E1,1.246492741E1
1.474577150E1,6.666804668E0,1.509705766E0,-6.308099037E0,9.301484260E0
1.475577250E1,7.594821526E0,-1.138041828E0,-3.103540685E0,8.283019860E0
1.476577350E1,6.108871536E0,-4.438182861E0,-7.573981027E-1,7.588770021E0
1.477577450E1,3.292035037E0,-7.604652450E0,7.910528487E-1,8.324301663E0
1.478577450E1,1.547404811E0,-9.540288407E0,2.402461283E0,9.959085538E0
1.479577550E1,1.489274132E-1,-9.495859509E0,3.436015121E0,1.009949143E1
1.480577650E1,-1.352310122E0,-8.581308787E0,3.939961495E0,9.538915020E0
1.481577750E1,-2.261496023E0,-8.411929568E0,4.591759395E0,9.846785143E0
1.482577750E1,-2.394315526E0,-7.989997995E0,5.377253296E0,9.924095314E0
1.483577850E1,-2.165235651E0,-7.309320112E0,5.833129710E0,9.598948283E0
1.484577950E1,-1.897961177E0,-6.771030117E0,5.529721783E0,8.945777131E0
1.485577950E1,-1.888714975E0,-6.704177731E0,4.839651518E0,8.481478062E0
1.486578050E1,-2.044983568E0,-6.425281917E0,4.339808135E0,8.018736818E0
1.487578150E1,-1.693002235E0,-5.538485005E0,3.837818824E0,6.947656155E0
1.488578150E1,-1.910716878E0,-4.620776495E0,4.252702748E0,6.564137039E0
1.489578250E1,-2.488475579E0,-3.381628122E0,3.911200796E0,5.738066846E0
1.490578350E1,-3.076882644E0,-2.416570906E0,3.076447027E0,4.977102376E0
1.491578450E1,-3.440376559E0,-1.334470852E0,1.707048417E0,4.065835415E0
1.492578450E1,-3.518438058E0,-2.331840366E-2,1.659942663E-1,3.522428738E0
1.493578550E1,-3.692487448E0,1.063513802E0,-1.370570977E0,4.079704642E0
1.494578650E1,-3.716045880E0,2.351141148E0,-1.821998245E0,4.759888579E0
1.495578750E1,-3.918223302E0,3.479476598E0,-1.180740024E0,5.371534068E0
1.496578750E1,-4.176348052E0,4.544688432E0,-1.060274883E-1,6.173112491E0
1.497578850E1,-4.613643769E0,5.339538170E0,6.345983148E-1,7.085131736E0
1.498578950E1,-5.131945642E0,5.868514135E0,9.558982833E-1,7.854302373E0
1.499578950E1,-5.786571255E0,6.230279029E0,1.601334997E0,8.652459618E0
1.500579050E1,-6.384894614E0,6.670074431E0,2.370035841E0,9.532777246E0
1.501579150E1,-6.756288117E0,7.040723584E0,3.024285478E0,1.021594442E1
1.502579250E1,-6.915444649E0,7.171432827E0,3.801187187E0,1.066310684E1
1.503579250E1,-6.821416744E0,7.046291302E0,4.958111429E0,1.098930464E1
1.504579350E1,-6.260274076E0,6.674796057E0,5.465505906E0,1.065906603E1
1.505579450E1,-5.037976209E0,6.038061755E0,4.974967782E0,9.305358589E0
1.506579450E1,-3.117418467E0,5.059873447E0,2.777553442E0,6.560138742E0
1.507579550E1,-1.707092271E0,4.046785740E0,2.749182460E-1,4.400706635E0
1.508579650E1,-2.633843207E-1,3.251935125E0,-6.081336705E-1,3.318776871E0
1.509579750E1,1.680149471E0,2.615984349E0,-2.304117255E-1,3.117589761E0
1.510579750E1,3.991684796E0,1.661761147E0,-1.060653637E0,4.451964033E0
1.511579850E1,6.089980352E0,1.213940442E-1,-4.377233824E0,7.500851495E0
1.512579950E1,8.839643453E0,-2.633380693E0,-1.073253042E1,1.415136740E1
1.513579950E1,1.167845905E1,-6.431583461E0,-1.796100926E1,2.236849404E1
1.514580050E1,1.084468001E1,-6.899864743E0,-1.182401847E1,1.746489710E1
1.515580150E1,7.190171984E0,-3.243070453E0,-3.538934011E0,8.645237594E0
1.516580250E1,4.392807882E0,1.902871377E0,-4.771708334E0,6.759207127E0
1.517580250E1,3.032649043E0,5.139290915E0,-5.650822881E0,8.218337457E0
1.518580350E1,2.259647718E0,5.817341643E0,-3.569747375E0,7.189615283E0
1.519580450E1,2.767469627E0,6.107460603E0,-2.641556270E0,7.206787265E0
1.520580450E1,4.048822618E0,6.625046192E0,-7.454907596E-3,7.764293736E0
1.521580550E1,3.365214695E0,3.770510355E0,4.804239903E0,6.972957717E0
1.522580650E1,3.140735409E0,-1.586728214E0,6.171197008E0,7.103914262E0
1.523580750E1,3.663829075E0,-5.873671380E0,7.911473397E0,1.051261482E1
1.524580750E1,3.545441669E0,-8.103288968E0,8.744217478E0,1.243763595E1
1.525580850E1,3.208791152E0,-1.013451930E1,9.040987061E0,1.395508041E1
1.526580950E1,3.522724652E0,-1.151143918E1,8.843012034E0,1.493725821E1
1.527581037E1,2.641832843E0,-1.229975963E1,7.287348615E0,1.453852873E1
1.528581138E1,1.030423824E0,-1.044553504E1,3.548738329E0,1.107991513E1
1.529581237E1,-1.068650581E0,-7.066249019E0,5.499282932E-1,7.167727003E0
1.530581337E1,-1.172557358E0,-5.488853838E0,-4.477085848E-1,5.630528412E0
1.531581337E1,7.690152776E-1,-4.292309156E0,-3.007095833E-1,4.371010025E0
1.532581437E1,2.643037369E0,-2.673778228E0,9.923800850E-1,3.888387170E0
1.533581537E1,3.100610061E0,-2.270187324E-1,2.571913007E0,4.034855236E0
1.534581537E1,2.558532239E0,2.512980383E0,3.495856111E0,5.008210017E0
1.535581637E1,6.219016707E-1,4.169248948E0,2.734129972E0,5.024426851E0
1.536581738E1,-1.537152888E0,4.713326517E0,2.568651431E0,5.583570186E0
1.537581837E1,-3.264096456E0,4.610516678E0,2.681027899E0,6.252927339E0
1.538581837E1,-4.422769600E0,4.582125522E0,2.355139182E0,6.789951826E0
1.539581937E1,-5.631124781E0,4.570528740E0,1.903573773E0,7.498192607E0
1.540582037E1,-6.430056168E0,4.644204534E0,1.055595430E0,8.001783538E0
1.541582037E1,-7.187305094E0,4.378919283E0,1.225597451E0,8.504961947E0
1.542582137E1,-7.757120352E0,3.975409363E0,1.651739019E0,8.871585966E0
1.543582238E1,-8.107722327E0,3.567251491E0,1.816141673E0,9.042058123E0
1.544582338E1,-8.405186559E0,2.949887552E0,2.046532495E0,9.139873791E0
1.545582337E1,-8.597019671E0,2.161041735E0,2.115845389E0,9.113487275E0
1.546582437E1,-8.680257710E0,1.360570191E0,1.867594832E0,8.982535032E0
1.547582537E1,-8.606697398E0,8.607920051E-1,1.487846242E0,8.776667330E0
1.548582537E1,-8.345105833E0,6.580690384E-1,1.045988528E0,8.436109188E0
1.549582637E1,-7.858111122E0,1.694546485E-1,3.303314316E-1,7.866876390E0
1.550582737E1,-7.090104489E0,-9.033459941E-1,-5.928421783E-1,7.171964689E0
1.551582838E1,-5.829402110E0,-2.068328868E0,-1.315928746E0,6.323889763E0
1.552582838E1,-3.844806831E0,-2.726941406E0,-2.390764512E0,5.285310204E0
1.553582937E1,-1.338063966E0,-2.527579711E0,-3.692810799E0,4.670752185E0
1.554583037E1,1.088317106E0,-2.600358542E0,-4.837614933E0,5.599001421E0
1.555583037E1,3.723602237E0,-3.393153276E0,-5.992333605E0,7.828586386E0
1.556583137E1,6.904779328E0,-3.285863594E0,-6.990737491E0,1.036066059E1
1.557583237E1,1.026677513E1,-1.054774261E0,-6.834813884E0,1.237876816E1
1.558583337E1,1.255748034E1,1.383386319E0,-6.222947790E0,1.408293823E1
1.559583338E1,1.357931168E1,3.102185593E0,-6.924754586E0,1.555549701E1
1.560583438E1,1.309313324E1,5.102487954E0,-7.346136521E0,1.585658359E1
1.561583537E1,1.152891183E1,6.719296292E0,-7.526917226E0,1.532054939E1
1.562583537E1,9.789181573E0,7.196289926E0,-8.321564943E0,1.472627270E1
1.563583637E1,8.326511688E0,5.921481138E0,-8.537744107E0,1.331494687E1
1.564583737E1,7.402063969E0,4.721859651E0,-8.542739968E0,1.225009860E1
1.565583837E1,7.558364722E0,2.602336948E0,-6.820470080E0,1.050808484E1
1.566583837E1,8.516169051E0,3.387154618E-1,-4.809943569E0,9.786491742E0
1.567583938E1,7.719770678E0,-2.137464300E0,-2.665676619E0,8.442123239E0
1.568584037E1,5.150352677E0,-4.800488622E0,-6.070743012E-1,7.066778821E0
1.569584037E1,2.371725394E0,-7.207811279E0,1.424908567E0,7.720621038E0
1.570584137E1,9.731585330E-1,-9.218025548E0,3.396113137E0,9.871809205E0
1.571584237E1,1.059878004E0,-1.024835055E1,5.314450107E0,1.159290345E1
1.572584337E1,1.221749398E0,-1.027001800E1,6.827093221E0,1.239254385E1
1.573584337E1,2.193565410E-1,-1.092445124E1,7.461138974E0,1.323103726E1
1.574584437E1,1.932036996E-2,-1.058190848E1,6.997933660E0,1.268653758E1
1.575584538E1,-3.071033674E-1,-9.258259655E0,5.897638532E0,1.098143090E1
1.576584538E1,-1.283090199E0,-8.256119982E0,4.355495630E0,9.422323482E0
1.577584637E1,-1.980361310E0,-7.756801094E0,3.010230233E0,8.552852167E0
1.578584737E1,-2.400934575E0,-7.044947612E0,1.830821693E0,7.664703632E0
1.579584837E1,-2.868956240E0,-6.034989628E0,1.884017322E0,6.942732242E0
1.580584837E1,-3.883148779E0,-4.851168779E0,3.262506598E0,7.018306937E0
1.581584937E1,-4.904310029E0,-3.984509677E0,4.413046265E0,7.707369951E0
1.582585037E1,-5.577763676E0,-2.713821423E0,4.319707747E0,7.558845769E0
1.583585038E1,-6.090980811E0,-1.245749002E0,3.270573417E0,7.024855037E0
1.584585137E1,-6.466959701E0,2.758289498E-1,2.179852520E0,6.830037071E0
1.585585237E1,-6.817746447E0,1.811850109E0,1.443895061E0,7.200645831E0
1.586585337E1,-7.365546353E0,3.056118012E0,1.355755302E0,8.088831982E0
1.587585337E1,-7.696594654E0,4.460488234E0,1.407694949E0,9.006393819E0
1.588585437E1,-7.816082506E0,5.952531023E0,8.487338769E-1,9.861243355E0
1.589585537E1,-8.598527083E0,5.916433237E0,1.220511469E0,1.050849649E1
1.590585537E1,-8.701510000E0,5.669270847E0,6.874407721E-1,1.040814503E1
1.591585638E1,-8.000435860E0,5.671842452E0,4.112779462E-1,9.815595769E0
1.592585737E1,-7.086117273E0,5.830426542E0,9.192910588E-1,9.222365625E0
1.593585737E1,-6.493993717E0,6.245415716E0,8.163777244E-1,9.046747728E0
1.594585837E1,-5.491713712E0,6.776803658E0,2.530989222E-1,8.726284798E0
1.595585937E1,-4.021048343E0,7.227017044E0,-4.212357545E-1,8.281065432E0
1.596586037E1,-2.946406120E0,7.150363555E0,1.618420123E-1,7.735321637E0
1.597586037E1,-2.447553840E0,6.393004117E0,2.101129556E0,7.160709940E0
1.598586137E1,-4.777514327E-1,6.033454149E0,2.823666047E0,6.678615526E0
1.599586238E1,1.982619504E0,5.650666176E0,1.563429106E0,6.189112933E0
1.600586237E1,4.059780300E0,5.154848601E0,-5.714135948E-1,6.586409772E0
1.601586337E1,6.283404492E0,4.551713277E0,-2.840914164E0,8.262569760E0
1.602586437E1,8.484325699E0,3.346009516E0,-6.001023152E0,1.091750160E1
1.603586537E1,9.561806746E0,-4.622528028E-1,-7.456747130E0,1.213445111E1
1.604586537E1,9.374358460E0,-6.067846302E0,-8.484747283E0,1.402456031E1
1.605586637E1,8.883511019E0,-7.561221671E0,-1.201443305E1,1.674620681E1
1.606586738E1,6.628499558E0,-6.357996252E0,-8.024762031E0,1.219663595E1
1.607586738E1,2.932785616E0,-3.232600429E0,-2.046855554E0,4.820845845E0
1.608586837E1,3.293157703E-1,1.760441682E-1,-1.657787379E0,1.699323224E0
1.609586937E1,-3.518240422E-1,2.596328349E0,-2.654597899E0,3.729824535E0
1.610587037E1,1.032116008E0,3.860161912E0,-3.252022833E0,5.151870141E0
1.611587037E1,3.673189298E0,4.031600521E0,-3.784938360E0,6.638665586E0
1.612587137E1,6.979117904E0,2.141063553E0,-7.198100808E-1,7.335554949E0
1.613587237E1,7.891905105E0,-2.411772974E0,3.443408341E0,8.941804967E0
1.614587237E1,5.179452515E0,-6.276656805E0,5.730539142E0,9.953000947E0
1.615587338E1,2.459729497E0,-7.360637616E0,6.908435007E0,1.039017466E1
1.616587437E1,1.395097708E0,-8.183426812E0,7.851354665E0,1.142622169E1
1.617587537E1,1.302956114E0,-8.019596601E0,6.577277949E0,1.045333485E1
1.618587537E1,9.647859049E-1,-7.666866240E0,4.401362944E0,8.892898602E0
1.619587637E1,8.258630776E-1,-6.379685914E0,1.763426685E0,6.670241064E0
1.620587737E1,5.083949357E-1,-3.471324118E0,1.082136015E0,3.671454057E0
1.621587737E1,1.431997731E0,-1.475973471E0,2.356655803E0,3.127769455E0
1.622587838E1,2.642516382E0,-5.926840112E-1,2.966117084E0,4.016468315E0
1.623587938E1,3.614396129E0,-2.916503459E-1,3.432880429E0,4.993354318E0
1.624587937E1,3.717719353E0,6.088302201E-1,2.988293234E0,4.808534900E0
1.625588037E1,2.845894237E0,2.162625453E0,2.540371957E0,4.385151370E0
1.626588137E1,1.376335162E0,2.966232274E0,2.167366668E0,3.923048643E0
1.627588187E1,-5.471929657E-1,2.710697548E0,1.451140931E0,3.122997173E0
1.628588187E1,-2.017839623E0,2.352169966E0,6.651020694E-1,3.169659454E0
1.629588287E1,-3.651928237E0,1.854720433E0,6.542529993E-1,4.147844587E0
1.630588388E1,-5.228382016E0,1.555311124E0,7.297792912E-1,5.503412488E0
1.631588388E1,-6.238807778E0,1.581022208E0,9.274618118E-1,6.502502528E0
1.632588487E1,-6.910017264E0,1.461002260E0,1.317581170E0,7.184628475E0
1.633588587E1,-7.403288961E0,1.321705503E0,1.535770022E0,7.675557468E0
1.634588687E1,-7.723698837E0,1.588952202E0,1.867025313E0,8.103460764E0
1.635588687E1,-7.887589860E0,2.095065847E0,2.102379252E0,8.427536604E0
1.636588787E1,-8.104442623E0,2.461864024E0,2.047347597E0,8.714034478E0
1.637588887E1,-8.400615790E0,2.505838886E0,1.159523841E0,8.842741075E0
1.638588887E1,-8.753565422E0,2.482480136E0,-1.032349312E-1,9.099355618E0
1.639588988E1,-9.028596227E0,2.474261290E0,-1.040864028E0,9.419178132E0
1.640589087E1,-9.205649917E0,2.265674736E0,-1.614155456E0,9.616796256E0
1.641589087E1,-9.081609423E0,1.619856199E0,-1.751452757E0,9.389736448E0
1.642589187E1,-8.253748936E0,4.189696661E-1,-1.062895167E0,8.332445812E0
1.643589287E1,-6.183614740E0,-7.790818441E-1,-2.651256216E-1,6.238136850E0
1.644589387E1,-2.992058256E0,-1.242264939E0,-2.621015330E-2,3.239802735E0
1.645589387E1,-6.747219086E-1,-1.927875533E0,-3.482040310E-1,2.072003805E0
1.646589488E1,1.291742324E0,-2.524154704E0,-1.301231185E0,3.119800923E0
1.647589588E1,3.794262330E0,-3.313384683E0,-2.682902516E0,5.707268226E0
1.648589587E1,7.433744769E0,-3.365553834E0,-2.827367919E0,8.636059474E0
1.649589687E1,1.131553875E1,-1.819262040E0,-1.801541761E0,1.160158111E1
1.650589787E1,1.369799846E1,8.295468235E-1,-1.231920630E0,1.377827776E1
1.651589887E1,1.363223599E1,3.510502509E0,-1.228107660E0,1.413045415E1
1.652589887E1,1.228094446E1,5.335787181E0,-2.923544092E0,1.370544898E1
1.653589987E1,1.061352437E1,6.387238178E0,-6.336184384E0,1.391369626E1
1.654590088E1,8.995647166E0,6.505341994E0,-1.074634271E1,1.545072892E1
1.655590088E1,7.000324586E0,4.916685660E0,-1.459100745E1,1.691377665E1
1.656590187E1,4.604316291E0,2.275022387E0,-1.507919850E1,1.592977347E1
1.657590287E1,4.112792911E0,4.515638003E-1,-1.225402855E1,1.293368436E1
1.658590387E1,5.429164876E0,-8.555333117E-1,-7.974500535E0,9.685062069E0
1.659590387E1,5.887572550E0,-3.519804260E0,-4.948816110E0,8.458328053E0
1.660590487E1,4.755825250E0,-6.410490800E0,-2.531375431E0,8.373776190E0
1.661590587E1,3.580517946E0,-8.789546263E0,2.485201869E-1,9.494103147E0
1.662590588E1,3.359743456E0,-1.064769316E1,3.017512940E0,1.156575247E1
1.663590688E1,2.180055419E0,-1.149857531E1,5.644648806E0,1.299353439E1
1.664590787E1,1.249731249E0,-1.111975175E1,7.588191953E0,1.352003566E1
1.665590787E1,1.996239424E-3,-9.946615516E0,8.484119292E0,1.307346337E1
