"Time (s)","Linear Acceleration x (m/s^2)","Linear Acceleration y (m/s^2)","Linear Acceleration z (m/s^2)","Absolute acceleration (m/s^2)"
1.622125001E-3,1.517647746E-1,8.435690314E-2,4.527808982E-1,4.849321352E-1
1.164512500E-2,3.576055498E-1,-1.482891896E-1,4.177800500E-1,5.695714031E-1
2.166812500E-2,1.791180494E-1,-4.204042804E-1,3.287152612E-1,5.629180736E-1
3.169112500E-2,-2.551347765E-1,-1.118160126E-1,4.532317185E-1,5.319920728E-1
4.171412500E-2,-3.711107907E-1,2.080222982E-1,4.628492188E-1,6.286699411E-1
5.173712500E-2,-1.782320501E-1,7.421052217E-2,4.676223010E-1,5.059095588E-1
6.176012500E-2,1.217944323E-1,-1.500439391E-1,2.730895293E-1,3.345518770E-1
7.178312500E-2,1.318265001E-1,-1.989363098E-1,-1.061638016E-1,2.611984576E-1
8.180612500E-2,4.711247832E-3,1.245661587E-2,-5.519058216E-1,5.520664806E-1
9.182912500E-2,-4.105240940E-1,-4.789454341E-2,-9.630387568E-1,1.047982617E0
1.018511250E-1,-3.461442031E-1,-4.956830889E-1,-1.145988779E0,1.295688163E0
1.118741250E-1,2.271454708E-1,-6.238467470E-1,-1.472636465E0,1.615375494E0
1.218971250E-1,2.332618046E-1,-7.205737272E-1,-1.329988376E0,1.530524958E0
1.319201250E-1,1.651624998E-1,-8.376446325E-1,-1.461627327E0,1.692714278E0
1.419431250E-1,9.432377458E-2,-8.496176836E-1,-1.531538392E0,1.753954682E0
1.519661250E-1,1.046189672E-1,-8.308206394E-1,-1.460076061E0,1.683160767E0
1.619891250E-1,1.184268746E-1,-7.688775757E-1,-1.453773932E0,1.648834830E0
1.720121250E-1,1.904204249E-2,-7.075727355E-1,-1.439709039E0,1.604301684E0
1.820351250E-1,-8.368476570E-2,-7.649657884E-1,-1.608802330E0,1.783373414E0
1.920581250E-1,-3.813787937E-2,-8.240095103E-1,-1.825504235E0,2.003225370E0
2.020811250E-1,1.304981589E-2,-8.480316263E-1,-2.078309188E0,2.244704217E0
2.121041250E-1,-1.394502461E-2,-5.597735426E-1,-2.623691272E0,2.682777809E0
2.221271250E-1,-2.680664787E-1,-5.159781897E-1,-2.984680240E0,3.040790894E0
2.321501250E-1,-6.325798559E-1,-9.263506946E-1,-3.262256922E0,3.449725077E0
2.421731250E-1,-7.235496676E-1,-1.172077301E0,-3.346386661E0,3.618783360E0
2.521951250E-1,-6.997129083E-1,-1.336953287E0,-2.900617744E0,3.269652205E0
2.622181250E-1,-6.326506072E-1,-1.545966689E0,-2.323518609E0,2.861642626E0
2.722411250E-1,1.272321966E-1,-1.525993769E0,-2.305581105E0,2.767769725E0
2.822641250E-1,2.937325394E-1,-1.354344369E0,-2.286760672E0,2.673911338E0
2.922871250E-1,6.502606666E-1,-1.054871910E0,-2.216088885E0,2.539024149E0
3.023101250E-1,9.408666998E-1,-1.009280585E0,-1.572467147E0,2.092015864E0
3.123331250E-1,8.710930449E-1,-1.200369931E0,-1.035227312E0,1.808697501E0
3.223561250E-1,5.963709730E-1,-1.078178327E0,-8.110222596E-1,1.475087776E0
3.323791250E-1,5.467602718E-1,-5.291464117E-1,-9.579049015E-1,1.223325190E0
3.424021250E-1,1.153574372E0,2.246666899E-1,-1.610909082E0,1.994050406E0
3.524251250E-1,1.579473281E-1,7.249804813E-1,-3.007908304E0,3.098073017E0
3.624481250E-1,-1.916867564E0,1.050051758E0,-4.553010482E0,5.050435070E0
3.724711250E-1,-2.122260370E0,5.941127783E-1,-5.644596766E0,6.059573560E0
3.824941250E-1,-1.975753119E0,-8.443830369E-1,-5.765003216E0,6.152385324E0
3.925171250E-1,-2.251143528E0,-2.949298153E0,-3.627383965E0,5.188826573E0
4.025401250E-1,-2.570830103E0,-4.964436362E0,-6.172747689E-1,5.624573224E0
4.125621250E-1,-2.748633406E0,-6.157501659E0,1.420929537E0,6.891215643E0
4.225851250E-1,-2.622310159E0,-6.348061833E0,2.316596675E0,7.248518453E0
4.326081250E-1,-1.949875097E0,-4.518901919E0,2.448875896E0,5.497224808E0
4.426311250E-1,-4.304275775E-1,-1.678752278E0,2.001348428E0,2.647427552E0
4.526541250E-1,4.813784605E-1,-1.087262415E0,1.321436531E0,1.777655559E0
4.626771250E-1,8.798504198E-1,-9.496685135E-1,1.140169338E0,1.725106711E0
4.727001250E-1,1.183105150E0,-1.739784638E0,1.190109529E0,2.417219286E0
4.827231250E-1,1.625134188E0,-1.765012304E0,1.626146341E0,2.898392914E0
4.927461250E-1,1.823214465E0,-1.569809880E0,2.351901871E0,3.364499436E0
5.027691250E-1,1.933392965E0,-1.302714624E0,2.494618079E0,3.414409628E0
5.127921250E-1,1.822344984E0,-1.016839573E0,1.795127365E0,2.752705254E0
5.228151250E-1,1.789337452E0,-7.477710275E-1,8.166863112E-1,2.104249642E0
5.328381250E-1,2.066252815E0,-2.884380318E-1,-1.149037810E-1,2.089449705E0
5.428611250E-1,2.829634300E0,3.170538667E-1,-3.354987623E-1,2.867039038E0
5.528841250E-1,3.808372831E0,3.416152422E-1,2.877701336E-1,3.834477310E0
5.629071250E-1,4.451151400E0,-3.803578699E-1,1.348685287E0,4.666516142E0
5.729291250E-1,4.169923131E0,-9.369224605E-1,2.225855489E0,4.818766987E0
5.829521250E-1,4.350232551E0,2.610509893E-1,1.424295194E0,4.584897782E0
5.929751250E-1,5.076223431E0,1.535859776E0,1.372983538E0,5.478320306E0
6.029981250E-1,5.355449029E0,1.950618278E0,1.187801633E0,5.822080271E0
6.130211250E-1,5.185287452E0,2.093901081E0,7.213487756E-1,5.638436995E0
6.230441250E-1,6.407960125E0,2.453357202E0,1.284403483E0,6.980731110E0
6.330671250E-1,6.994547537E0,2.396392457E0,1.309581009E0,7.508754522E0
6.430901250E-1,5.677429467E0,1.793626092E0,5.161973872E-1,5.976350028E0
6.531131250E-1,4.346340060E0,1.721832517E0,-2.794267416E-2,4.675057211E0
6.631365000E-1,3.937678742E0,2.450873012E0,-5.036915085E-1,4.665382893E0
6.731595000E-1,4.258605512E0,3.204598113E0,-1.549365237E0,5.550288516E0
6.831825000E-1,5.487689658E0,3.978949560E0,-2.435874027E0,7.202795267E0
6.932055000E-1,5.667840033E0,3.876993999E0,-3.553103861E0,7.731755309E0
7.032285000E-1,3.864200292E0,2.295826195E0,-4.079892967E0,6.070287344E0
7.132515000E-1,2.501694379E0,8.269722944E-1,-4.018808860E0,4.805536660E0
7.232745000E-1,2.680899845E0,6.516827095E-1,-3.993494217E0,4.853855209E0
7.332965000E-1,2.817714166E0,1.166435907E0,-3.993930126E0,5.025093402E0
7.433205000E-1,2.208939494E0,1.107767869E0,-3.902991597E0,4.619513692E0
7.533425000E-1,1.224401695E0,4.288920987E-1,-3.609868630E0,3.835917031E0
7.633655000E-1,8.615954125E-1,9.461672008E-2,-3.103927186E0,3.222679468E0
7.733885000E-1,7.623208004E-1,-1.060217142E-1,-2.256161754E0,2.383828741E0
7.834115000E-1,4.948872828E-1,-5.966680115E-1,-1.068260280E0,1.319888694E0
7.934345000E-1,5.614280123E-1,-9.283612597E-1,-4.066659549E-1,1.158634213E0
8.034575000E-1,7.189151645E-2,-9.178473812E-1,-1.740362343E-1,9.369636152E-1
8.134805000E-1,-4.803522742E-1,-7.391278195E-1,6.496987492E-2,8.838944086E-1
8.235035000E-1,-7.272825301E-1,-6.195271164E-1,-5.572981238E-3,9.553977102E-1
8.335265000E-1,-1.237764922E0,-3.677898645E-1,-2.604680219E-1,1.317260406E0
8.435495000E-1,-1.775441544E0,8.566755652E-3,-5.281003448E-1,1.852337993E0
8.535725000E-1,-2.004437220E0,3.197181505E-1,-8.110202131E-1,2.185804669E0
8.635955000E-1,-1.999388149E0,5.907120377E-1,-8.204181504E-1,2.240441837E0
8.736185000E-1,-2.074474584E0,1.001159679E0,-9.074808526E-1,2.475739688E0
8.836415000E-1,-2.287858195E0,1.511914551E0,-9.821810791E-1,2.912878371E0
8.936645000E-1,-2.148498580E0,1.882052658E0,-1.110863678E0,3.064667432E0
9.036875000E-1,-2.430514469E0,1.836851342E0,-1.240417804E0,3.289385925E0
9.137095000E-1,-3.052556473E0,1.871949838E0,-1.164530300E0,3.765425346E0
9.237325000E-1,-3.129863681E0,2.192032855E0,-1.090646345E0,3.973734282E0
9.337555000E-1,-3.276283808E0,2.508303487E0,-8.175933605E-1,4.206433273E0
9.437785000E-1,-3.009444952E0,2.522597591E0,-1.093177897E-1,3.928384897E0
9.538015000E-1,-2.100641459E0,2.025823996E0,7.631303474E-1,3.016459072E0
9.638245000E-1,-1.555207336E0,1.365060561E0,9.551368296E-1,2.279110913E0
9.738475000E-1,-2.746172313E0,7.879737049E-1,2.736850974E0,3.956351626E0
9.838705000E-1,-1.245096745E0,2.099289583E0,3.903053578E0,4.603380268E0
9.938935000E-1,3.241005217E0,2.625194006E0,3.567875097E0,5.488669337E0
1.003916500E0,3.077657985E0,7.791496718E-1,4.515712847E0,5.520028569E0
1.013939500E0,3.389879420E0,7.739164138E-1,4.353380692E0,5.571548488E0
1.023962500E0,5.425540187E0,1.604499949E0,3.900338423E0,6.871939044E0
1.033985500E0,5.348089138E0,7.932344449E-1,2.979621813E0,6.173283119E0
1.044008500E0,4.589964885E0,-4.625048178E-1,2.342082057E0,5.173686955E0
1.054031500E0,4.828080463E0,-7.247904468E-1,1.597777990E0,5.136981278E0
1.064054500E0,5.306420125E0,-8.027870411E-1,9.452018255E-1,5.449400708E0
1.074077500E0,5.473225985E0,-1.630446968E0,8.986027327E-1,5.781180405E0
1.084099500E0,5.505321352E0,-2.244427416E0,1.006123088E0,6.029784514E0
1.094122500E0,5.228492528E0,-2.305292838E0,6.224770367E-1,5.747955014E0
1.104145500E0,4.129518871E0,-1.759320186E0,4.435051677E-1,4.510524411E0
1.114168500E0,3.742434949E0,-4.193663996E-1,1.608355603E-1,3.769291128E0
1.124191500E0,3.968354990E0,-1.933837938E-1,2.033111966E-1,3.978262694E0
1.134214500E0,3.624267399E0,-7.606449884E-1,-4.849709898E-2,3.703545186E0
1.144237500E0,2.866886911E0,-1.032487307E0,-1.252696664E0,3.294589433E0
1.154260500E0,1.894910100E0,-9.072001863E-1,-2.755279644E0,3.464861091E0
1.164283500E0,1.636346809E0,-1.117813970E0,-2.645247617E0,3.305219192E0
1.174306500E0,1.824886769E0,-1.403876132E0,-3.728827894E0,4.382378050E0
1.184329500E0,1.722044771E0,-9.068066686E-1,-3.124184865E0,3.680797141E0
1.194352500E0,1.596274670E0,-9.104529923E-1,-1.202582810E0,2.196183710E0
1.204375500E0,2.333013902E0,-1.057488831E0,-2.693402946E-2,2.561632671E0
1.214398500E0,2.316865062E0,-9.812136573E-1,8.802065152E-1,2.665597019E0
1.224421500E0,2.042466926E0,-4.060657382E-1,1.335435643E0,2.473853044E0
1.234444500E0,2.391713516E0,-3.611561984E-1,1.914012369E0,3.084504934E0
1.244467500E0,2.336394178E0,-8.876482666E-1,2.672229886E0,3.658889143E0
1.254490500E0,1.513718417E0,-9.328045589E-1,2.445949949E0,3.023927735E0
1.264513500E0,2.946751106E-1,-3.092615747E-1,1.836403737E0,1.885432266E0
1.274535500E0,-5.748105347E-1,-3.811606926E-1,5.857328412E-1,9.048610864E-1
1.284558500E0,-1.466502151E0,-1.487611769E0,-6.430805781E-1,2.185673801E0
1.294581500E0,-1.188485173E0,-1.553988191E0,4.442603356E-1,2.006176351E0
1.304604500E0,-3.230942159E0,-8.327785796E-1,1.838996100E0,3.809778741E0
1.314627500E0,-4.224837257E0,-1.371372045E0,-2.033907187E0,4.885354601E0
1.324650500E0,-4.243730780E0,-1.707512393E0,-2.057260674E0,5.015692474E0
1.334673500E0,-4.324192561E0,-1.950207511E0,-1.625860997E0,5.014516389E0
1.344696500E0,-3.758728800E0,-1.293607001E0,-1.045717801E0,4.110351200E0
1.354719500E0,-3.254170223E0,-2.495348981E-1,-1.344385976E-1,3.266491274E0
1.364742500E0,-3.334788709E0,2.871421427E-2,5.936695594E-1,3.387341699E0
1.374765500E0,-3.030182687E0,-9.170539141E-2,1.237604416E0,3.274458991E0
1.384788500E0,-2.081314073E0,1.652487463E-1,9.089865106E-1,2.277154341E0
1.394811500E0,-1.888834258E0,1.830520561E-1,-2.042584455E-1,1.908644656E0
1.404834500E0,-1.885112506E0,7.579321727E-1,9.342447281E-2,2.033921943E0
1.414857500E0,-1.358258495E0,7.876123470E-1,1.467212588E-2,1.570163883E0
1.424880500E0,-9.223754650E-1,9.605092514E-1,-3.547543743E-1,1.378116536E0
1.434903500E0,-1.720452574E0,2.022359813E0,-1.183326759E0,2.906915632E0
1.444926500E0,-2.523236691E0,1.478879537E0,-1.071894324E0,3.114926248E0
1.454949500E0,-2.339215459E0,9.713979363E-3,-1.386240053E0,2.719133099E0
1.464972500E0,-1.770304765E0,-1.053106928E-1,-1.269403329E0,2.180929644E0
1.474994500E0,-1.576090667E0,7.303613815E-1,-5.853732374E-1,1.833071565E0
1.485017500E0,-1.631998819E0,9.422179914E-1,-7.109141269E-1,2.014098752E0
1.495040500E0,-1.450200698E0,1.495315183E0,-7.517753470E-1,2.214546395E0
1.505063500E0,-9.225497121E-1,2.193818010E0,-2.633124000E-1,2.394424535E0
1.515086500E0,-1.550754097E0,6.355724609E-1,-9.200687385E-1,1.911888361E0
1.525109500E0,-7.836923736E-1,1.325154483E0,-3.463288289E-1,1.578021482E0
1.535132500E0,-3.965757072E-2,1.415673475E0,2.890471655E-1,1.445424634E0
1.545155500E0,3.505399936E-1,1.043573335E0,5.190509015E-1,1.217102063E0
1.555178500E0,6.428317791E-1,1.063292485E0,6.159562218E-1,1.386804122E0
1.565201500E0,6.394900954E-1,3.571423772E-1,3.630699921E-1,8.175072347E-1
1.575224500E0,9.576587337E-1,1.362497726E-1,2.262232187E-1,9.934038431E-1
1.585247500E0,1.561244586E0,5.935070068E-2,1.915179473E-1,1.574066799E0
1.595270500E0,1.705403010E0,-5.248352596E-1,-1.967278165E-1,1.795147156E0
1.605293500E0,1.344689446E0,-4.969428715E-1,-3.891017962E-1,1.485443413E0
1.615316500E0,5.910260332E-1,-1.478257978E-1,-7.992354423E-2,6.144526111E-1
1.625339500E0,1.985585797E-1,8.892240912E-2,-3.119931015E-1,3.803582519E-1
1.635362500E0,9.435002857E-1,7.991331160E-2,-6.992653039E-1,1.177094258E0
1.645385500E0,1.770659106E0,-4.857691348E-1,-9.729655749E-1,2.077947866E0
1.655408500E0,1.082774531E0,-9.290687728E-1,-3.520023823E-1,1.469515276E0
1.665431250E0,-1.654007739E-1,-5.512538570E-1,2.814551407E-1,6.406677978E-1
1.675454250E0,-8.295754749E-1,-5.410329241E-1,7.912694880E-1,1.267682727E0
1.685476250E0,-4.749512011E-1,1.079630483E0,-8.519919455E-2,1.182556352E0
1.695499250E0,9.796793479E-1,1.768757592E0,-6.586525905E-1,2.126522579E0
1.705522250E0,1.707970523E0,7.992693561E-1,1.565840498E-1,1.892224451E0
1.715545250E0,1.307314628E0,-6.479650497E-2,6.605827564E-1,1.466164964E0
1.725568250E0,8.671496826E-1,3.766893268E-1,1.103357899E0,1.453011381E0
1.735591250E0,8.631899482E-1,1.715640315E0,2.960936451E-1,1.943242143E0
1.745614250E0,1.198807847E0,2.578515099E0,-2.173012447E-1,2.851859078E0
1.755637250E0,1.752016429E0,2.629130936E0,-4.922659761E-1,3.197532930E0
1.765660250E0,2.589934126E0,2.124562418E0,-7.923444986E-1,3.442286167E0
1.775683250E0,2.654480370E0,1.173413975E0,-5.496879727E-1,2.953865816E0
1.785706250E0,2.248278392E0,6.365173709E-1,-3.122129568E-1,2.357411085E0
1.795729250E0,1.768363490E0,4.585754889E-1,-1.660650176E-1,1.834387773E0
1.805752250E0,1.205344450E0,4.730157727E-1,-9.415069699E-2,1.298254027E0
1.815775250E0,9.923181045E-1,5.502627540E-1,-1.873968297E-1,1.150044299E0
1.825798250E0,1.384282113E0,8.312302369E-1,-4.723287249E-1,1.682342147E0
1.835821250E0,1.815617763E0,4.075626254E-1,-6.502027792E-1,1.971126279E0
1.845844250E0,1.981543617E0,-2.788928908E-1,-1.884586841E-1,2.009928612E0
1.855867250E0,1.584939258E0,-6.469838870E-1,5.241830027E-1,1.790359858E0
1.865890250E0,1.134060459E0,1.455640948E-1,5.576779005E-1,1.272118969E0
1.875913250E0,7.141321421E-1,1.350860597E0,-6.432463467E-2,1.529361543E0
1.885936250E0,2.630118531E-1,2.401258510E0,-7.078846845E-1,2.517204480E0
1.895959250E0,-3.770044917E-1,3.195121531E0,-1.135504721E0,3.411789114E0
1.905981250E0,-1.354275371E0,3.503766224E0,-1.579935796E0,4.075124128E0
1.916004250E0,-1.439160571E0,3.136374555E0,-2.066841629E0,4.022420020E0
1.926027250E0,-1.732718278E0,3.478886322E0,-2.611857092E0,4.682601856E0
1.936050250E0,-1.771944324E0,3.313718267E0,-3.011246479E0,4.815404531E0
1.946073250E0,-7.267130113E-1,2.455732926E0,-3.184032286E0,4.086171509E0
1.956096250E0,-1.115765691E-2,8.982141852E-1,-1.982625352E0,2.176629619E0
1.966119250E0,9.867351830E-2,-1.726039588E-2,1.392800921E-1,1.715614425E-1
1.976142250E0,6.394205135E-1,5.802227175E-1,1.329820561E0,1.585540829E0
1.986165250E0,9.479856849E-1,9.556005138E-1,1.700731377E0,2.168948229E0
1.996188250E0,-1.722502023E-1,9.105442089E-1,1.948356867E0,2.157511384E0
2.006211250E0,-1.947906924E0,1.409927416E-1,1.052171081E0,2.218396791E0
2.016234250E0,-1.817377775E0,-2.415781825E0,-1.268139745E-1,3.025714062E0
2.026257250E0,-5.429607511E-1,-4.984401680E0,-2.756216660E-2,5.013963119E0
2.036280250E0,1.116414732E-1,-3.606121442E0,1.058474964E0,3.759912888E0
2.046303250E0,3.154303873E-1,-6.790225357E0,3.365384849E0,7.585016276E0
2.056326250E0,3.308138269E-1,-8.645697742E0,3.425066795E0,9.305300090E0
2.066349250E0,-1.159757218E0,-6.829660149E0,1.823375264E0,7.163378526E0
2.076372250E0,-2.759309253E0,-5.136633940E0,7.556467885E-1,5.879608648E0
2.086395250E0,-2.417172292E0,-5.105806249E0,-2.039585564E-1,5.652749635E0
2.096418250E0,-2.115134368E0,-1.904041989E0,8.334511556E-2,2.847124110E0
2.106441250E0,-1.834080931E0,1.776139702E0,-1.102458597E0,2.780996235E0
2.116464250E0,-1.387796289E0,1.428216629E0,-2.543504310E0,3.230355314E0
2.126487250E0,3.535583264E-1,2.418174505E0,-2.334954008E0,3.380026871E0
2.136509250E0,2.169708771E0,1.586770898E0,-1.305076314E0,2.988093409E0
2.146532250E0,4.038604023E0,-6.118181473E-1,3.035170874E-2,4.084796828E0
2.156555250E0,4.505512379E0,-1.581769190E0,1.330384233E0,4.956970625E0
2.166578250E0,2.840353416E0,-1.423560784E0,1.383784515E0,3.465399315E0
2.176601250E0,1.271332033E0,-9.007238102E-1,3.262547894E-1,1.591863910E0
2.186624250E0,9.350042814E-1,-4.270625049E-1,-5.564677461E-1,1.168876273E0
2.196647250E0,3.237404501E-1,-5.078759953E-1,-7.105828822E-1,9.314901707E-1
2.206670250E0,-2.090531623E-1,-3.445410427E-1,-9.324624968E-1,1.015823834E0
2.216693250E0,-3.576484537E-1,-2.705775654E-1,-1.475652459E0,1.542295307E0
2.226716250E0,-1.024871893E0,-1.560887906E-1,-1.698446578E0,1.989835894E0
2.236739250E0,-1.796727163E0,8.390462101E-2,-1.371905311E0,2.262165482E0
2.246762250E0,-2.028288013E0,7.633826548E-1,-7.464929724E-1,2.292151194E0
2.256785250E0,-2.073778766E0,1.215240862E0,-1.116221043E-1,2.406206188E0
2.266808250E0,-2.352831286E0,7.728416955E-1,7.642069660E-2,2.477688331E0
2.276831250E0,-2.630947666E0,7.483801612E-1,1.942771753E-1,2.742207525E0
2.286854250E0,-2.475708184E0,9.505871111E-1,8.473667979E-2,2.653286108E0
2.296877250E0,-2.166565892E0,1.177344473E0,-3.109689617E-1,2.485326833E0
2.306900250E0,-1.950874971E0,1.184459950E0,-6.555114663E-1,2.374563919E0
2.316923250E0,-1.988169681E0,1.127983740E0,-8.701839490E-1,2.445891679E0
2.326946250E0,-1.908154628E0,1.014764981E0,-1.184278613E0,2.464410251E0
2.336969250E0,-2.004561766E0,1.230428420E0,-1.587340125E0,2.837581830E0
2.346992250E0,-1.884796171E0,1.424468856E0,-1.707806508E0,2.915162294E0
2.357015250E0,-1.821811134E0,1.612411816E0,-1.381769564E0,2.797883986E0
2.367037250E0,-1.497654362E0,1.901709535E0,-1.243075948E0,2.721158862E0
2.377060250E0,-1.315780812E0,2.131792208E0,-1.226461523E0,2.789269623E0
2.387083250E0,-1.269728141E0,2.167141258E0,-9.587303822E-1,2.688470705E0
2.397106250E0,-5.819727892E-1,1.911065665E0,-8.532046580E-1,2.172285085E0
2.407129250E0,2.325466901E-1,1.962848606E0,-5.224792702E-1,2.044465016E0
2.417152250E0,4.440784872E-1,2.475286892E0,1.010632753E-1,2.516836245E0
2.427175250E0,8.191481352E-2,2.314757141E0,-5.764686589E-1,2.386865470E0
2.437198250E0,-7.760249197E-2,2.214354601E0,-9.132682805E-1,2.396549060E0
2.447221250E0,7.586411476E-2,2.209184493E0,-4.992972529E-1,2.266175023E0
2.457244250E0,3.563182122E-1,1.808439429E0,-5.818963368E-1,1.932878470E0
2.467267250E0,6.225384325E-1,1.873196172E0,-8.592822540E-1,2.152854847E0
2.477290250E0,6.695003450E-1,1.784536888E0,-9.728734812E-1,2.139926500E0
2.487313250E0,6.214204448E-1,1.145742904E0,-1.182730197E0,1.760040025E0
2.497336250E0,7.427104086E-1,4.166240555E-1,-1.435071320E0,1.668719284E0
2.507359250E0,8.784242839E-1,-4.665607390E-1,-1.747223905E0,2.010497331E0
2.517382250E0,8.849936306E-1,-1.408336973E0,-1.774627173E0,2.432268151E0
2.527405250E0,5.022968745E-1,-2.346153181E0,-1.751085552E0,2.970359828E0
2.537428250E0,-2.535352707E-3,-2.801821434E0,-1.721239317E0,3.288293564E0
2.547451250E0,-3.042657137E-1,-3.059760535E0,-2.084744049E0,3.714952208E0
2.557474250E0,-5.298308283E-1,-3.117277549E0,-2.610013465E0,4.100037842E0
2.567497250E0,-7.066611546E-1,-2.621342445E0,-2.579929248E0,3.745242465E0
2.577520250E0,-6.183594275E-1,-2.194499211E0,-2.317261796E0,3.250830263E0
2.587543250E0,-3.218383509E-1,-1.683139152E0,-1.847219625E0,2.519674120E0
2.597566250E0,-2.822924620E-1,-1.094316788E0,-1.527228117E0,1.899906310E0
2.607588250E0,-2.489194787E-1,-4.810127172E-1,-1.514703088E0,1.608620399E0
2.617611250E0,-5.307926953E-2,1.004966801E-1,-1.557805839E0,1.561946229E0
2.627634250E0,-1.551201993E-1,7.193602838E-1,-1.665619140E0,1.820941683E0
2.637657250E0,-4.468670243E-1,9.979448801E-1,-1.710815778E0,2.030387832E0
2.647680250E0,-3.592488366E-1,1.039180322E0,-1.709678202E0,2.032721088E0
2.657702292E0,3.239421791E-1,1.544860980E0,-1.535809783E0,2.202327331E0
2.667725292E0,1.306322356E0,2.331807622E0,-9.427141276E-1,2.834169157E0
2.677748292E0,9.750559545E-1,1.341927075E0,-2.099793321E0,2.675936169E0
2.687771292E0,6.700844818E-1,7.038435276E-1,-2.877567435E0,3.037236123E0
2.697794292E0,8.058346099E-1,3.882992658E-1,-2.509677583E0,2.664324926E0
2.707817292E0,1.284579484E0,2.699101058E-1,-1.128671080E0,1.731154044E0
2.717840292E0,1.976310359E0,1.782283956E-1,2.306729499E-1,1.997693171E0
2.727863292E0,2.504765337E0,-1.865130231E-1,9.776863244E-1,2.695274949E0
2.737886292E0,2.779151779E0,-5.289484835E-1,7.388351664E-1,2.923926899E0
2.747909292E0,2.797534255E0,-1.015018750E0,-2.232019624E-1,2.984339138E0
2.757932292E0,2.486320880E0,-1.505682881E0,-1.315612120E0,3.190565421E0
2.767955292E0,2.099738064E0,-1.941387278E0,-1.970172536E0,3.472673945E0
2.777978292E0,1.472606059E0,-2.487702577E0,-1.623673261E0,3.315651908E0
2.788001292E0,3.808262318E-1,-2.547825987E0,-7.417043951E-1,2.680778113E0
2.798024292E0,-5.683628100E-1,-2.095423696E0,1.558130944E-1,2.176721037E0
2.808047292E0,-9.949645543E-1,-1.208329453E0,1.083766803E0,1.903829041E0
2.818070292E0,-1.032073324E0,-2.844348818E-1,1.991974757E0,2.261424768E0
2.828093292E0,-8.097966832E-1,2.474983129E-1,2.855531326E0,2.978436710E0
2.838116292E0,-3.643598878E-1,4.102622849E-1,3.592469948E0,3.634131753E0
2.848138292E0,1.272032529E-1,3.255887550E-1,4.045211670E0,4.060286462E0
2.858161292E0,5.592125022E-1,1.553444400E-1,4.256377431E0,4.295765281E0
2.868184292E0,8.772291130E-1,-2.730035752E-2,4.186881519E0,4.277879507E0
2.878207292E0,1.114847678E0,-3.490147474E-1,4.117709250E0,4.280213325E0
2.888230292E0,1.244156513E0,-8.283463901E-1,4.100038964E0,4.363989308E0
2.898253292E0,1.069949833E0,-1.317836693E0,3.744236476E0,4.111057405E0
2.908276292E0,5.832012892E-1,-1.564280168E0,2.887489868E0,3.335370133E0
2.918299292E0,-3.057742953E-1,-1.512332920E0,1.743292383E0,2.328028589E0
2.928322292E0,-1.163827465E0,-1.327668786E0,8.625985023E-1,1.965012710E0
2.938345292E0,-1.898166414E0,-1.302286608E0,5.073205099E-1,2.357193298E0
2.948368292E0,-2.295955419E0,-1.396805679E0,5.520438159E-1,2.743579736E0
2.958391292E0,-2.300833166E0,-1.475017451E0,7.175306900E-1,2.825660990E0
2.968414292E0,-2.189702155E0,-1.415647747E0,6.940459330E-1,2.698250142E0
2.978437292E0,-1.788286123E0,-9.707904106E-1,6.771473336E-1,2.144511550E0
2.988460292E0,-1.469399446E0,-5.045989233E-1,6.770012994E-1,1.694722858E0
2.998483292E0,-1.332814921E0,1.161631250E-1,4.073147035E-1,1.398497319E0
3.008506292E0,-1.147144189E0,9.051367038E-1,1.067350745E-2,1.461275527E0
3.018529292E0,-7.040357548E-1,1.488101181E0,-1.952386768E-1,1.657778516E0
3.028552292E0,-3.342853189E-2,1.821636302E0,-1.616546090E-1,1.829100461E0
3.038575292E0,7.689228916E-1,1.934002245E0,-2.985822201E-2,2.081465496E0
3.048598292E0,1.142040154E0,2.081478964E0,8.051265121E-2,2.375561550E0
3.058621292E0,1.115994902E0,2.366376361E0,2.065390789E-1,2.624469488E0
3.068644292E0,9.777480125E-1,2.640825952E0,3.031513806E-1,2.832287705E0
3.078667292E0,8.772811532E-1,2.829556532E0,2.947184531E-1,2.977057500E0
3.088690292E0,8.839218360E-1,2.870643747E0,7.722870871E-2,3.004642675E0
3.098713292E0,1.154688267E0,2.745605133E0,-9.344318390E-2,2.979997344E0
3.108736292E0,1.509332421E0,2.450555216E0,-1.937954378E-1,2.884590421E0
3.118759292E0,1.662610747E0,2.156030379E0,-1.882978857E-1,2.729138616E0
3.128781292E0,1.194699594E0,1.854634479E0,1.689237213E-1,2.212580257E0
3.138804292E0,1.116479051E-1,1.723094931E0,4.150178254E-1,1.775883214E0
3.148827292E0,-8.938778901E-1,1.627681820E0,5.891712964E-1,1.948201377E0
3.158850292E0,-2.154648682E0,1.344881819E0,3.485068437E-1,2.563722893E0
3.168873292E0,-2.730309986E0,7.051017022E-1,-7.945547462E-2,2.821005885E0
3.178896292E0,-2.280840951E0,-9.918631911E-3,-8.668017002E-1,2.440016191E0
3.188919292E0,-1.095530232E0,-3.745738041E-1,-1.778197922E0,2.121904774E0
3.198942292E0,-1.385088444E-1,-5.188953656E-1,-2.370229676E0,2.430313934E0
3.208965292E0,1.521679401E-2,-4.962602091E-1,-2.222233139E0,2.277021272E0
3.218988292E0,-3.509112918E-1,-5.514614332E-1,-1.638817842E0,1.764361745E0
3.229011292E0,-6.867508006E-1,-7.739819026E-1,-1.128117349E0,1.530791756E0
3.239034292E0,-6.974921358E-1,-9.541837335E-1,-1.669026897E0,2.045143677E0
3.249057292E0,-4.855019170E-1,-1.024180752E0,-3.046468352E0,3.250481156E0
3.259080292E0,-2.140317741E-1,-1.355107430E0,-1.557039853E0,2.075210556E0
3.269103292E0,1.131091243E-1,-1.575271472E0,2.399990030E-1,1.597458420E0
3.279126292E0,5.331461996E-1,-1.731403239E0,7.168423265E-1,1.948297967E0
3.289149292E0,8.601166517E-1,-1.557255031E0,1.191604443E-1,1.782987128E0
3.299172292E0,9.796246764E-1,-7.213201243E-1,-7.404943138E-1,1.424183646E0
3.309195292E0,1.083517712E0,-4.900726855E-2,-1.104902807E0,1.548296663E0
3.319218292E0,1.233455524E0,5.182697135E-1,-1.008108437E0,1.675201076E0
3.329241292E0,1.668183436E0,8.927838761E-1,-7.932209232E-1,2.051608749E0
3.339264292E0,2.053256793E0,1.348976625E0,-5.178890598E-1,2.510739029E0
3.349287292E0,2.052344043E0,1.997045170E0,-4.828344903E-1,2.904037642E0
3.359310292E0,1.354766538E0,2.418859799E0,-8.205872811E-1,2.891303959E0
3.369333292E0,2.951832336E-1,1.886282533E0,-1.030893209E0,2.169777810E0
3.379356292E0,-4.983932734E-1,1.450646256E0,-1.675213251E0,2.271367397E0
3.389379292E0,-6.718374771E-1,1.093908799E0,-2.287060050E0,2.622717241E0
3.399402292E0,-1.953706777E-1,6.275144130E-1,-2.622434120E0,2.703535603E0
3.409425292E0,5.382028717E-1,4.347299588E-1,-3.036203565E0,3.114030275E0
3.419448292E0,8.570299065E-1,3.758227694E-1,-3.134111098E0,3.270840166E0
3.429471292E0,9.354466233E-1,2.732450652E-1,-2.751757573E0,2.919228150E0
3.439493292E0,1.216785112E0,3.041932082E-1,-1.764070610E0,2.164496393E0
3.449516292E0,2.137915120E0,8.294702250E-1,-7.230656643E-1,2.404480374E0
3.459539292E0,4.861696106E0,4.319182667E0,3.510859774E-1,6.512656086E0
3.469562292E0,5.216687000E0,3.767693751E0,2.084361349E-1,6.438383732E0
3.479585292E0,3.344296574E0,8.558294731E-1,-4.653518271E-1,3.483290970E0
3.489608292E0,2.648802432E0,-1.072821400E0,4.747424555E-1,2.896977818E0
3.499631292E0,4.157277066E0,-2.069923112E0,1.703903199E0,4.946799006E0
3.509654292E0,4.713116017E0,-2.268054260E0,2.096243184E0,5.634870735E0
3.519677292E0,3.212245102E0,-1.963671017E0,1.119392719E0,3.927793594E0
3.529700292E0,1.658898642E0,-1.804729078E0,3.458288920E-1,2.475598791E0
3.539723292E0,7.399265492E-1,-1.326169560E0,4.214673042E-2,1.519208132E0
3.549746292E0,2.533396813E-1,-1.010111766E0,2.582786782E-1,1.072946714E0
3.559769292E0,-9.835016727E-2,-1.323534220E0,6.753849828E-1,1.489147562E0
3.569792292E0,-5.275480753E-1,-1.790435559E0,1.328463423E0,2.291021940E0
3.579815292E0,-1.005940363E0,-2.342289340E0,1.658491969E0,3.041189073E0
3.589838292E0,-1.542435263E0,-2.758118759E0,1.319307852E0,3.424455992E0
3.599861292E0,-2.092418812E0,-3.095717695E0,6.307683885E-1,3.789400123E0
3.609884292E0,-2.388337041E0,-3.027342110E0,-1.173021626E-1,3.857812057E0
3.619907292E0,-1.832744550E0,-2.353537045E0,-1.958536577E-1,2.989389212E0
3.629930292E0,-5.951070973E-1,-7.346014899E-1,3.001714933E-1,9.919146796E-1
3.639953292E0,-2.212182945E-1,-1.428229201E-1,5.510228920E-1,6.107062697E-1
3.649976292E0,-1.000428777E0,-1.488036277E0,7.462463661E-1,1.942162027E0
3.659999875E0,-1.143118819E0,-2.530505950E0,1.355992699E0,3.090128993E0
3.670022875E0,-2.382104494E-1,-1.834804816E0,1.760712408E0,2.554087139E0
3.680045875E0,4.784697631E-1,-1.137527273E0,1.947167397E0,2.305290109E0
3.690068875E0,3.987779148E-1,-1.427835683E0,2.272284428E0,2.713119070E0
3.700091875E0,5.365966415E-1,-1.761928629E0,2.385688545E0,3.013940656E0
3.710114875E0,3.604266851E-1,-1.059271063E0,1.965544319E0,2.261708878E0
3.720137875E0,1.132409790E-1,-1.316387168E0,2.262472946E0,2.620015750E0
3.730160875E0,1.140681773E-1,-6.873571569E-1,2.792945653E0,2.878544221E0
3.740183875E0,-8.553602341E-1,-3.537904608E-1,3.377894090E0,3.502424489E0
3.750205875E0,-9.537731127E-1,5.954547143E-1,3.902144921E0,4.060909313E0
3.760228875E0,-1.866149839E-2,1.477272137E0,3.669820425E0,3.956041351E0
3.770251875E0,3.484805677E-1,1.366000793E0,3.252078966E0,3.544490722E0
3.780274875E0,5.103851818E-1,1.004756886E0,3.023300222E0,3.226511067E0
3.790297875E0,3.220399337E-1,4.231284982E-1,2.810556882E0,2.860415604E0
3.800320875E0,-3.083441466E-2,-5.899255872E-3,2.907958046E0,2.908127500E0
3.810343875E0,-5.867492335E-1,-3.170290160E-1,2.887879292E0,2.963887458E0
3.820366875E0,-1.238643758E0,-6.451425987E-1,2.705376582E0,3.044586964E0
3.830389875E0,-2.199988284E0,-1.007071799E0,2.236921637E0,3.295141950E0
3.840412875E0,-2.849703698E0,-1.142438350E0,1.820649292E0,3.569417375E0
3.850435875E0,-3.056930190E0,-7.423356020E-1,1.394641917E0,3.441062396E0
3.860458875E0,-3.321081666E0,3.349244195E-1,9.381588542E-1,3.467261143E0
3.870481875E0,-3.364886082E0,1.583728300E0,7.493955302E-1,3.793711551E0
3.880504875E0,-3.297788697E0,2.369217523E0,5.950182196E-1,4.103979611E0
3.890527875E0,-2.942827039E0,2.903252499E0,4.326749548E-1,4.156478518E0
3.900550875E0,-1.887514980E0,3.446258858E0,3.039210203E-1,3.941038049E0
3.910573875E0,-8.349300626E-1,3.697243574E0,6.773268431E-2,3.790950536E0
3.920596875E0,-1.003148317E-2,3.520273499E0,-2.750334361E-1,3.531015368E0
3.930619875E0,6.370285638E-1,2.938048110E0,-7.919457185E-1,3.108876020E0
3.940642875E0,9.005406462E-1,2.076876036E0,-1.578984454E0,2.759996273E0
3.950665875E0,7.508033936E-1,1.069225363E0,-2.305235827E0,2.649728445E0
3.960688875E0,2.594988459E-1,3.300630444E-1,-3.100352491E0,3.128652559E0
3.970711875E0,-2.126002295E-1,1.425434232E-1,-3.768396002E0,3.777079019E0
3.980734875E0,-9.117493200E-1,4.112463713E-2,-3.760638209E0,3.869803328E0
3.990757875E0,-1.613465192E0,1.486145872E-1,-3.084477593E0,3.484158183E0
4.000780875E0,-2.166980606E0,3.229697871E-1,-2.385626272E0,3.239031821E0
4.010803875E0,-2.575269894E0,5.416591609E-1,-1.815960994E0,3.197362039E0
4.020826875E0,-2.820036095E0,9.219433558E-1,-1.452667054E0,3.303456478E0
4.030849875E0,-2.796681731E0,1.344257922E0,-1.222746348E0,3.335201148E0
4.040872875E0,-2.463395702E0,1.494778701E0,-1.186803221E0,3.116277208E0
4.050895875E0,-1.681568005E0,8.938422221E-1,-1.344950232E0,2.331419310E0
4.060918875E0,-5.302810639E-1,-6.978546631E-1,-1.437894356E0,1.683965355E0
4.070941875E0,8.658913618E-1,-2.285445049E0,-1.622755541E0,2.933660251E0
4.080963875E0,1.872877207E0,-3.563849289E0,-2.276657561E0,4.625133559E0
4.090986875E0,2.668912468E0,-3.626573541E0,-3.182492715E0,5.513926848E0
4.101009875E0,3.159039825E0,-2.606381759E0,-3.763201920E0,5.561874431E0
4.111032875E0,2.994832175E0,-1.125738702E0,-3.734246801E0,4.917408520E0
4.121055875E0,2.182377056E0,4.002623767E-1,-3.292452528E0,3.970292588E0
4.131078875E0,9.257102783E-1,1.774078558E0,-2.385278070E0,3.113494134E0
4.141101875E0,-3.534586313E-1,2.752350481E0,-1.203258748E0,3.024598782E0
4.151124875E0,-1.177663146E0,3.126838916E0,-7.361001313E-2,3.342069797E0
4.161147875E0,-1.358044487E0,2.904537717E0,9.341900566E-1,3.339660947E0
4.171170875E0,-1.125029288E0,2.070823583E0,1.546633564E0,2.818878605E0
4.181193875E0,-7.856908058E-1,9.732520884E-1,1.615288354E0,2.042960141E0
4.191216875E0,-4.811008640E-1,5.315235972E-2,1.296163696E0,1.383590814E0
4.201239875E0,-3.114395164E-1,-5.371527117E-1,8.955127716E-1,1.089711307E0
4.211262875E0,-5.248851071E-1,-1.139401891E0,5.954544219E-1,1.388634946E0
4.221285875E0,-1.046855377E0,-2.175820280E0,6.756109777E-1,2.507299397E0
4.231308875E0,-1.838309637E0,-3.800628778E0,1.226107328E0,4.396305337E0
4.241331875E0,-3.123963548E0,-5.830828246E0,1.938243523E0,6.893075818E0
4.251354875E0,-4.470678177E0,-6.815474803E0,2.557417175E0,8.542718699E0
4.261377875E0,-5.588509689E0,-5.237953908E0,2.241610812E0,7.980753142E0
4.271400875E0,-5.896515867E0,-1.961912760E0,1.037560059E0,6.300359666E0
4.281423875E0,-5.249670559E0,1.299677580E0,-3.535358146E-1,5.419703899E0
4.291446875E0,-3.853446093E0,3.872496906E0,-1.454851866E0,5.653483265E0
4.301469875E0,-2.632569099E0,5.219132890E0,-2.022927285E0,6.185628746E0
4.311492875E0,-2.129749191E0,4.823499169E0,-1.480903551E0,5.476773793E0
4.321515875E0,-1.345633625E0,3.818628847E0,-3.318328504E-1,4.062360049E0
4.331538875E0,1.553223668E-1,2.476133861E0,9.219889641E-1,2.646776829E0
4.341561875E0,9.743882024E-1,6.517791885E-1,2.411258419E0,2.681122086E0
4.351584875E0,1.260501235E0,-1.264434072E0,4.072342458E0,4.446530106E0
4.361607875E0,1.343799646E0,-2.299783591E0,5.356768745E0,5.982455469E0
4.371630875E0,1.820624149E0,-2.381955097E0,5.971764854E0,6.682092326E0
4.381653875E0,2.289035239E0,-1.946574928E0,6.017563756E0,6.726061985E0
4.391676875E0,2.769796234E0,-1.272990888E0,5.595749127E0,6.372180574E0
4.401698875E0,3.224184824E0,-5.564286429E-1,5.022279943E0,5.994020057E0
4.411721875E0,3.480199606E0,6.158930719E-2,4.571294725E0,5.745634691E0
4.421744875E0,3.427358903E0,4.015680599E-1,4.221495574E0,5.452437146E0
4.431767875E0,3.080314375E0,1.700686061E-1,3.782531061E0,4.881065581E0
4.441790875E0,2.374442448E0,-4.902492714E-1,2.958637033E0,3.825160700E0
4.451813875E0,1.677424960E0,-1.233964816E0,1.970911771E0,2.867214131E0
4.461836875E0,1.226122238E0,-1.814161221E0,1.092188694E0,2.446923134E0
4.471859875E0,7.844573356E-1,-2.248003573E0,4.900189642E-1,2.430845935E0
4.481882875E0,1.465680617E-1,-2.341622173E0,4.302622475E-2,2.346599210E0
4.491905875E0,-4.944823632E-1,-1.935436567E0,-3.450500429E-1,2.027186978E0
4.501928875E0,-8.920972668E-1,-1.034789355E0,-6.527083111E-1,1.514151473E0
4.511951875E0,-1.092803675E0,2.568564892E-2,-9.483763520E-1,1.447168729E0
4.521974875E0,-1.309916493E0,9.893032801E-1,-1.268014323E0,2.074237817E0
4.531997875E0,-1.555029434E0,1.659863141E0,-1.523576238E0,2.737616982E0
4.542020875E0,-1.775717533E0,2.098917115E0,-1.679211577E0,3.221548903E0
4.552043875E0,-1.966586147E0,2.312448660E0,-1.843608384E0,3.551587216E0
4.562066875E0,-2.100620263E0,2.297623630E0,-2.043652157E0,3.724002413E0
4.572089875E0,-2.239882083E0,2.060470503E0,-2.108240501E0,3.702335539E0
4.582112875E0,-2.271407492E0,1.699019605E0,-1.898193896E0,3.413077743E0
4.592135875E0,-2.023746334E0,1.378514419E0,-1.506509385E0,2.874964653E0
4.602158875E0,-1.222782601E0,1.059463436E0,-9.643596429E-1,1.883520529E0
4.612181875E0,-2.941136317E-1,6.666480732E-1,-3.233621353E-1,7.971734770E-1
4.622204875E0,2.700157942E-1,2.566190922E-1,1.713444686E-1,4.100253828E-1
4.632227875E0,6.995866084E-1,-1.010083115E-1,4.375167418E-1,8.312911650E-1
4.642250875E0,1.069036351E0,-4.059476244E-1,4.996398997E-1,1.247907137E0
4.652273875E0,1.353003602E0,-6.556377661E-1,4.667680228E-1,1.574278252E0
4.662297000E0,1.602522859E0,-8.005744547E-1,2.683491733E-1,1.811355915E0
4.672320000E0,1.699938787E0,-7.608227438E-1,1.286385616E-2,1.862473787E0
4.682343000E0,1.514767408E0,-6.326126003E-1,-2.321251059E-1,1.657890547E0
4.692366000E0,8.967725542E-1,-5.094983053E-1,-3.315155293E-1,1.083370704E0
4.702389000E0,3.013327503E-1,-3.038909072E-1,-4.169170741E-1,5.974704650E-1
4.712412000E0,-5.182533413E-2,1.096469879E-2,-5.560539094E-1,5.585714279E-1
4.722435000E0,-3.673875761E-1,3.027425140E-1,-7.705256865E-1,9.057242927E-1
4.732457000E0,-7.149000277E-1,5.601351929E-1,-1.060303681E0,1.396093614E0
4.742480000E0,-1.005233800E0,8.605721498E-1,-1.357440469E0,1.895712015E0
4.752503000E0,-1.169128696E0,1.193506177E0,-1.634252336E0,2.337113519E0
4.762526000E0,-1.168982297E0,1.457491592E0,-1.780107622E0,2.580617077E0
4.772549000E0,-1.019003773E0,1.497425736E0,-1.780970671E0,2.540178942E0
4.782572000E0,-6.404815639E-1,1.413283718E0,-1.727914206E0,2.322342568E0
4.792595000E0,-2.986482936E-1,6.908964765E-1,-1.501911135E0,1.679960059E0
4.802618000E0,-1.650060868E-1,-1.837171769E-1,-1.047631595E0,1.076341474E0
4.812641000E0,3.276955068E-2,-7.058448833E-1,-1.086299817E0,1.295892795E0
4.822664000E0,1.364740133E-1,-1.153790134E0,-1.319127758E0,1.757826747E0
4.832687000E0,1.756926043E-1,-1.430919505E0,-1.665686383E0,2.202932057E0
4.842710000E0,1.633814380E-1,-1.544185919E0,-2.041804729E0,2.565184242E0
4.852733000E0,7.782088548E-2,-1.428201719E0,-2.386105451E0,2.781962520E0
4.862756000E0,-9.258919805E-3,-1.158325819E0,-2.671282929E0,2.911624447E0
4.872779000E0,-1.259576498E-1,-8.407214373E-1,-2.961836630E0,3.081420790E0
4.882802000E0,-2.129778866E-1,-4.522675127E-1,-3.247912533E0,3.286159050E0
4.892825000E0,-3.479232185E-1,-1.030910897E-1,-3.568315392E0,3.586718985E0
4.902848000E0,-5.187541553E-1,2.649274009E-1,-3.888236441E0,3.931624985E0
4.912871000E0,-7.348149864E-1,4.714650911E-1,-4.055905935E0,4.148807702E0
4.922894000E0,-9.272577439E-1,5.908237195E-1,-4.172780081E0,4.315202567E0
4.932917000E0,-9.010837063E-1,5.296934187E-2,-3.907620546E0,4.010518162E0
4.942940000E0,-6.192087355E-1,-3.342905813E-1,-3.448320002E0,3.519386379E0
4.952963000E0,-1.594899698E-1,-9.804821706E-1,-2.803157230E0,2.973965836E0
4.962986000E0,4.442543422E-1,-1.609480022E0,-2.069182562E0,2.658816341E0
4.973009000E0,1.022370600E0,-2.180991558E0,-1.332464965E0,2.752712971E0
4.983032000E0,1.489598799E0,-2.448472438E0,-7.059369770E-1,2.951655277E0
4.993055000E0,1.748862733E0,-3.363474564E0,3.135660025E-1,3.803919773E0
5.003078000E0,1.951004048E0,-3.851929910E0,1.034771229E0,4.440104990E0
5.013101000E0,2.252324958E0,-4.090509757E0,1.351637400E0,4.861292158E0
5.023124000E0,2.506907172E0,-3.940616384E0,1.286576893E0,4.844411332E0
5.033146000E0,2.695527239E0,-3.447343517E0,9.850783744E-1,4.485579542E0
5.043169000E0,2.515314884E0,-2.830079273E0,7.518519455E-1,3.860238205E0
5.053192000E0,1.256787084E0,-2.266963170E0,7.135456663E-1,2.688453683E0
5.063215000E0,1.296475352E-1,-1.615313205E0,8.259927396E-1,1.818875817E0
5.073238000E0,-5.565341851E-1,-8.370008540E-1,1.049422597E0,1.453130592E0
5.083261000E0,-1.146418111E0,-6.770023227E-2,1.333376692E0,1.759758850E0
5.093284000E0,-1.677038021E0,3.792638558E-1,1.590947857E0,2.342522717E0
5.103307000E0,-2.239493535E0,4.570136976E-1,1.804275334E0,2.911975669E0
5.113330000E0,-2.880350125E0,3.326153541E-1,1.907799702E0,3.470842768E0
5.123353000E0,-3.703987460E0,-4.259462714E-2,1.850497574E0,4.140734074E0
5.133376000E0,-4.804883974E0,-7.181012321E-1,1.644163367E0,5.128923138E0
5.143399000E0,-5.594750422E0,-1.061903479E0,1.312993444E0,5.844041673E0
5.153422000E0,-5.512701123E0,-9.379360753E-1,9.615477169E-1,5.673990814E0
5.163445000E0,-4.585677706E0,-4.960970718E-1,6.146826982E-1,4.653212562E0
5.173468000E0,-2.919962672E0,-3.422960043E-3,3.651480925E-1,2.942707402E0
5.183491000E0,-1.618710583E0,1.857245260E-1,4.812338881E-1,1.698912477E0
5.193514000E0,-1.024368448E0,-8.891276121E-3,8.932308957E-1,1.359143555E0
5.203537000E0,-4.975406031E-1,-2.991605097E-1,1.350321046E0,1.469833524E0
5.213560000E0,6.699827403E-2,-3.779979336E-1,1.652571663E0,1.696574286E0
5.223583000E0,4.980310383E-1,-4.017475694E-1,1.919617802E0,2.023454603E0
5.233606000E0,9.201418287E-1,-4.768626559E-1,2.154561851E0,2.390856697E0
5.243629000E0,1.148098308E0,-5.171435398E-1,2.436255265E0,2.742427189E0
5.253652000E0,1.080296042E0,-3.802292311E-1,2.852206014E0,3.073547292E0
5.263675000E0,9.635845944E-1,-1.983872563E-1,3.448552136E0,3.586135052E0
5.273698000E0,1.127702489E0,-1.685740578E-1,3.868872509E0,4.033398643E0
5.283721000E0,1.489220046E0,-9.696788549E-2,3.953377639E0,4.225680285E0
5.293743000E0,1.848980221E0,-8.260420024E-2,3.738412942E0,4.171484464E0
5.303766000E0,1.999273544E0,-2.963889295E-1,3.137591068E0,3.732213661E0
5.313789000E0,1.905748791E0,-5.635511363E-1,2.282928407E0,3.026752460E0
5.323812000E0,1.620934718E0,-7.581657690E-1,1.420058594E0,2.284471734E0
5.333835000E0,1.157542585E0,-6.034180373E-1,8.687173212E-1,1.568020391E0
5.343858000E0,6.537368363E-1,1.170934170E-1,8.459298447E-1,1.075490596E0
5.353881000E0,2.830841750E-1,8.126454467E-1,1.409067875E0,1.651060734E0
5.363904000E0,-3.731049836E-2,1.273448725E0,2.098196446E0,2.454687771E0
5.373927000E0,-2.949256638E-1,1.612807088E0,2.519200066E0,3.005743972E0
5.383950000E0,-3.636187533E-1,1.995597399E0,2.543098806E0,3.252995407E0
5.393973000E0,-2.977539620E-1,2.561351767E0,2.607127571E0,3.666918934E0
5.403996000E0,-1.411088088E-1,3.111212817E0,2.447164416E0,3.960829530E0
5.414019000E0,6.902930439E-3,3.576123179E0,1.918025605E0,4.058020067E0
5.424042000E0,1.792025417E-1,3.744937558E0,1.100995624E0,3.907539152E0
5.434065000E0,4.148912331E-1,3.473216277E0,3.928723732E-1,3.519902661E0
5.444088000E0,5.560526669E-1,2.974831190E0,-1.444636488E-1,3.029799485E0
5.454111000E0,6.360995874E-1,2.448088861E0,-6.882184517E-1,2.621336757E0
5.464134000E0,5.583976927E-1,1.882029853E0,-1.318124084E0,2.364592027E0
5.474157000E0,3.121170625E-1,1.333469224E0,-2.045703652E0,2.461800289E0
5.484180000E0,-1.238501671E-1,7.139643270E-1,-2.827546552E0,2.918921620E0
5.494203000E0,-7.555418310E-1,8.495127261E-2,-3.506407996E0,3.587890357E0
5.504226000E0,-1.503027076E0,-5.460504198E-1,-3.592419369E0,3.932268859E0
5.514249000E0,-2.286595196E0,-1.114214424E0,-2.839258817E0,3.812004985E0
5.524272000E0,-2.888498220E0,-1.336727293E0,-1.715144179E0,3.615519517E0
5.534295000E0,-3.071717506E0,-8.146896333E-1,-9.097027946E-1,3.305559985E0
5.544318000E0,-2.768470962E0,2.310316765E-1,-6.975251725E-1,2.864323388E0
5.554341000E0,-2.180762639E0,1.335960138E0,-1.141212481E0,2.800514436E0
5.564363000E0,-1.586678805E0,1.962210968E0,-1.953802671E0,3.191420748E0
5.574386000E0,-8.199266919E-1,1.550921912E0,-2.670005020E0,3.194771567E0
5.584409000E0,1.587653536E-1,4.711774081E-1,-3.066627797E0,3.106673564E0
5.594432000E0,1.112231049E0,-8.036196846E-1,-3.516683601E0,3.774907423E0
5.604455000E0,2.057474974E0,-1.828139575E0,-3.902613575E0,4.775530368E0
5.614478000E0,2.735984709E0,-2.311953401E0,-4.030617604E0,5.392274022E0
5.624501000E0,3.008814330E0,-1.959954527E0,-3.734406722E0,5.180750813E0
5.634524000E0,3.051000821E0,-9.266375005E-1,-2.960649060E0,4.351172937E0
5.644547000E0,2.839064397E0,4.418050897E-1,-1.864309866E0,3.425073673E0
5.654570000E0,2.277962367E0,1.673515220E0,-6.986279574E-1,2.911674219E0
5.664593000E0,1.523393805E0,2.336089538E0,2.649630690E-1,2.801472549E0
5.674616000E0,7.878623155E-1,2.220826299E0,1.086625799E0,2.594908882E0
5.684639000E0,4.123748839E-1,1.691224097E0,1.510922863E0,2.305033599E0
5.694662000E0,4.414560109E-2,7.919872338E-1,1.455140719E0,1.657295123E0
5.704685000E0,-3.657211196E-1,-4.643437672E-1,9.667020375E-1,1.133084243E0
5.714708000E0,-7.628499734E-1,-1.779862624E0,1.876652169E-1,1.945525450E0
5.724731000E0,-1.078750331E0,-2.957335736E0,-6.518391225E-1,3.214721010E0
5.734754000E0,-1.677205397E0,-4.016439568E0,-1.049068548E0,4.477203320E0
5.744777000E0,-2.797431929E0,-4.914937343E0,-6.667775890E-1,5.694455798E0
5.754800000E0,-4.330008202E0,-5.371038875E0,1.977005008E-1,6.901892140E0
5.764823000E0,-5.538420101E0,-4.837788010E0,1.208415115E0,7.452419549E0
5.774846000E0,-5.807638189E0,-3.056025041E0,2.520185322E0,7.029885094E0
5.784869000E0,-5.451167364E0,-4.108879369E-1,3.343645486E0,6.408121384E0
5.794892000E0,-4.529890006E0,2.418620063E0,3.301103192E0,6.104662870E0
5.804915000E0,-3.599893280E0,4.506542659E0,2.566655776E0,6.313151371E0
5.814937000E0,-2.978902606E0,4.914067277E0,1.540241972E0,5.949307798E0
5.824960000E0,-2.421009528E0,3.641241281E0,8.761552718E-1,4.459548549E0
5.834983000E0,-1.238552542E0,2.201776071E0,5.766234639E-1,2.591201436E0
5.845006000E0,2.244901040E-1,6.232120317E-1,9.646385550E-1,1.170178014E0
5.855029000E0,8.195287889E-1,-1.218442213E0,2.320223118E0,2.745844894E0
5.865052000E0,1.028417060E0,-2.598478078E0,4.203216008E0,5.047450325E0
5.875075000E0,1.507963588E0,-3.187696736E0,5.403824798E0,6.452649619E0
5.885098000E0,2.112315133E0,-3.124594755E0,5.523029644E0,6.687961128E0
5.895121000E0,2.771294875E0,-2.690300998E0,5.071425791E0,6.374727782E0
5.905144000E0,3.373807179E0,-2.045465378E0,4.503037545E0,5.986973411E0
5.915167000E0,3.716005535E0,-1.206556578E0,3.904438491E0,5.523505756E0
5.925190000E0,3.726956200E0,-2.369841421E-1,3.245059676E0,4.947400964E0
5.935213000E0,3.304495454E0,2.636193788E-1,2.550385898E0,4.182541525E0
5.945236000E0,2.465493098E0,1.676262242E-1,1.817684169E0,3.067691397E0
5.955259000E0,1.448309563E0,-1.629379267E-1,9.029666559E-1,1.714496468E0
5.965282000E0,7.436618967E-1,-3.774032718E-1,1.173349071E-1,8.421601550E-1
5.975305000E0,7.119613633E-2,-4.919543195E-1,-4.247980244E-1,6.538664266E-1
5.985328000E0,-5.373146796E-1,-4.275454849E-1,-7.032843145E-1,9.829094738E-1
5.995351000E0,-9.903937858E-1,-1.961237991E-1,-7.998732273E-1,1.288076696E0
6.005374000E0,-1.310913882E0,3.240561998E-1,-8.781114578E-1,1.610772286E0
6.015397000E0,-1.485605589E0,9.298189706E-1,-1.002662998E0,2.019138522E0
6.025420000E0,-1.568524370E0,1.469708179E0,-1.079351644E0,2.405267303E0
6.035443000E0,-1.596739816E0,1.815107886E0,-1.082593267E0,2.648811594E0
6.045466000E0,-1.574752970E0,2.025164430E0,-1.038700412E0,2.767677082E0
6.055489000E0,-1.514060626E0,2.097278141E0,-9.867444655E-1,2.768504979E0
6.065511000E0,-1.326192510E0,1.919318717E0,-9.524061799E-1,2.519850877E0
6.075534000E0,-9.743177435E-1,1.573023217E0,-9.039082038E-1,2.059307444E0
6.085557000E0,-4.396620852E-1,1.065868476E0,-7.842542911E-1,1.394429328E0
6.095580000E0,1.032290840E-1,4.007611442E-1,-5.041364451E-1,6.522417449E-1
6.105603000E0,5.371801937E-1,-2.652291173E-1,-4.891780615E-2,6.010840181E-1
6.115626000E0,9.631660800E-1,-8.012170637E-1,4.808902180E-1,1.341973577E0
6.125649000E0,1.433176384E0,-1.094200575E0,7.010109901E-1,1.934602247E0
6.135672000E0,1.882427903E0,-1.138373950E0,8.359974718E-1,2.353363940E0
6.145695000E0,2.232567801E0,-9.556765276E-1,8.147112679E-1,2.561529047E0
6.155718000E0,2.368863181E0,-7.186029232E-1,6.064451408E-1,2.548662128E0
6.165741000E0,2.433000413E0,-4.740928298E-1,3.311909723E-1,2.500788372E0
6.175764000E0,2.267691879E0,-1.971669424E-1,-3.421733955E-2,2.276504357E0
6.185787000E0,1.459928857E0,-1.609416872E-1,-4.033029288E-1,1.523137468E0
6.195810000E0,4.544094940E-1,-2.470284891E-1,-7.965615106E-1,9.497480207E-1
6.205833000E0,-1.645605290E-1,-9.607969344E-2,-1.248654191E0,1.263110749E0
6.215856000E0,-5.686887923E-1,2.786490619E-1,-1.654355063E0,1.771423980E0
6.225879000E0,-9.388827395E-1,6.882166976E-1,-1.940092705E0,2.262543419E0
6.235902000E0,-1.277248976E0,1.016082358E0,-2.075290271E0,2.640192799E0
6.245925000E0,-1.511885754E0,1.169620886E0,-2.067909915E0,2.816036748E0
6.255948000E0,-1.624411911E0,1.238678842E0,-1.981574607E0,2.845993192E0
6.265971000E0,-1.528649721E0,1.148966181E0,-1.870270518E0,2.674846737E0
6.275994000E0,-1.307147106E0,1.015205861E0,-1.847315226E0,2.480292330E0
6.286017000E0,-1.002489044E0,8.144194919E-1,-1.927289057E0,2.320066055E0
6.296039000E0,-6.937990344E-1,4.885237581E-1,-2.044375457E0,2.213477710E0
6.306062000E0,-3.257230948E-1,1.589974880E-1,-2.250769891E0,2.279767715E0
6.316085000E0,6.461100206E-2,-6.812824845E-2,-2.426823122E0,2.428638817E0
6.326108000E0,4.003503773E-1,-2.030784774E-1,-2.467906829E0,2.508402959E0
6.336131000E0,6.398302571E-1,-2.485189444E-1,-2.292638294E0,2.393185068E0
6.346154000E0,8.087264965E-1,-1.953174680E-1,-1.931811440E0,2.103350398E0
6.356177000E0,9.436178148E-1,1.244229019E-2,-1.485378279E0,1.759806245E0
6.366200000E0,1.008380406E0,9.054179549E-2,-1.164055067E0,1.542742059E0
6.376223000E0,8.442357601E-1,-1.961664838E-1,-7.600210905E-1,1.152756421E0
6.386246000E0,6.449537337E-1,-2.038889015E-1,-6.235304126E-1,9.199598786E-1
6.396269000E0,3.792419288E-1,-2.938582546E-1,-7.787235560E-1,9.146515680E-1
6.406292000E0,9.966111302E-2,-4.902030784E-1,-1.209180223E0,1.308567235E0
6.416315000E0,-1.720202605E-1,-8.088418329E-1,-1.937853806E0,2.106915626E0
6.426338000E0,-2.876356477E-1,-1.203387387E0,-2.956230612E0,3.204711360E0
6.436361000E0,-1.156843843E-1,-1.439917785E0,-4.094032120E0,4.341410497E0
6.446384000E0,3.927878809E-1,-1.877561996E0,-5.061798935E0,5.413070277E0
6.456407000E0,9.088624035E-1,-2.720893630E0,-5.543390234E0,6.241671916E0
6.466430000E0,1.296555021E0,-3.214047799E0,-5.183045629E0,6.234991593E0
6.476453000E0,1.311650485E0,-3.676974201E0,-3.420853876E0,5.190646155E0
6.486476000E0,9.666361101E-1,-3.733998002E0,-1.093015344E0,4.008966075E0
6.496499000E0,5.354431321E-1,-3.042087033E0,7.303653283E-1,3.174023689E0
6.506522000E0,4.014356205E-1,-1.841694006E0,1.788588278E0,2.598467894E0
6.516545000E0,4.626936829E-1,-7.723388350E-1,2.486995064E0,2.644945589E0
6.526568000E0,3.049556851E-1,-8.552196085E-2,2.914633520E0,2.931791352E0
6.536590000E0,-1.495166664E-1,2.208481658E-1,3.000851884E0,3.012680065E0
6.546613000E0,-8.085519572E-1,2.495521474E-1,2.737179295E0,2.864992677E0
6.556636000E0,-1.469548112E0,1.600318605E-1,2.356969945E0,2.782173461E0
6.566659000E0,-2.088853619E0,-6.598465919E-2,2.083313820E0,2.950908316E0
6.576682000E0,-2.700554383E0,-3.191158873E-1,1.938701068E0,3.339669258E0
6.586705000E0,-3.240981243E0,-7.001064259E-1,1.893547114E0,3.818328050E0
6.596728000E0,-3.582538159E0,-1.234589884E0,1.739458948E0,4.169473501E0
6.606751000E0,-3.653636793E0,-1.803646758E0,1.299517951E0,4.276792063E0
6.616774000E0,-3.119740104E0,-2.015539913E0,6.835910384E-1,3.776569364E0
6.626797000E0,-2.073185420E0,-1.880183303E0,2.374800590E-1,2.808840297E0
6.636820000E0,-1.077139569E0,-1.644769723E0,8.921338119E-2,1.968109783E0
6.646843000E0,-5.085291293E-1,-1.532465175E0,2.406293694E-1,1.632468647E0
6.656866000E0,-3.506583998E-1,-1.490242431E0,5.886077709E-1,1.640196002E0
6.666889542E0,-2.702328721E-1,-1.337914277E0,1.044386390E0,1.718657427E0
6.676912542E0,-7.826293498E-2,-1.138569247E0,1.360792239E0,1.776012538E0
6.686935542E0,2.383952214E-1,-9.065745342E-1,1.485728527E0,1.756729610E0
6.696958542E0,5.532340166E-1,-5.346430868E-1,1.566321870E0,1.745071720E0
6.706981542E0,7.862544774E-1,-1.364412689E-1,1.788334362E0,1.958303376E0
6.717004542E0,8.752919304E-1,1.777881002E-1,2.163640676E0,2.340744657E0
6.727027542E0,7.863221589E-1,3.864974463E-1,2.577098026E0,2.721969333E0
6.737050542E0,4.629038903E-1,4.705459088E-1,3.012062750E0,3.083539440E0
6.747073542E0,1.090856552E-1,5.296220827E-1,3.175218486E0,3.220933353E0
6.757095542E0,-5.919604182E-2,5.693995214E-1,3.160815624E0,3.212238378E0
6.767118542E0,-2.238179666E-1,6.697406656E-1,3.108854342E0,3.188043658E0
6.777141542E0,-3.328609371E-1,8.405150306E-1,3.027402628E0,3.159498155E0
6.787164542E0,-3.228578129E-1,1.019191908E0,2.837571310E0,3.032292904E0
6.797187542E0,-2.691546455E-1,1.107377275E0,2.542708797E0,2.786412869E0
6.807210542E0,-2.119174209E-1,1.169103992E0,2.208481365E0,2.507808421E0
6.817233542E0,-1.306270900E-1,1.344331596E0,1.658737259E0,2.139088631E0
6.827256542E0,-1.484213367E-1,1.408404801E0,1.298843182E0,1.921620823E0
6.837279542E0,-7.770072520E-2,1.463294368E0,1.174847420E0,1.878173120E0
6.847302542E0,-9.814990014E-2,1.438408034E0,1.155836367E0,1.847866008E0
6.857325542E0,-2.294570214E-1,1.664191834E0,9.475743333E-1,1.928751436E0
6.867348542E0,-3.119755599E-1,2.075532930E0,7.064100167E-1,2.214538509E0
6.877371542E0,-5.364656639E-1,2.202101176E0,3.542035666E-1,2.294015075E0
6.887394542E0,-9.038982636E-1,1.984971839E0,-1.002680540E-2,2.181111141E0
6.897417542E0,-1.227409503E0,1.629198003E0,-2.932065824E-1,2.060774204E0
6.907440542E0,-1.336748343E0,1.342712502E0,-6.362814358E-1,1.998656314E0
6.917463542E0,-1.199922034E0,1.225237262E0,-9.915436408E-1,1.980953818E0
6.927486542E0,-9.776050481E-1,1.214966628E0,-1.254243837E0,2.001245397E0
6.937509542E0,-7.597269756E-1,1.230625471E0,-1.368739044E0,1.991248528E0
6.947532542E0,-5.858494931E-1,1.239761161E0,-1.277015819E0,1.873765398E0
6.957555542E0,-4.078772056E-1,1.185432926E0,-1.096260549E0,1.665353485E0
6.967578542E0,-2.683883679E-1,1.099343201E0,-9.337898147E-1,1.467157526E0
6.977601542E0,-2.276449692E-1,9.046116239E-1,-8.469133464E-1,1.259923267E0
6.987623542E0,-2.057088473E-1,6.660101420E-1,-8.563975301E-1,1.104220254E0
6.997646542E0,-1.575029397E-1,5.137445533E-1,-9.667847756E-1,1.106080216E0
7.007669542E0,-5.217879832E-2,4.796418375E-1,-1.172315283E0,1.267715284E0
7.017692542E0,8.128945380E-2,4.894493723E-1,-1.435503137E0,1.518827811E0
7.027715542E0,1.577309811E-1,4.151341850E-1,-1.710185448E0,1.766903993E0
7.037738542E0,1.404439804E-1,2.889477628E-1,-2.046476069E0,2.071540399E0
7.047761542E0,1.207955816E-1,1.481871557E-1,-2.418694615E0,2.426238786E0
7.057784542E0,5.180808485E-2,-3.259179533E-2,-2.797882165E0,2.798551574E0
7.067807542E0,-1.126384234E-1,-1.672075635E-1,-3.141450523E0,3.147913146E0
7.077830542E0,-3.119387224E-1,-2.174906945E-1,-3.300146295E0,3.321983374E0
7.087853542E0,-5.305915511E-1,-1.658299595E-1,-3.173863978E0,3.222179313E0
7.097876542E0,-6.801545566E-1,1.109819072E-1,-2.769563222E0,2.854016056E0
7.107899542E0,-8.109468305E-1,5.626635289E-1,-2.266569360E0,2.472157291E0
7.117922542E0,-8.403387371E-1,1.059107341E0,-1.750261387E0,2.211626658E0
7.127945542E0,-6.401017141E-1,1.725297577E0,-1.375916794E0,2.297722559E0
7.137968542E0,-3.268505841E-1,2.547541228E0,-1.195845940E0,2.833168743E0
7.147991542E0,-5.696532905E-2,3.278575916E0,-1.055098782E0,3.444639100E0
7.158014542E0,3.188077390E-2,3.285358686E0,-7.517522505E-1,3.370419785E0
7.168037542E0,-1.535508066E-2,2.374806291E0,-3.628869742E-1,2.402421207E0
7.178060542E0,1.030220926E-1,1.017576322E0,-1.272561702E-1,1.030664473E0
7.188083542E0,2.805590549E-1,-3.843579501E-1,1.749837756E-2,4.761833789E-1
7.198106542E0,1.674929076E-1,-1.614909747E0,1.541279268E-1,1.630871786E0
7.208128542E0,-3.631799197E-1,-2.788545915E0,2.880443680E-1,2.826810488E0
7.218151542E0,-1.333549623E0,-4.248093973E0,3.276481444E-1,4.464528005E0
7.228174542E0,-2.709232528E0,-5.873288972E0,4.110592604E-3,6.468035338E0
7.238197542E0,-4.148170905E0,-6.766974488E0,-1.537595522E-1,7.938696844E0
7.248220542E0,-4.910727348E0,-5.781877111E0,7.926871455E-1,7.627168473E0
7.258243542E0,-4.961595200E0,-3.316407402E0,1.722603472E0,6.211549542E0
7.268266542E0,-4.496234602E0,-2.193109328E-1,1.966023060E0,4.912175644E0
7.278289542E0,-3.486724514E0,2.806896817E0,1.641207307E0,4.767544337E0
7.288312542E0,-2.339551674E0,4.408885387E0,9.017880034E-1,5.071981269E0
7.298335542E0,-1.191372528E0,3.608419690E0,4.328217199E-1,3.824577859E0
7.308358542E0,1.498100504E-1,1.813087673E0,6.974628997E-1,1.948379957E0
7.318381542E0,1.031863409E0,1.431766766E-1,1.773297955E0,2.056654393E0
7.328404542E0,1.141138514E0,-1.487082011E0,3.478575835E0,3.951468063E0
7.338427542E0,1.120958895E0,-2.767895304E0,5.138459440E0,5.943194316E0
7.348450542E0,1.331377236E0,-3.266190929E0,5.974280326E0,6.937765775E0
7.358473542E0,1.847490935E0,-3.007517710E0,6.082113508E0,7.032104255E0
7.368496542E0,2.273355784E0,-2.270735793E0,5.727507945E0,6.567247127E0
7.378519542E0,2.387383799E0,-1.233925055E0,5.075090826E0,5.742710103E0
7.388542542E0,2.236608811E0,-2.241395634E-1,4.307133017E0,4.858400184E0
7.398565542E0,1.535342736E0,5.285824478E-1,3.317030715E0,3.693151701E0
7.408588542E0,6.707579349E-1,8.367114168E-1,2.044744270E0,2.308891798E0
7.418611542E0,1.107949425E-1,9.319175363E-1,8.854438663E-1,1.290254492E0
7.428633542E0,-4.082762781E-1,9.059348488E-1,3.139136195E-2,9.941795045E-1
7.438656542E0,-7.517364630E-1,7.609794492E-1,-5.964338306E-1,1.224716598E0
7.448679542E0,-9.152170113E-1,4.484451878E-1,-7.611275299E-1,1.272022162E0
7.458702542E0,-9.046512388E-1,-3.959617496E-2,-6.911327771E-1,1.139133985E0
7.468725542E0,-7.004177901E-1,-2.597303957E-1,-6.829747418E-1,1.012175606E0
7.478748542E0,-6.175425714E-1,-2.485154361E-1,-5.649837772E-1,8.731124887E-1
7.488771542E0,-6.551866534E-1,1.707258332E-1,-4.599886879E-1,8.185392195E-1
7.498794542E0,-5.785739489E-1,8.108181918E-1,-4.842102305E-1,1.107534876E0
7.508817542E0,-4.806881967E-1,1.371882507E0,-5.447383046E-1,1.552373208E0
7.518840542E0,-4.663126709E-1,1.684717315E0,-6.581286800E-1,1.867847237E0
7.528863542E0,-4.947239994E-1,1.804569449E0,-7.488622642E-1,2.015444721E0
7.538886542E0,-5.133448961E-1,1.751339906E0,-8.318553042E-1,2.005666397E0
7.548909542E0,-4.381228057E-1,1.485881578E0,-8.927599025E-1,1.787964177E0
7.558932542E0,-1.887030977E-1,1.025268919E0,-7.915048385E-1,1.308917539E0
7.568955542E0,2.502428497E-1,3.407494158E-1,-6.024982703E-1,7.360270470E-1
7.578978542E0,7.257113832E-1,-4.028719890E-1,-3.212138683E-1,8.900231460E-1
7.589001542E0,1.155856394E0,-9.754301763E-1,8.950567801E-2,1.515083925E0
7.599024542E0,1.527879497E0,-1.260251559E0,4.043665373E-1,2.021425745E0
7.609047542E0,1.915637310E0,-1.198756977E0,4.961526203E-1,2.313623136E0
7.619070542E0,2.161316116E0,-9.659395605E-1,3.998612577E-1,2.400878092E0
7.629093542E0,2.320739720E0,-7.251634991E-1,2.504824759E-1,2.444266028E0
7.639115542E0,2.408879040E0,-3.895146096E-1,4.479380149E-2,2.440579101E0
7.649138542E0,2.376215470E0,-4.358865380E-2,-2.034649052E-1,2.385308764E0
7.659161542E0,1.757581809E0,1.018491411E-1,-3.578068402E-1,1.796522417E0
7.669184125E0,6.654071479E-1,4.690460980E-2,-4.755628198E-1,8.192232360E-1
7.679207125E0,2.590375006E-2,1.738184255E-1,-8.034209523E-1,8.224166073E-1
7.689230125E0,-3.151030894E-1,4.968425918E-1,-1.122230372E0,1.267100441E0
7.699253125E0,-6.346627803E-1,8.518960512E-1,-1.343480242E0,1.712735498E0
7.709276125E0,-9.915502189E-1,1.080187722E0,-1.521811548E0,2.113264712E0
7.719299125E0,-1.252875150E0,1.210824460E0,-1.709124178E0,2.440675618E0
7.729322125E0,-1.300257039E0,1.239727247E0,-1.885806132E0,2.604583802E0
7.739345125E0,-1.164490539E0,1.099773556E0,-1.897096520E0,2.482844195E0
7.749368125E0,-9.194720301E-1,8.185715997E-1,-1.827263662E0,2.203265932E0
7.759391125E0,-6.128153899E-1,4.544058394E-1,-1.775986943E0,1.932914119E0
7.769414125E0,-2.756074865E-1,2.473196805E-2,-1.809569257E0,1.830604286E0
7.779437125E0,3.589883432E-2,-3.365645635E-1,-1.956774080E0,1.985832126E0
7.789460125E0,3.127484156E-1,-5.822341597E-1,-2.154328108E0,2.253428008E0
7.799483125E0,5.495176725E-1,-6.831629491E-1,-2.340723456E0,2.499533474E0
7.809506125E0,7.365445197E-1,-6.544256383E-1,-2.412698149E0,2.606124154E0
7.819529125E0,8.642747529E-1,-6.209912592E-1,-2.350796455E0,2.580473787E0
7.829552125E0,8.859844413E-1,-5.729060966E-1,-2.171835549E0,2.414551610E0
7.839575125E0,7.318642621E-1,-4.994931346E-1,-2.015795729E0,2.201942576E0
7.849597125E0,4.424463831E-1,-4.910591108E-1,-1.987231934E0,2.094275200E0
7.859620125E0,2.012098534E-1,-3.523309958E-1,-2.199214405E0,2.236328808E0
7.869643125E0,3.339549512E-2,-1.650014091E-1,-2.652681767E0,2.658018299E0
7.879666125E0,-6.435562491E-2,-1.206128561E-1,-3.184386335E0,3.187319476E0
7.889689125E0,-2.265708357E-2,-2.709558803E-1,-3.658234459E0,3.668325202E0
7.899712125E0,1.293073735E-1,-5.472338963E-1,-4.030640700E0,4.069674408E0
7.909735125E0,4.071033266E-1,-9.641818875E-1,-4.192235522E0,4.320904824E0
7.919758125E0,8.474806724E-1,-1.376277274E0,-4.024279515E0,4.336725520E0
7.929781125E0,1.374570911E0,-1.550275210E0,-3.578728114E0,4.135225910E0
7.939804125E0,1.714547617E0,-2.150403603E0,-2.613426484E0,3.793930307E0
7.949827125E0,1.753428239E0,-3.287022804E0,-9.117648152E-1,3.835406704E0
7.959850125E0,1.705438824E0,-3.570482955E0,4.104260069E-1,3.978105029E0
7.969873125E0,1.628164361E0,-3.556195868E0,1.455435711E0,4.173217146E0
7.979896125E0,1.494791711E0,-2.924104840E0,2.055545393E0,3.874281641E0
7.989919125E0,1.149398437E0,-1.894500210E0,2.283334935E0,3.181802357E0
7.999942125E0,3.997605394E-1,-1.033892393E0,2.383618630E0,2.628760115E0
8.009965125E0,-4.602163638E-1,-6.743991423E-1,2.255536541E0,2.398761845E0
8.019988125E0,-1.142486882E0,-7.411953950E-1,1.756314132E0,2.222450499E0
8.030011125E0,-1.778200845E0,-1.095799204E0,9.886342856E-1,2.310881194E0
8.040034125E0,-2.365615638E0,-1.686845702E0,3.846438424E-1,2.930791131E0
8.050057125E0,-2.836555649E0,-2.298541058E0,1.457541293E-1,3.653844990E0
8.060080125E0,-3.215708408E0,-2.851039787E0,2.631983793E-1,4.305633730E0
8.070102125E0,-3.543617338E0,-3.345619506E0,6.547688699E-1,4.917226453E0
8.080125125E0,-3.669695002E0,-3.578797111E0,9.701700211E-1,5.216864963E0
8.090148125E0,-3.335371384E0,-3.336855699E0,1.077694543E0,4.839497262E0
8.100171125E0,-2.460481742E0,-2.608526518E0,1.114307468E0,3.755004944E0
8.110194125E0,-1.532025611E0,-1.753642539E0,1.159146038E0,2.601150546E0
8.120217125E0,-9.262662023E-1,-1.062718581E0,1.293787826E0,1.913433249E0
8.130240125E0,-4.984163699E-1,-5.805256033E-1,1.572726617E0,1.748970516E0
8.140263125E0,-3.083616883E-2,-1.793779582E-1,1.952744325E0,1.961208230E0
8.150286125E0,3.630483574E-1,1.491864449E-1,2.262300161E0,2.296097281E0
8.160309125E0,6.799941967E-1,4.173584658E-1,2.451981937E0,2.578525861E0
8.170332125E0,8.803961112E-1,6.177595031E-1,2.745652496E0,2.948784791E0
8.180355125E0,8.637895802E-1,8.065111327E-1,3.373560134E0,3.574562997E0
8.190378125E0,8.253650410E-1,9.668447095E-1,3.831160600E0,4.036558891E0
8.200401125E0,1.008836635E0,9.862165350E-1,3.946382908E0,4.190979893E0
8.210424125E0,1.076603672E0,8.251935714E-1,3.963426372E0,4.189125028E0
8.220447125E0,1.102143725E0,7.640182471E-1,3.688784992E0,3.924994189E0
8.230470125E0,1.011413064E0,6.344082803E-1,3.278242040E0,3.488882504E0
8.240493125E0,8.397879294E-1,3.197427088E-1,2.982091970E0,3.114538759E0
8.250516125E0,6.826849392E-1,2.578744894E-1,2.581836902E0,2.682990825E0
8.260539125E0,6.056516737E-1,3.844105750E-1,2.461572247E0,2.563966335E0
8.270561125E0,5.067574230E-1,6.101926214E-1,2.377803574E0,2.506608856E0
8.280584125E0,3.095735237E-1,9.045245004E-1,2.335135565E0,2.523263451E0
8.290607125E0,1.147194475E-2,1.179613193E0,2.632386081E0,2.884627423E0
8.300630125E0,-3.432704428E-1,1.351081038E0,2.924500404E0,3.239746468E0
8.310653125E0,-6.204670563E-1,1.563671765E0,3.046732939E0,3.480320439E0
8.320676125E0,-7.133535853E-1,1.738897031E0,3.076555200E0,3.605250078E0
8.330699125E0,-8.221363547E-1,1.925196923E0,2.559014634E0,3.306183189E0
8.340722125E0,-8.987182152E-1,2.127447435E0,1.823136697E0,2.942372246E0
8.350745125E0,-9.403442511E-1,2.169266136E0,9.972341511E-1,2.566016140E0
8.360768125E0,-1.024951123E0,1.933975348E0,2.191390246E-1,2.199728929E0
8.370791125E0,-1.099933477E0,1.522166474E0,-4.466886842E-1,1.930382141E0
8.380814125E0,-1.181362095E0,1.125919966E0,-1.081869674E0,1.957997487E0
8.390837125E0,-1.113747817E0,9.411274856E-1,-1.719941527E0,2.254851215E0
8.400860125E0,-9.120896280E-1,9.458011651E-1,-2.235287633E0,2.592866779E0
8.410883125E0,-6.206415957E-1,1.151786878E0,-2.498716393E0,2.820530555E0
8.420906125E0,-4.485682717E-1,1.270331574E0,-2.422988810E0,2.772333057E0
8.430929125E0,-4.394018841E-1,1.202207419E0,-1.939785434E0,2.324036192E0
8.440952125E0,-3.735673521E-1,1.081740158E0,-1.070718741E0,1.567211843E0
8.450975125E0,-2.790076424E-1,1.035209770E0,-3.510390535E-1,1.128154666E0
8.460998125E0,-2.719025445E-1,9.660711229E-1,-1.568270016E-1,1.015784976E0
8.471021125E0,-2.488729933E-1,9.469285083E-1,-3.345177457E-1,1.034656218E0
8.481044125E0,-1.899783754E-1,9.496802080E-1,-7.075820911E-1,1.199440159E0
8.491066125E0,-4.130239248E-2,7.618571162E-1,-1.061282505E0,1.307077927E0
8.501089125E0,1.398613054E-1,3.409271711E-1,-1.265802906E0,1.318351060E0
8.511112125E0,3.428184530E-1,-2.642573100E-1,-1.502641744E0,1.563741868E0
8.521135125E0,5.986417392E-1,-8.865162456E-1,-2.095890012E0,2.353091143E0
8.531158125E0,8.604759631E-1,-1.374575735E0,-3.086695149E0,3.486769892E0
8.541181125E0,1.059386837E0,-1.598217700E0,-4.139778688E0,4.562276611E0
8.551204125E0,1.069273310E0,-1.572551347E0,-4.610190111E0,4.986994687E0
8.561227125E0,9.386870040E-1,-1.108312245E0,-4.273078248E0,4.513168182E0
8.571250125E0,7.498405033E-1,-3.417948979E-1,-3.393898212E0,3.492510502E0
8.581273125E0,5.130133590E-1,4.749412608E-1,-2.459290079E0,2.556728300E0
8.591296125E0,4.124691702E-1,1.341632522E0,-1.676456662E0,2.186461886E0
8.601319125E0,4.179075193E-1,2.142715684E0,-1.070332533E0,2.431355369E0
8.611342125E0,5.253211632E-1,2.626572779E0,-6.591066268E-1,2.758490246E0
8.621365125E0,7.832579255E-1,2.785533430E0,-3.653635624E-1,2.916535616E0
8.631388125E0,1.167529191E0,2.564777066E0,1.005604148E-2,2.818032457E0
8.641411125E0,1.559876045E0,2.015981378E0,5.503294122E-1,2.607730173E0
8.651434125E0,1.546920516E0,1.254519534E0,8.758497548E-1,2.175751625E0
8.661457125E0,9.329836299E-1,3.276931679E-1,9.540103635E-1,1.374036768E0
8.671479375E0,4.856653467E-2,-5.754958284E-1,1.051196350E0,1.199403153E0
8.681502375E0,-8.669169635E-1,-1.526822028E0,1.288864324E0,2.178049993E0
8.691525375E0,-1.986268459E0,-2.821440012E0,1.248593380E0,3.669437499E0
8.701547375E0,-3.577655734E0,-4.876857351E0,2.455855425E-1,6.053401559E0
8.711570375E0,-5.568974141E0,-7.367209302E0,-1.430670560E0,9.345376618E0
8.721593375E0,-7.288104660E0,-8.479827436E0,-2.090180790E0,1.137509554E1
8.731616375E0,-7.857887174E0,-6.688907143E0,-1.387976968E0,1.041222117E1
8.741639375E0,-6.900178739E0,-2.909248819E0,-3.231823334E-1,7.495374716E0
8.751662375E0,-4.588094945E0,1.412924114E0,4.348679531E-1,4.820381719E0
8.761685375E0,-2.134835684E0,4.670301535E0,1.054035758E0,5.242159021E0
8.771708375E0,-3.129263172E-1,6.163932427E0,1.695717098E0,6.400581405E0
8.781731375E0,6.792337663E-1,5.335810570E0,2.882177380E0,6.102391285E0
8.791754375E0,1.041591714E0,3.456919502E0,3.808139527E0,5.247583482E0
8.801777375E0,1.267780726E0,1.481965697E0,4.295275741E0,4.717296258E0
8.811800375E0,1.150422430E0,-7.855669910E-1,5.000064032E0,5.190493964E0
8.821823375E0,8.332900648E-1,-2.863060493E0,5.590600069E0,6.336110545E0
8.831846375E0,6.762632346E-1,-4.481524177E0,6.049965516E0,7.559330239E0
8.841869375E0,8.050202389E-1,-4.836812695E0,6.187151721E0,7.894533618E0
8.851892375E0,1.271138490E0,-3.648731564E0,5.498050339E0,6.719939927E0
8.861915375E0,1.904688984E0,-1.847538882E0,4.291870322E0,5.045928151E0
8.871938375E0,2.499821516E0,-1.243170673E-1,3.037633209E0,3.935959586E0
8.881961375E0,2.468100371E0,8.938515776E-1,2.089997042E0,3.355380414E0
8.891984375E0,1.667099801E0,9.713897502E-1,1.336669844E0,2.347233705E0
8.902006375E0,6.650647934E-1,6.517353344E-1,6.194236938E-1,1.118371959E0
8.912030375E0,-1.827789912E-1,3.122366381E-1,-8.755379520E-2,3.722439319E-1
8.922052375E0,-9.406067911E-1,7.022330582E-2,-5.771424043E-1,1.105787413E0
8.932075375E0,-1.573969443E0,-1.007615590E-1,-8.394648707E-1,1.786682392E0
8.942098375E0,-1.934891460E0,-3.236784697E-2,-1.105444113E0,2.228645177E0
8.952121375E0,-2.000256753E0,4.283594173E-1,-1.214135739E0,2.378790546E0
8.962144375E0,-1.849063690E0,1.063647119E0,-1.060000795E0,2.382012470E0
8.972167375E0,-1.630883024E0,1.668651506E0,-7.891039717E-1,2.463100153E0
8.982190375E0,-1.416792778E0,2.082435569E0,-4.907018459E-1,2.566052995E0
8.992213375E0,-1.060486260E0,2.341730347E0,-3.610258055E-1,2.595895174E0
9.002236375E0,-6.587555015E-1,2.225295326E0,-5.076587713E-1,2.375629501E0
9.012259375E0,-1.288353570E-1,1.836871222E0,-5.099467868E-1,1.910691017E0
9.022282375E0,4.722750767E-1,1.117660773E0,-2.920649135E-1,1.248002911E0
9.032305375E0,9.534725659E-1,2.050858265E-1,-2.282197505E-1,1.001625871E0
9.042328375E0,1.227578926E0,-6.660820627E-1,-1.122431608E-1,1.401147337E0
9.052351375E0,1.558504435E0,-1.261863636E0,4.361785334E-2,2.005776265E0
9.062374375E0,1.899732591E0,-1.462160009E0,1.564439724E-1,2.402367692E0
9.072397375E0,2.244068689E0,-1.246468502E0,2.308030139E-1,2.577362613E0
9.082420375E0,2.467301642E0,-8.190966797E-1,2.291061884E-1,2.609786659E0
9.092443375E0,2.639755327E0,-3.649738455E-1,1.403864584E-1,2.668561870E0
9.102466375E0,2.522941407E0,6.308444023E-2,-1.330756481E-1,2.527236063E0
9.112489375E0,1.568468821E0,1.096592671E-1,-3.705194910E-1,1.615365064E0
9.122511375E0,3.901519561E-1,6.024678648E-2,-6.132706688E-1,7.293484334E-1
9.132534375E0,-2.835358724E-1,2.842524487E-1,-9.978472316E-1,1.075588743E0
9.142557375E0,-7.387154447E-1,6.151528144E-1,-1.331760521E0,1.642467528E0
9.152580375E0,-1.212293720E0,9.067020035E-1,-1.516958359E0,2.143111581E0
9.162603375E0,-1.692442803E0,1.116117693E0,-1.588643323E0,2.575629817E0
9.172626375E0,-2.018976029E0,1.247604616E0,-1.606313609E0,2.865837556E0
9.182649375E0,-2.091898410E0,1.274195999E0,-1.495701830E0,2.869971841E0
9.192672375E0,-1.783357066E0,1.197843642E0,-1.304719196E0,2.513460561E0
9.202695375E0,-1.222901446E0,1.013972098E0,-1.160065366E0,1.967073719E0
9.212718375E0,-4.589337771E-1,6.164374477E-1,-1.196083191E0,1.421699806E0
9.222741375E0,2.092388114E-1,-8.632244468E-3,-1.392461783E0,1.408121164E0
9.232764375E0,6.568393689E-1,-6.350789559E-1,-1.696571376E0,1.926945165E0
9.242787375E0,1.002265534E0,-1.033114713E0,-2.074341268E0,2.524827500E0
9.252810375E0,1.327343535E0,-1.208705429E0,-2.445841776E0,3.033966326E0
9.262833375E0,1.557638901E0,-1.191023449E0,-2.751901415E0,3.379014235E0
9.272856375E0,1.695641961E0,-9.869854438E-1,-2.839025513E0,3.451000984E0
9.282879375E0,1.729288009E0,-6.836886138E-1,-2.611757104E0,3.206110153E0
9.292902375E0,1.645354883E0,-3.983971149E-1,-2.294224643E0,2.851206703E0
9.302925375E0,1.465699767E0,-2.297733557E-1,-1.966144536E0,2.463086668E0
9.312948375E0,1.149695329E0,-3.850742340E-2,-1.772465311E0,2.113034654E0
9.322971375E0,8.285649298E-1,1.302537453E-1,-1.685675089E0,1.882813424E0
9.332994375E0,5.329500255E-1,1.973990768E-1,-1.808296464E0,1.895504742E0
9.343016375E0,1.953736013E-1,1.800082880E-1,-2.081926861E0,2.098807586E0
9.353039375E0,-1.888375837E-1,-9.146214724E-3,-2.475350919E0,2.482560263E0
9.363062375E0,-4.781369103E-1,-3.514422190E-1,-2.893014609E0,2.953245684E0
9.373085375E0,-6.267028195E-1,-8.318681681E-1,-3.293317916E0,3.454085114E0
9.383108375E0,-4.846838915E-1,-1.372510498E0,-3.542508413E0,3.829891565E0
9.393131375E0,-2.163630590E-2,-1.884138359E0,-3.514974460E0,3.988168870E0
9.403154375E0,5.396136586E-1,-2.317690689E0,-3.022026114E0,3.846493840E0
9.413177375E0,1.000711344E0,-2.778658274E0,-2.053257670E0,3.596975404E0
9.423200375E0,1.321423960E0,-3.350644603E0,-8.586033922E-1,3.702726067E0
9.433223375E0,1.533392690E0,-3.850543535E0,1.545384014E-1,4.147512601E0
9.443246375E0,1.760919545E0,-3.969853631E0,8.011444120E-1,4.416153062E0
9.453269375E0,1.863989439E0,-3.543138451E0,1.009053859E0,4.128737870E0
9.463292375E0,1.458061987E0,-2.731502818E0,1.087879296E0,3.281849139E0
9.473315375E0,4.349372426E-1,-1.885610104E0,1.220470027E0,2.287846795E0
9.483338375E0,-7.144147088E-1,-1.248582271E0,1.265228709E0,1.915763490E0
9.493361375E0,-1.600233674E0,-8.974639875E-1,1.118972231E0,2.149020305E0
9.503384375E0,-2.350075785E0,-8.640798944E-1,8.106830480E-1,2.631861939E0
9.513407375E0,-3.046977060E0,-9.761148852E-1,5.301068169E-1,3.243128537E0
9.523430375E0,-3.661022119E0,-1.155187034E0,5.575887305E-1,3.879232557E0
9.533453375E0,-4.189400499E0,-1.341818463E0,7.729650718E-1,4.466433514E0
9.543476375E0,-4.509590812E0,-1.570149896E0,9.986892307E-1,4.878438292E0
9.553498375E0,-4.431002480E0,-1.657636521E0,1.079457990E0,4.852501557E0
9.563521375E0,-3.615826066E0,-1.533707709E0,1.039886300E0,4.062981786E0
9.573544375E0,-2.330807748E0,-1.287714761E0,1.020245430E0,2.851626694E0
9.583567375E0,-1.274066191E0,-1.059535941E0,1.262086415E0,2.082960199E0
9.593590375E0,-5.625242190E-1,-9.151605856E-1,1.641268849E0,1.961559540E0
9.603613375E0,1.292866158E-1,-8.051317745E-1,2.086607995E0,2.240286841E0
9.613636375E0,7.583905944E-1,-6.820455462E-1,2.441626518E0,2.646107041E0
9.623659375E0,1.227930051E0,-5.819833142E-1,2.622239993E0,2.953414865E0
9.633682375E0,1.558580302E0,-5.296612591E-1,2.819809223E0,3.265124449E0
9.643705375E0,1.674314242E0,-3.606662017E-1,2.854982564E0,3.329314304E0
9.653728375E0,1.651676162E0,-2.616687477E-2,2.806566449E0,3.256613898E0
9.663751375E0,1.542163952E0,2.623628122E-1,2.599397260E0,3.033804545E0
9.673778500E0,1.399236367E0,3.386221987E-1,2.443917603E0,2.836416869E0
9.683801500E0,1.079033774E0,4.123935950E-1,2.407211853E0,2.670028327E0
9.693824500E0,6.374690053E-1,4.820041126E-1,2.352231361E0,2.484288042E0
9.703847500E0,1.650426319E-1,5.520818228E-1,2.268518529E0,2.340557567E0
9.713870500E0,-1.764847559E-1,6.142429876E-1,2.187633410E0,2.279074649E0
9.723893500E0,-4.470591053E-1,6.775583929E-1,2.197955792E0,2.343065702E0
9.733916500E0,-6.946597445E-1,7.398704159E-1,2.353701059E0,2.563175583E0
9.743939500E0,-8.532257080E-1,9.889547861E-1,2.469368340E0,2.793529251E0
9.753962500E0,-9.498117703E-1,1.267765816E0,2.615677662E0,3.057963734E0
9.763985500E0,-9.190460604E-1,1.300457014E0,2.972540835E0,3.372214869E0
9.774008500E0,-7.349935457E-1,1.462340103E0,2.995505482E0,3.413459709E0
9.784030500E0,-4.960008851E-1,1.781414475E0,2.754773567E0,3.317865551E0
9.794053500E0,-2.404456937E-1,2.050191098E0,2.529595538E0,3.264958079E0
9.804076500E0,-5.715477884E-2,2.163356355E0,2.082234132E0,3.003177712E0
9.814099500E0,1.860671729E-2,2.188708128E0,1.514433824E0,2.661634702E0
9.824122500E0,4.652892619E-2,2.080231168E0,9.306638932E-1,2.279399468E0
9.834145500E0,7.762763500E-2,1.912693237E0,5.083917198E-1,1.980627075E0
9.844168500E0,8.057258517E-2,1.614458926E0,3.206352863E-1,1.647961332E0
9.854191500E0,8.795644909E-2,1.173945487E0,3.466524723E-1,1.227213217E0
9.864214500E0,1.986459956E-1,9.274572802E-1,3.086870858E-1,9.974592498E-1
9.874237500E0,3.154365268E-1,8.851333791E-1,1.010243914E-1,9.450752504E-1
9.884260500E0,4.584605911E-1,1.070419364E0,-2.552002653E-1,1.192103563E0
9.894283500E0,5.440626588E-1,1.298477731E0,-5.049366000E-1,1.495663587E0
9.904306500E0,4.461992723E-1,1.338709499E0,-6.502226597E-1,1.553713751E0
9.914329500E0,2.386029437E-1,1.178451936E0,-9.023092827E-1,1.503277210E0
9.924352500E0,-9.682989120E-2,8.317594099E-1,-9.808730569E-1,1.289694420E0
9.934375500E0,-6.675298333E-1,4.110633534E-1,-1.037877270E0,1.300676127E0
9.944398500E0,-1.291110824E0,1.335451430E-1,-1.116544832E0,1.712154733E0
9.954421500E0,-1.781248999E0,6.573089004E-2,-1.397317603E0,2.264876383E0
9.964444500E0,-1.989486767E0,2.267965382E-1,-1.870255023E0,2.739954035E0
9.974467500E0,-1.772193708E0,4.951083076E-1,-2.526573405E0,3.125600094E0
9.984490500E0,-1.153028242E0,5.357394397E-1,-3.167723233E0,3.413350458E0
9.994512500E0,-4.794570655E-1,3.800514758E-2,-3.717807062E0,3.748788180E0
1.000453550E1,4.156083941E-2,-9.902499443E-1,-4.462933247E0,4.571662217E0
1.001455850E1,6.026622847E-1,-1.933757831E0,-5.242488424E0,5.620169575E0
1.002458150E1,1.234057202E0,-2.248546779E0,-5.389665180E0,5.968865098E0
1.003460450E1,1.688346975E0,-1.805979797E0,-4.457860788E0,5.097509327E0
1.004462750E1,2.049592928E0,-8.467510861E-1,-2.631500520E0,3.441309861E0
1.005465050E1,2.289464425E0,1.933656675E-1,-1.044513567E0,2.523895051E0
1.006467350E1,2.622835239E0,1.323738288E0,-4.390510511E-1,2.970574620E0
1.007469650E1,2.922589241E0,2.635782729E0,-6.193318194E-1,3.984024394E0
1.008471950E1,2.835996655E0,3.267800667E0,-9.272634450E-1,4.425066748E0
1.009474250E1,2.477541870E0,3.171878264E0,-6.626789832E-1,4.078991159E0
1.010476550E1,2.076391740E0,2.573772422E0,3.889778352E-1,3.329716339E0
1.011478850E1,1.454133389E0,1.467948752E0,1.607748954E0,2.618059234E0
1.012481150E1,5.772749899E-1,1.100527847E-1,2.472916431E0,2.541785534E0
1.013483450E1,-3.644272770E-1,-1.049169413E0,2.853755526E0,3.062267836E0
1.014485750E1,-1.478906873E0,-1.795831954E0,3.030614796E0,3.820576395E0
1.015488050E1,-2.848623717E0,-2.369885275E0,2.907012259E0,4.709748780E0
1.016490350E1,-4.506539150E0,-3.224053554E0,1.789273717E0,5.822792875E0
1.017492650E1,-6.537958932E0,-4.597600179E0,-6.618302599E-1,8.020028285E0
1.018494950E1,-8.158011889E0,-5.552907162E0,-2.394457321E0,1.015486887E1
1.019497250E1,-8.574374574E0,-4.316551419E0,-1.954256415E0,9.796511299E0
1.020499550E1,-7.568458185E0,-1.583183924E0,-1.144326123E0,7.816489808E0
1.021501850E1,-5.609501778E0,1.143571540E0,-4.923320496E-1,5.746012262E0
1.022504150E1,-3.781292913E0,3.196454696E0,1.351849946E-1,4.953157953E0
1.023506350E1,-2.723648546E0,3.860558061E0,9.178400722E-1,4.812961702E0
1.024508650E1,-2.011772260E0,2.904265822E0,1.731739454E0,3.934578646E0
1.025510950E1,-6.036560190E-1,1.570372090E0,2.069553860E0,2.667118721E0
1.026513250E1,7.208660880E-1,-1.020672423E-1,2.588082021E0,2.688537555E0
1.027515550E1,1.081001947E0,-1.925277030E0,3.767775905E0,4.367080503E0
1.028517850E1,1.609776915E0,-3.437659943E0,5.290249650E0,6.511192591E0
1.029520150E1,2.242091453E0,-4.003987922E0,6.196812490E0,7.710990754E0
1.030522450E1,3.013279848E0,-3.787173166E0,6.059135120E0,7.754718205E0
1.031524750E1,3.835288149E0,-2.963960046E0,5.224062678E0,7.126382336E0
1.032527050E1,4.332844686E0,-1.613682416E0,4.447510339E0,6.415439364E0
1.033529350E1,4.377223883E0,-6.620743811E-2,3.644496134E0,5.696211409E0
1.034531650E1,3.642631749E0,1.067754203E0,2.535802943E0,4.564993062E0
1.035533950E1,2.028513131E0,1.069941062E0,1.302019536E0,2.637213353E0
1.036536250E1,6.787654044E-1,7.288332117E-1,3.605019680E-1,1.059189310E0
1.037538550E1,-1.231863619E-1,5.323129714E-1,-2.107149410E-1,5.856046154E-1
1.038540850E1,-5.593048882E-1,3.677337313E-1,-3.990093184E-1,7.792679201E-1
1.039543150E1,-9.503853822E-1,2.278782731E-1,-4.572674668E-1,1.079006218E0
1.040545450E1,-1.303129922E0,1.671952844E-1,-4.588871455E-1,1.391646245E0
1.041547750E1,-1.534118037E0,1.210420418E-1,-3.156560898E-1,1.570925872E0
1.042550050E1,-1.631958766E0,2.707249153E-1,-2.845383410E-1,1.678553979E0
1.043552350E1,-1.606296506E0,7.655081177E-1,-3.059122896E-1,1.805484276E0
1.044554550E1,-1.552370559E0,1.306186116E0,-3.647025347E-1,2.061306494E0
1.045556850E1,-1.476251798E0,1.769394938E0,-5.032897317E-1,2.358681491E0
1.046559150E1,-1.428511475E0,2.084010808E0,-6.592911065E-1,2.611208695E0
1.047561450E1,-1.360501779E0,2.191276225E0,-8.012819678E-1,2.700871966E0
1.048563750E1,-1.114852063E0,1.966261334E0,-8.363746172E-1,2.410103993E0
1.049566050E1,-5.810344572E-1,1.401602150E0,-9.473290426E-1,1.788720756E0
1.050568350E1,9.889220417E-2,6.628976691E-1,-1.282709545E0,1.447258361E0
1.051570650E1,6.139129123E-1,-1.589553881E-1,-1.347256374E0,1.489045203E0
1.052572950E1,9.773068401E-1,-8.656358385E-1,-9.313877785E-1,1.603726055E0
1.053575250E1,1.379322504E0,-1.198820127E0,-3.416674286E-1,1.859149510E0
1.054577550E1,1.835918857E0,-1.143627673E0,1.580572923E-1,2.168747199E0
1.055579850E1,2.230841995E0,-8.913676804E-1,4.257176818E-1,2.439759802E0
1.056582150E1,2.475074930E0,-5.449768710E-1,3.963868056E-1,2.565174107E0
1.057584450E1,2.414544992E0,-2.196126491E-1,1.754825431E-1,2.430854039E0
1.058586750E1,2.087221076E0,-7.400762379E-2,-4.707008600E-2,2.089063077E0
1.059589050E1,1.547402911E0,-6.749441028E-2,-3.396695081E-1,1.585681759E0
1.060591350E1,9.351060230E-1,-1.821641564E-2,-7.155851752E-1,1.177632054E0
1.061593650E1,2.653470849E-1,4.409443796E-2,-1.025837268E0,1.060516617E0
1.062595950E1,-3.120639990E-1,2.612161732E-1,-1.278487855E0,1.341696324E0
1.063598250E1,-7.432987846E-1,6.524615586E-1,-1.467041849E0,1.769296740E0
1.064600550E1,-1.162446498E0,1.068319044E0,-1.590557263E0,2.241084525E0
1.065602850E1,-1.528531315E0,1.311461474E0,-1.652965619E0,2.605500818E0
1.066604779E1,-1.698334457E0,1.323660520E0,-1.678057775E0,2.729889192E0
1.067606979E1,-1.637776453E0,1.124972132E0,-1.793266342E0,2.676504844E0
1.068609379E1,-1.430008216E0,7.747379476E-1,-1.970472352E0,2.554976258E0
1.069611579E1,-1.046271533E0,5.027763462E-1,-2.178223047E0,2.468222806E0
1.070613879E1,-3.777033801E-1,3.461773860E-1,-2.264688603E0,2.321920131E0
1.071616179E1,4.897509424E-1,1.080723327E-1,-2.176810360E0,2.233839510E0
1.072618479E1,1.208748114E0,-3.532653809E-1,-1.924634421E0,2.300018714E0
1.073620779E1,1.604248226E0,-8.504892111E-1,-1.638412191E0,2.445677570E0
1.074623079E1,1.890948319E0,-1.229350778E0,-1.441637597E0,2.676809266E0
1.075625379E1,2.201331975E0,-1.322939558E0,-1.366538298E0,2.909202375E0
1.076627679E1,2.377385352E0,-1.019300666E0,-1.382841359E0,2.933118679E0
1.077629979E1,2.313361264E0,-5.359587103E-1,-1.463437187E0,2.789362020E0
1.078632279E1,1.908951604E0,-1.354840797E-1,-1.532272656E0,2.451593697E0
1.079634579E1,1.228426041E0,1.640231699E-1,-1.691322476E0,2.096784648E0
1.080636879E1,5.943108527E-1,3.752029645E-1,-2.056899608E0,2.173664798E0
1.081639179E1,1.377067526E-1,3.919125527E-1,-2.412424353E0,2.447927666E0
1.082641479E1,-3.854680440E-1,7.698970377E-2,-2.605212024E0,2.634699739E0
1.083643779E1,-8.507412261E-1,-4.493380576E-1,-2.859294886E0,3.016824915E0
1.084646079E1,-1.075216420E0,-1.062846635E0,-3.126454754E0,3.472816241E0
1.085648379E1,-1.200897496E0,-1.636345639E0,-3.179629333E0,3.772243966E0
1.086650679E1,-1.218344564E0,-2.152095203E0,-2.814998134E0,3.747011040E0
1.087652979E1,-1.003762421E0,-2.597484636E0,-2.026068848E0,3.443750921E0
1.088655279E1,-5.897269280E-1,-2.846070823E0,-1.116990536E0,3.113770197E0
1.089657579E1,-4.990306199E-2,-2.919986061E0,-2.060618730E-1,2.927673207E0
1.090659879E1,4.950210379E-1,-2.837427469E0,6.417915595E-1,2.950921360E0
1.091662079E1,1.008375874E0,-2.634992770E0,1.211634738E0,3.070515843E0
1.092664379E1,1.455712576E0,-2.305930769E0,1.279784621E0,3.012351987E0
1.093666679E1,1.706485330E0,-1.950672072E0,1.128557571E0,2.826810200E0
1.094668979E1,1.371749629E0,-1.767184691E0,8.150505526E-1,2.380954888E0
1.095671279E1,4.628518501E-1,-1.866496140E0,3.363604226E-1,1.952223863E0
1.096673579E1,-3.829623659E-1,-2.078554187E0,1.414284322E-1,2.118265725E0
1.097675879E1,-1.095032049E0,-2.200066929E0,4.905661905E-1,2.506001770E0
1.098678179E1,-1.771822995E0,-2.236562326E0,1.106080948E0,3.060225943E0
1.099680479E1,-2.280973098E0,-2.228001418E0,1.701786507E0,3.614264228E0
1.100682779E1,-2.542790365E0,-2.198490520E0,2.143783386E0,3.986847202E0
1.101685079E1,-2.609412956E0,-2.123279539E0,2.275320010E0,4.061333909E0
1.102687379E1,-2.495582285E0,-1.897539593E0,1.983457410E0,3.709810069E0
1.103689679E1,-2.223514264E0,-1.521872944E0,1.537645808E0,3.102332602E0
1.104691979E1,-1.915707331E0,-1.078622423E0,1.153324769E0,2.482643537E0
1.105694279E1,-1.657526593E0,-5.964744687E-1,8.860625017E-1,1.971872956E0
1.106696579E1,-1.417040992E0,-2.318093562E-1,8.142869063E-1,1.650698009E0
1.107698879E1,-1.059815585E0,8.553307056E-3,9.242014043E-1,1.406211388E0
1.108701179E1,-6.644509819E-1,4.694144726E-2,1.219018018E0,1.389137694E0
1.109703479E1,-2.966638948E-1,1.049826640E-1,1.547367535E0,1.579043101E0
1.110705779E1,-2.941295654E-3,2.852061296E-1,2.004772850E0,2.024960584E0
1.111708079E1,5.007995488E-1,4.843049920E-1,2.344540226E0,2.445857802E0
1.112710379E1,8.806890567E-1,6.073672467E-1,2.757827860E0,2.958060631E0
1.113712679E1,9.815570350E-1,7.199892980E-1,3.146427673E0,3.373699143E0
1.114714879E1,1.000464153E0,7.971935946E-1,3.376961459E0,3.611137611E0
1.115717179E1,9.766966832E-1,8.391502905E-1,3.447228034E0,3.679876457E0
1.116719479E1,9.038813066E-1,8.346760011E-1,3.342980658E0,3.562191056E0
1.117721779E1,7.502448383E-1,8.281113321E-1,3.219170837E0,3.407593956E0
1.118724079E1,6.001561680E-1,8.377206463E-1,3.020772471E0,3.191712648E0
1.119726379E1,3.792729190E-1,6.338434392E-1,2.952009507E0,3.043019156E0
1.120728679E1,6.826156497E-2,5.762284845E-1,2.778334338E0,2.838281276E0
1.121730979E1,-2.507055107E-1,7.549129629E-1,2.524070212E0,2.646446158E0
1.122733279E1,-4.858936805E-1,1.090482330E0,2.278533932E0,2.572345479E0
1.123735579E1,-6.961914226E-1,1.573824871E0,2.052338780E0,2.678376689E0
1.124737879E1,-8.481354144E-1,2.046372281E0,1.754877471E0,2.826051686E0
1.125740179E1,-9.601739135E-1,2.478482687E0,1.329500426E0,2.971932328E0
1.126742479E1,-1.010252392E0,2.804048638E0,8.680329046E-1,3.104316315E0
1.127744779E1,-1.023524110E0,2.907397590E0,4.748658317E-1,3.118663161E0
1.128747079E1,-8.789838624E-1,2.727201607E0,2.403267029E-1,2.875412693E0
1.129749379E1,-7.406308463E-1,2.312591917E0,1.417496637E-1,2.432428497E0
1.130751679E1,-5.891543394E-1,1.754348298E0,2.911474854E-2,1.850861544E0
1.131753979E1,-4.617113507E-1,1.240306706E0,-1.505187330E-1,1.331988734E0
1.132756279E1,-3.884083164E-1,8.525304741E-1,-4.771108702E-1,1.051334396E0
1.133758579E1,-4.534287697E-1,6.556664175E-1,-9.382246354E-1,1.231162689E0
1.134760879E1,-5.527229699E-1,5.193362457E-1,-1.222555729E0,1.438699179E0
1.135763179E1,-5.201028156E-1,5.656409311E-1,-1.420694771E0,1.615187368E0
1.136765479E1,-4.162942725E-1,5.991027921E-1,-1.600379416E0,1.758817600E0
1.137767679E1,-4.238187620E-1,4.235945213E-1,-1.696060621E0,1.798798569E0
1.138769979E1,-5.003608614E-1,2.753401226E-1,-1.635258934E0,1.732121519E0
1.139772279E1,-5.382405862E-1,2.752085602E-1,-1.574458124E0,1.686523366E0
1.140774579E1,-4.239468160E-1,4.184413701E-1,-1.667487617E0,1.770688860E0
1.141776879E1,-1.091204461E-1,6.128279614E-1,-1.928007972E0,2.026001017E0
1.142779179E1,3.496082398E-1,5.559480017E-1,-2.100626841E0,2.200894643E0
1.143781479E1,6.474782690E-1,1.652078158E-1,-2.240429674E0,2.337957839E0
1.144783779E1,7.045213661E-1,-3.654743671E-1,-2.395368318E0,2.523432433E0
1.145786079E1,6.453913978E-1,-9.662447852E-1,-2.624901645E0,2.870586645E0
1.146788379E1,6.052213186E-1,-1.583273971E0,-3.036783901E0,3.477801860E0
1.147790679E1,7.308297434E-1,-1.914104170E0,-3.457968200E0,4.019384401E0
1.148792979E1,9.728538930E-1,-1.764168697E0,-3.514149418E0,4.050676736E0
1.149795279E1,1.229380892E0,-1.073956929E0,-3.012750968E0,3.426576901E0
1.150797579E1,1.406514981E0,6.426557779E-2,-2.248139813E0,2.652649067E0
1.151799879E1,1.460934140E0,1.327988629E0,-1.695339660E0,2.602317990E0
1.152802179E1,1.378188437E0,2.397580612E0,-1.514721507E0,3.153121850E0
1.153804479E1,9.987924340E-1,2.805067808E0,-1.364033205E0,3.275145542E0
1.154806779E1,4.248832476E-1,2.355667185E0,-9.795039314E-1,2.586333624E0
1.155809079E1,-2.423583180E-2,1.590803431E0,-3.317072815E-1,1.625199265E0
1.156811379E1,-2.926765323E-1,8.580479068E-1,4.109028473E-1,9.953627041E-1
1.157813679E1,-1.244082838E-1,4.025574088E-1,1.119859034E0,1.196500792E0
1.158815979E1,1.434038410E-1,2.860773647E-1,1.776963282E0,1.805547957E0
1.159818279E1,7.783141047E-2,4.882337362E-1,2.349973751E0,2.401417611E0
1.160820579E1,-4.892233774E-1,6.196744663E-1,2.679616673E0,2.793507020E0
1.161822779E1,-1.511859295E0,-2.226619720E-3,2.357901699E0,2.800968387E0
1.162825179E1,-2.900452852E0,-2.008764744E0,7.272050545E-1,3.602303393E0
1.163827379E1,-4.618637584E0,-5.132283027E0,-1.703538041E0,7.111552858E0
1.164829679E1,-6.243917660E0,-7.180076766E0,-2.401516665E0,9.813627892E0
1.165831979E1,-6.905959296E0,-6.462959620E0,-1.481796421E0,9.573810187E0
1.166834317E1,-5.621891443E0,-3.248221266E0,-3.660406700E-1,6.503121601E0
1.167836617E1,-2.773378530E0,6.895258892E-1,9.457377228E-1,3.010231597E0
1.168838917E1,-5.343533573E-1,3.101659051E0,2.270825548E0,3.881039944E0
1.169841217E1,5.570925942E-1,3.211532326E0,3.388084033E0,4.701425896E0
1.170843517E1,1.005262671E0,1.940554635E0,4.070764002E0,4.620327357E0
1.171845817E1,1.422898294E0,7.719108188E-1,4.209872478E0,4.510378271E0
1.172848117E1,1.642477030E0,-3.351267332E-1,4.301745977E0,4.616823494E0
1.173850417E1,1.791487473E0,-1.501768463E0,4.640572828E0,5.196118942E0
1.174852717E1,1.815008483E0,-2.453588752E0,4.971482842E0,5.833523395E0
1.175855017E1,1.647112702E0,-2.877589070E0,4.989342577E0,5.990579142E0
1.176857317E1,1.221376053E0,-2.559177772E0,4.601841749E0,5.405376750E0
1.177859617E1,7.560002527E-1,-1.563333212E0,3.974844815E0,4.337618980E0
1.178861917E1,5.484384227E-1,-3.312897903E-1,3.090660439E0,3.156377603E0
1.179864217E1,6.018597543E-1,6.385165340E-1,1.942793388E0,2.131756242E0
1.180866517E1,4.994513270E-1,1.028852677E0,9.527114046E-1,1.488505452E0
1.181868817E1,2.020712945E-1,8.174313927E-1,3.380415702E-1,9.073582495E-1
1.182871117E1,-1.750554040E-1,2.965520668E-1,-4.421664476E-3,3.443937774E-1
1.183873417E1,-4.098295909E-1,-1.143855715E-1,2.427654304E-2,4.261850573E-1
1.184875717E1,-5.078001277E-1,-3.536612374E-1,2.947721744E-1,6.854399137E-1
1.185878017E1,-5.483967613E-1,-2.478815979E-1,4.331172236E-1,7.414680194E-1
1.186880317E1,-5.172489358E-1,1.174799180E-1,4.156925210E-1,6.739052343E-1
1.187882617E1,-4.522651738E-1,4.637748331E-1,5.095146775E-1,8.241578064E-1
1.188884917E1,-4.395303766E-1,7.234648830E-1,5.273767884E-1,9.973538318E-1
1.189887217E1,-4.553867099E-1,9.928238887E-1,2.877087379E-1,1.129536475E0
1.190889417E1,-4.557894368E-1,1.222719451E0,-9.926233292E-2,1.308678676E0
1.191891717E1,-4.753109510E-1,1.327715564E0,-4.969022334E-1,1.495212677E0
1.192894017E1,-4.261444920E-1,1.218728142E0,-7.982642198E-1,1.517933851E0
1.193896317E1,-2.584885933E-1,9.372952205E-1,-1.042677249E0,1.425662839E0
1.194898617E1,3.898060933E-2,4.765369660E-1,-1.133128413E0,1.229872745E0
1.195900917E1,3.502455863E-1,-2.100378335E-2,-1.077997355E0,1.133662837E0
1.196903217E1,6.024798515E-1,-4.061487687E-1,-9.171714431E-1,1.170103521E0
1.197905517E1,8.618620455E-1,-5.893437892E-1,-6.499764919E-1,1.229878745E0
1.198907817E1,1.160324690E0,-6.131507277E-1,-3.366049093E-1,1.354846879E0
1.199910117E1,1.476001976E0,-4.656038421E-1,-9.047166545E-2,1.550339928E0
1.200912417E1,1.743767469E0,-2.892477250E-1,8.703226011E-2,1.769735530E0
1.201914717E1,1.946865242E0,-2.300785804E-1,1.476913118E-1,1.965968756E0
1.202917017E1,2.039545365E0,-2.632691306E-1,1.706989360E-1,2.063539206E0
1.203919317E1,1.902392343E0,-3.034535354E-1,6.412232101E-2,1.927509364E0
1.204921617E1,1.459434768E0,-3.032401121E-1,-2.503801862E-1,1.511487560E0
1.205923917E1,9.148195468E-1,-1.766601723E-1,-5.815109322E-1,1.098298040E0
1.206926217E1,3.387157542E-1,4.624095082E-2,-8.420721442E-1,9.088190599E-1
1.207928517E1,-1.305129232E-1,4.548309320E-1,-1.175630142E0,1.267284905E0
1.208930817E1,-5.591125149E-1,7.560175020E-1,-1.507471398E0,1.776693357E0
1.209933117E1,-9.576749597E-1,8.714503098E-1,-1.685386822E0,2.125346021E0
1.210935417E1,-1.187297750E0,9.539048213E-1,-1.759732414E0,2.327287805E0
1.211937717E1,-1.254695827E0,9.771223605E-1,-1.799394224E0,2.401426514E0
1.212940017E1,-1.230978059E0,8.320272124E-1,-1.830242965E0,2.357406535E0
1.213942317E1,-1.120203289E0,5.506001383E-1,-1.826718848E0,2.212446083E0
1.214944617E1,-8.713890602E-1,2.725895923E-1,-1.873206551E0,2.083873020E0
1.215946917E1,-5.197538830E-1,2.504947186E-3,-1.912216250E0,1.981595661E0
1.216949217E1,-1.997797707E-1,-2.741589850E-1,-1.933042278E0,1.962581860E0
1.217951517E1,6.461641073E-2,-5.117921680E-1,-1.961908813E0,2.028593772E0
1.218953817E1,3.111380924E-1,-6.036735606E-1,-1.929775878E0,2.045791685E0
1.219956117E1,5.963366206E-1,-3.817074072E-1,-1.834172732E0,1.966089398E0
1.220958417E1,8.503231502E-1,-9.490206420E-2,-1.699576991E0,1.902792109E0
1.221960717E1,1.056093101E0,2.033971506E-1,-1.639042667E0,1.960398915E0
1.222963017E1,1.251519766E0,4.374296182E-1,-1.713478015E0,2.166484088E0
1.223965317E1,1.406489399E0,4.810071623E-1,-1.872283130E0,2.390611729E0
1.224967617E1,1.536754254E0,4.078625876E-1,-2.012796107E0,2.565017290E0
1.225969917E1,1.522040759E0,2.572979540E-1,-2.171825609E0,2.664514362E0
1.226972217E1,1.371253639E0,1.729483598E-1,-2.269844093E0,2.657525143E0
1.227974417E1,1.177007966E0,-3.127441764E-2,-2.307174472E0,2.590247070E0
1.228976717E1,1.017504986E0,-4.213228780E-1,-2.259098665E0,2.513236189E0
1.229979017E1,9.883542770E-1,-1.051680207E0,-2.156765082E0,2.595093650E0
1.230981317E1,9.603309113E-1,-1.723447518E0,-2.214548436E0,2.965928452E0
1.231983617E1,8.381460312E-1,-2.763837336E0,-2.359101840E0,3.729161713E0
1.232985917E1,5.778654125E-1,-4.179094489E0,-2.146138644E0,4.733357188E0
1.233988217E1,7.743317123E-1,-4.041187323E0,-2.351326797E0,4.739147844E0
1.234990517E1,1.068050511E0,-3.698221813E0,-2.269408475E0,4.468533462E0
1.235992817E1,1.234675399E0,-3.496122744E0,-1.726988007E0,4.090206004E0
1.236995117E1,1.356324236E0,-3.457239929E0,-7.717044121E-1,3.793105728E0
1.237997417E1,1.416226037E0,-3.401394927E0,2.423536402E-1,3.692413699E0
1.238999717E1,1.235886942E0,-3.020927714E0,8.777799207E-1,3.379928753E0
1.240002017E1,5.995952739E-1,-2.226245499E0,1.162118323E0,2.581899012E0
1.241004317E1,-2.240435229E-1,-1.276895658E0,1.022435504E0,1.651070072E0
1.242006617E1,-9.986611640E-1,-4.515436274E-1,5.015355670E-1,1.205302324E0
1.243008917E1,-1.769518168E0,8.125992537E-2,-3.716884956E-2,1.771772911E0
1.244011217E1,-2.413573916E0,1.700978422E-1,-3.991181497E-1,2.452257658E0
1.245013517E1,-2.876989145E0,-6.459477603E-2,-4.331027517E-1,2.910123197E0
1.246015817E1,-3.250347898E0,-2.826345241E-1,2.986289978E-2,3.262749688E0
1.247018117E1,-3.552119190E0,-4.701161385E-1,1.129562196E0,3.756923033E0
1.248020417E1,-3.746764520E0,-7.702022624E-1,2.575291529E0,4.611245206E0
1.249022717E1,-3.746125127E0,-1.278100185E0,3.585105672E0,5.340409744E0
1.250025017E1,-3.323943293E0,-1.852554624E0,3.694954973E0,5.304078611E0
1.251027317E1,-2.389948241E0,-2.107791435E0,2.850719944E0,4.275656853E0
1.252029617E1,-1.217728560E0,-1.942433930E0,2.041488687E0,3.069786390E0
1.253031917E1,-2.435403326E-1,-1.722193875E0,1.642755357E0,2.392469184E0
1.254034217E1,5.069427797E-1,-1.610982757E0,1.496810024E0,2.256700395E0
1.255036517E1,1.251470211E0,-1.592980934E0,1.517575825E0,2.531166199E0
1.256038817E1,1.976118278E0,-1.575260362E0,1.696250217E0,3.043641479E0
1.257041117E1,2.529499059E0,-1.550193933E0,1.766080152E0,3.452608554E0
1.258043417E1,2.815748917E0,-1.559323191E0,1.834516110E0,3.704778014E0
1.259045717E1,2.807948439E0,-1.423946700E0,1.960446424E0,3.708847371E0
1.260048017E1,2.514289867E0,-1.181834550E0,2.147032099E0,3.511144154E0
1.261050317E1,2.084712182E0,-7.846027851E-1,2.357294173E0,3.243217882E0
1.262052617E1,1.553368971E0,-3.086762685E-1,2.574371469E0,3.022519588E0
1.263054917E1,9.809066784E-1,2.727439588E-1,2.742112007E0,2.925020587E0
1.264057217E1,5.719129470E-1,8.188218606E-1,2.877298755E0,3.045718599E0
1.265059517E1,3.190547839E-1,1.421197924E0,2.909766005E0,3.253972603E0
1.266061817E1,5.446096659E-2,1.849964892E0,3.112277887E0,3.620995684E0
1.267064054E1,-2.565781617E-1,2.063708691E0,3.412502005E0,3.996235210E0
1.268066354E1,-5.611289272E-1,2.124913836E0,3.530410524E0,4.158596272E0
1.269068654E1,-8.282572201E-1,2.069281672E0,3.531317427E0,4.175899835E0
1.270070954E1,-9.774003956E-1,2.046561731E0,3.336557784E0,4.034395159E0
1.271073254E1,-8.471469426E-1,2.172037132E0,2.971346541E0,3.776811289E0
1.272075554E1,-6.178594905E-1,2.143530201E0,2.606361586E0,3.430684012E0
1.273077854E1,-3.108099174E-1,1.983381397E0,2.198706282E0,2.977366938E0
1.274080154E1,-1.236499000E-1,1.705252152E0,1.828161210E0,2.503067640E0
1.275082454E1,-1.172562620E-1,1.327705624E0,1.416431859E0,1.944949990E0
1.276084754E1,-2.842793459E-1,1.063672262E0,9.103714237E-1,1.428632058E0
1.277087054E1,-4.625235289E-1,8.991824841E-1,4.221634153E-1,1.095755038E0
1.278089354E1,-7.128451699E-1,6.518932092E-1,-1.058901519E-2,9.660357756E-1
1.279091654E1,-8.985012835E-1,4.134577882E-1,-4.797485492E-1,1.099277294E0
1.280093954E1,-1.007992151E0,2.597409207E-1,-1.019489823E0,1.457008244E0
1.281096254E1,-1.055015167E0,2.858183330E-1,-1.535513475E0,1.884821146E0
1.282098554E1,-8.613109455E-1,5.038650978E-1,-1.771527126E0,2.033235092E0
1.283100854E1,-5.986747760E-1,6.877120829E-1,-1.669555778E0,1.902308043E0
1.284103054E1,-6.033817846E-1,7.244945776E-1,-1.262202044E0,1.575473253E0
1.285105354E1,-8.143423086E-1,7.587235934E-1,-6.740790072E-1,1.301229186E0
1.286107654E1,-9.808704257E-1,8.731787467E-1,-2.927054760E-1,1.345445804E0
1.287109954E1,-1.114986842E0,9.939646804E-1,-1.553877094E-1,1.501767886E0
1.288112254E1,-1.043747874E0,1.123389291E0,-7.625821710E-2,1.535326818E0
1.289114554E1,-9.094142345E-1,1.124662229E0,-1.991935873E-1,1.459992283E0
1.290116854E1,-7.245767310E-1,9.337500536E-1,-4.470183210E-1,1.263616232E0
1.291119154E1,-4.189111939E-1,5.734504724E-1,-7.237706923E-1,1.013990162E0
1.292121454E1,-5.344588995E-2,1.347672111E-1,-1.064210352E0,1.074040194E0
1.293123754E1,3.684602478E-1,-3.386613750E-1,-1.594186337E0,1.670893342E0
1.294126054E1,8.514984405E-1,-6.792727965E-1,-2.516118876E0,2.741772296E0
1.295128354E1,1.227852137E0,-7.733159047E-1,-3.480741643E0,3.771100734E0
1.296130654E1,1.355639234E0,-8.119706780E-1,-3.894779475E0,4.203137076E0
1.297132954E1,1.334030264E0,-6.876261288E-1,-3.522927258E0,3.829292742E0
1.298135254E1,1.259303287E0,-3.130219191E-1,-2.710159312E0,3.004794666E0
1.299137554E1,1.220229561E0,3.042370623E-1,-1.655449370E0,2.078949972E0
1.300139854E1,1.196610610E0,9.705635387E-1,-7.803445503E-1,1.727080818E0
1.301142154E1,1.202090621E0,1.523101444E0,-3.985479730E-1,1.980833248E0
1.302144454E1,1.194623288E0,1.846958254E0,-3.702679145E-1,2.230577934E0
1.303146754E1,1.196344562E0,1.948274129E0,-4.706812719E-1,2.334213626E0
1.304149054E1,1.290810277E0,1.920351920E0,-4.156323677E-1,2.350891944E0
1.305151354E1,1.441361901E0,1.946174394E0,-1.434380472E-1,2.426044801E0
1.306153654E1,1.510762211E0,2.018856454E0,2.382693601E-1,2.532776368E0
1.307155954E1,1.109137872E0,1.847166415E0,5.307248676E-1,2.218981629E0
1.308158254E1,2.535096891E-1,1.395932105E0,7.096262777E-1,1.586336364E0
1.309160554E1,-6.622813725E-1,8.015404147E-1,8.390435788E-1,1.336068030E0
1.310162854E1,-1.538564552E0,9.242576838E-2,9.167795335E-1,1.793378966E0
1.311165154E1,-2.525118325E0,-7.847986668E-1,7.009338069E-1,2.735587635E0
1.312167454E1,-3.617578184E0,-1.890945688E0,1.143037105E-1,4.083578437E0
1.313169754E1,-4.905179510E0,-3.342534515E0,-6.962313299E-1,5.976458907E0
1.314172054E1,-6.178401947E0,-4.821139818E0,-1.359732870E0,7.953924392E0
1.315174354E1,-7.092712348E0,-5.616730691E0,-1.757141806E0,9.216386462E0
1.316176654E1,-7.276411983E0,-5.138542471E0,-1.861257474E0,9.100278537E0
1.317178954E1,-6.590233040E0,-3.237196341E0,-1.462090281E0,7.486542570E0
1.318181254E1,-4.677765213E0,-2.901739240E-1,-6.698393373E-1,4.734382012E0
1.319183554E1,-2.361351556E0,2.555902162E0,1.426533508E-1,3.482666652E0
1.320185854E1,-5.783633029E-1,4.274956666E0,9.119821854E-1,4.409248248E0
1.321188154E1,6.825495762E-1,4.481871502E0,1.679592816E0,4.834674561E0
1.322190454E1,1.554334931E0,3.158973459E0,2.333145465E0,4.223581200E0
1.323192754E1,1.972622520E0,1.199800705E0,2.979196136E0,3.769133979E0
1.324195054E1,2.205196399E0,-7.821247351E-1,3.912802056E0,4.559016362E0
1.325197354E1,2.546232913E0,-2.673477389E0,5.069193324E0,6.271164513E0
1.326199654E1,2.688804696E0,-3.934649300E0,6.005268230E0,7.666445221E0
1.327201954E1,2.926137916E0,-4.429946473E0,6.318818153E0,8.253131025E0
1.328204254E1,2.979576790E0,-4.040465192E0,5.637067891E0,7.548494633E0
1.329206554E1,2.607966354E0,-2.657337320E0,4.570005999E0,5.894733664E0
1.330208854E1,1.340177296E0,-8.409412926E-1,3.465781542E0,3.809842404E0
1.331211154E1,4.581873800E-1,3.549645817E-1,2.007902426E0,2.089882217E0
1.332213454E1,-1.671452907E-1,8.218442863E-1,6.223731025E-1,1.044372471E0
1.333215754E1,-9.197427562E-1,7.572074103E-1,-3.609555658E-1,1.244820758E0
1.334218054E1,-1.526645295E0,4.542602438E-1,-8.988817911E-1,1.828930480E0
1.335220354E1,-1.717202545E0,1.649669105E-1,-1.110526512E0,2.051650018E0
1.336222654E1,-1.168068158E0,-1.583800220E-1,-8.433754885E-1,1.449396311E0
1.337224954E1,-3.665574177E-1,-5.058712775E-1,-1.305683255E-1,6.382148364E-1
1.338227254E1,-9.212551385E-2,-6.421254355E-1,8.548489682E-1,1.073116463E0
1.339229554E1,4.158890605E-2,-3.881358361E-1,1.467410223E0,1.518443884E0
1.340231854E1,1.527088076E-1,2.036976975E-1,1.510244586E0,1.531551972E0
1.341234154E1,1.666704968E-1,8.966243273E-1,1.275648447E0,1.568117725E0
1.342236454E1,-1.709468579E-1,1.430711929E0,9.009226155E-1,1.699359000E0
1.343238754E1,-6.877600300E-1,1.582065936E0,5.231784511E-1,1.802681940E0
1.344241054E1,-1.128547412E0,1.529626937E0,2.071785450E-2,1.901001593E0
1.345243354E1,-1.407976054E0,1.467858120E0,-4.524821055E-1,2.083685217E0
1.346245654E1,-1.548679504E0,1.384382685E0,-7.692509204E-1,2.215100586E0
1.347247954E1,-1.568128367E0,1.248991576E0,-8.915390038E-1,2.194048388E0
1.348250254E1,-1.285452474E0,1.071620967E0,-8.364313352E-1,1.870929431E0
1.349252554E1,-6.720155248E-1,8.313764173E-1,-6.408823174E-1,1.246403529E0
1.350254854E1,-3.469591588E-2,5.683610559E-1,-2.912837620E-1,6.395970031E-1
1.351257154E1,5.269876197E-1,2.742811918E-1,9.157382905E-2,6.011088834E-1
1.352259454E1,1.046255599E0,-9.651998878E-3,3.991139835E-1,1.119837449E0
1.353261754E1,1.523110654E0,-3.029068208E-1,5.380450334E-1,1.643505724E0
1.354264054E1,1.874577285E0,-6.294627053E-1,5.623238057E-1,2.055838358E0
1.355266354E1,2.090438653E0,-9.733310258E-1,4.961882883E-1,2.358709364E0
1.356268654E1,2.175142880E0,-1.125936338E0,4.310058671E-1,2.486914804E0
1.357270954E1,2.185865504E0,-9.477003407E-1,3.451711533E-1,2.407340247E0
1.358273254E1,1.865032582E0,-5.304716831E-1,1.176296067E-1,1.942571354E0
1.359275554E1,1.026932890E0,-1.717403251E-1,-1.826051096E-1,1.057085865E0
1.360277854E1,3.429219487E-1,7.030750573E-2,-5.098339355E-1,6.184409835E-1
1.361280154E1,-1.440166292E-1,3.040645695E-1,-9.230221671E-1,9.824286095E-1
1.362282454E1,-6.759768672E-1,5.351605654E-1,-1.395159688E0,1.640064667E0
1.363284754E1,-1.138450110E0,6.918717921E-1,-1.964193905E0,2.373354783E0
1.364287054E1,-1.397378999E0,6.984879166E-1,-2.370030432E0,2.838590792E0
1.365289354E1,-1.475708738E0,6.261338854E-1,-2.560429076E0,3.020853683E0
1.366291654E1,-1.370879710E0,5.071389538E-1,-2.597072407E0,2.980148685E0
1.367294000E1,-1.064040198E0,3.602492952E-1,-2.555110449E0,2.791155765E0
1.368296300E1,-5.430263861E-1,1.502085382E-1,-2.500146037E0,2.562844214E0
1.369298600E1,9.538928345E-2,-1.502769506E-1,-2.393786353E0,2.400394839E0
1.370300900E1,6.426377977E-1,-3.791124129E-1,-2.233822905E0,2.355137859E0
1.371303200E1,1.050991698E0,-4.614347774E-1,-1.937670057E0,2.252125852E0
1.372305500E1,1.333005832E0,-4.424623168E-1,-1.372774646E0,1.963972423E0
1.373307800E1,1.552244844E0,-4.019826275E-1,-7.178587188E-1,1.756808251E0
1.374310100E1,1.688852613E0,-3.253162748E-1,-3.135170321E-1,1.748241046E0
1.375312400E1,1.659216292E0,-1.808912176E-1,-3.625447659E-1,1.707969275E0
1.376314700E1,1.245784378E0,-1.053808594E-1,-7.182310402E-1,1.441852860E0
1.377317000E1,6.302270825E-1,-5.185661674E-2,-1.336833127E0,1.478850261E0
1.378319300E1,1.371142834E-1,2.012143850E-2,-2.078576991E0,2.083191663E0
1.379321600E1,-2.151585326E-1,1.228903466E-1,-2.760503839E0,2.771601825E0
1.380323900E1,-4.461086404E-1,1.929598707E-1,-3.143485354E0,3.180840550E0
1.381326200E1,-5.574292476E-1,1.554739559E-1,-3.287043854E0,3.337597462E0
1.382328500E1,-6.504733591E-1,1.678384781E-2,-3.385667086E0,3.447628012E0
1.383330800E1,-6.911876678E-1,-1.881300706E-1,-3.558348228E0,3.629734898E0
1.384333100E1,-4.993976788E-1,-5.696252239E-1,-3.711561651E0,3.788081417E0
1.385335400E1,-1.091777489E-1,-1.145267817E0,-3.648195375E0,3.825295759E0
1.386337700E1,3.498102611E-1,-1.824284506E0,-3.000052570E0,3.528554463E0
1.387340000E1,7.448370409E-1,-2.505119678E0,-1.757417063E0,3.149431942E0
1.388342300E1,1.069648555E0,-3.071275164E0,-2.599350482E-1,3.262582627E0
1.389344600E1,1.336910457E0,-3.429256909E0,1.084800591E0,3.837176676E0
1.390346900E1,1.562617220E0,-3.310395294E0,2.087079427E0,4.213833186E0
1.391349200E1,1.855175054E0,-2.725083160E0,2.486162421E0,4.129013961E0
1.392351500E1,1.972222424E0,-2.084846376E0,2.148448879E0,3.584979538E0
1.393353800E1,1.385153202E0,-1.731054161E0,1.476920720E0,2.663924307E0
1.394356100E1,3.886578463E-1,-1.715266678E0,7.355342670E-1,1.906359189E0
1.395358400E1,-3.972484294E-1,-1.699058781E0,-1.139762664E-1,1.748598766E0
1.396360700E1,-9.424992424E-1,-1.575097809E0,-8.767619205E-1,2.034195024E0
1.397363000E1,-1.381144497E0,-1.454833447E0,-9.958610056E-1,2.239607024E0
1.398365300E1,-1.654975307E0,-1.250628211E0,-3.747141008E-1,2.107943274E0
1.399367600E1,-1.841814897E0,-1.072463551E0,7.398867881E-1,2.256079041E0
1.400369900E1,-2.010175970E0,-8.761029392E-1,1.775512880E0,2.821490701E0
1.401372200E1,-2.110684929E0,-7.482734495E-1,2.456480784E0,3.324033975E0
1.402374400E1,-2.153821886E0,-7.209312844E-1,2.699143742E0,3.527614998E0
1.403376800E1,-2.119173625E0,-7.381910956E-1,2.416669432E0,3.297895403E0
1.404379100E1,-1.922905545E0,-7.246594691E-1,1.735540144E0,2.689757735E0
1.405381400E1,-1.511203676E0,-5.804238617E-1,8.864017133E-1,1.845626291E0
1.406383700E1,-1.028137855E0,-4.063159990E-1,1.707902256E-1,1.118628375E0
1.407385900E1,-5.714285052E-1,-3.542950755E-1,-1.810626872E-1,6.963039809E-1
1.408388300E1,-2.422646163E-1,-5.456715202E-1,-1.011240864E-1,6.055374746E-1
1.409390500E1,-4.020516247E-2,-8.893550688E-1,3.070220912E-1,9.417172919E-1
1.410392900E1,-5.718284547E-2,-1.347339404E0,8.368135969E-1,1.587088638E0
1.411395100E1,-5.820479259E-2,-1.621004884E0,1.471322011E0,2.189939061E0
1.412397400E1,9.445475221E-2,-1.391542600E0,2.019189891E0,2.454066080E0
1.413399800E1,1.328510785E-1,-7.792555064E-1,2.624609284E0,2.741069581E0
1.414402100E1,4.325756983E-1,-1.120034158E-1,3.102379136E0,3.134393530E0
1.415404400E1,7.290153524E-1,4.474593472E-1,3.550373211E0,3.651962923E0
1.416406700E1,8.597278118E-1,8.553903472E-1,3.901047398E0,4.085216684E0
1.417409000E1,9.264256851E-1,1.004935226E0,4.020898654E0,4.246855937E0
1.418411200E1,8.813345893E-1,8.768016815E-1,3.748996695E0,3.949747848E0
1.419413600E1,7.217921408E-1,5.325497836E-1,3.219244511E0,3.341874981E0
1.420415800E1,5.492681426E-1,2.492744046E-1,2.772177512E0,2.837040955E0
1.421418100E1,4.198628283E-1,1.750404936E-1,2.468618727E0,2.510179752E0
1.422420400E1,3.143129843E-1,3.561521512E-1,2.366664044E0,2.413863232E0
1.423422700E1,1.554108059E-1,5.981163669E-1,2.520678827E0,2.595326079E0
1.424425100E1,-3.845479846E-2,9.199734288E-1,2.827844760E0,2.973976440E0
1.425427300E1,-3.209858268E-1,1.448106810E0,2.755005409E0,3.128913556E0
1.426429600E1,-5.985145622E-1,2.045232659E0,2.291951830E0,3.129574972E0
1.427431900E1,-8.465783009E-1,2.489937968E0,1.662128352E0,3.111134288E0
1.428434200E1,-1.031659633E0,2.604283778E0,9.746083501E-1,2.965885539E0
1.429436600E1,-1.198879768E0,2.481350162E0,3.435367835E-1,2.777126005E0
1.430438800E1,-1.275260485E0,2.158193264E0,-7.120242208E-2,2.507819223E0
1.431441200E1,-1.307687096E0,1.709259834E0,-3.245415187E-1,2.176451680E0
1.432443400E1,-1.227667073E0,1.263620140E0,-5.043925166E-1,1.832570356E0
1.433445800E1,-9.478906676E-1,9.128971285E-1,-5.548118877E-1,1.428178601E0
1.434448000E1,-5.160892868E-1,7.703016651E-1,-5.217099229E-1,1.063905095E0
1.435450300E1,-1.690906593E-1,7.914527982E-1,-5.845201287E-1,9.983250792E-1
1.436452700E1,4.158071995E-2,9.223257637E-1,-5.708852988E-1,1.085506239E0
1.437455000E1,1.378296903E-1,9.909650588E-1,-5.171742377E-1,1.126267270E0
1.438457300E1,1.914898807E-1,9.443668431E-1,-5.089855045E-1,1.089753804E0
1.439459600E1,9.670066774E-2,7.722148740E-1,-4.185241082E-1,8.836454379E-1
1.440461900E1,-6.496782839E-2,5.406855994E-1,-2.727834275E-1,6.090751469E-1
1.441464200E1,-2.313357317E-1,3.585383999E-1,-3.034511966E-1,5.235920489E-1
1.442466500E1,-3.086373845E-1,3.023823255E-1,-6.132477915E-1,7.501766190E-1
1.443468700E1,-2.830490917E-1,2.594093835E-1,-1.118137321E0,1.182218713E0
1.444471100E1,-2.178874281E-1,1.863712281E-1,-1.690939338E0,1.715075803E0
1.445473400E1,-6.342533290E-2,1.078635871E-2,-2.234145672E0,2.235071811E0
1.446475700E1,2.333381107E-1,-2.275052208E-1,-2.570053301E0,2.590632986E0
1.447478000E1,5.509527254E-1,-3.588588274E-1,-2.704856180E0,2.783626325E0
1.448480300E1,7.983656690E-1,-4.684432501E-1,-2.689792583E0,2.844610862E0
1.449482600E1,9.050349623E-1,-6.096307039E-1,-2.655593095E0,2.871047294E0
1.450484900E1,8.376794234E-1,-6.787003541E-1,-2.714243300E0,2.920523528E0
1.451487200E1,7.090678686E-1,-6.551103473E-1,-2.572051294E0,2.747252203E0
1.452489500E1,5.837240303E-1,-4.861269844E-1,-2.400624965E0,2.517946268E0
1.453491800E1,4.919996354E-1,-2.792641890E-1,-2.534575320E0,2.596945163E0
1.454494100E1,4.185662082E-1,6.088881075E-2,-2.647997270E0,2.681565710E0
1.455496400E1,3.476198941E-1,6.683016658E-1,-2.529485903E0,2.639273696E0
1.456498700E1,3.548727804E-1,1.499531903E0,-1.968630918E0,2.500007662E0
1.457501000E1,4.291078609E-1,2.167842924E0,-1.052575708E0,2.447772890E0
1.458503300E1,5.517295280E-1,2.263485830E0,-3.583553821E-2,2.330033854E0
1.459505600E1,7.474957699E-1,1.903530650E0,8.975572506E-1,2.233335595E0
1.460507900E1,1.109503030E0,1.526961776E0,1.599838841E0,2.474286474E0
1.461510200E1,1.496513570E0,1.477583209E0,2.216911004E0,3.055732220E0
1.462512500E1,1.743134508E0,1.575767900E0,2.671846016E0,3.558134838E0
1.463514800E1,1.529846207E0,1.377544366E0,2.675491755E0,3.375842714E0
1.464517100E1,8.628553413E-1,7.525506878E-1,2.220734790E0,2.498502529E0
1.465519400E1,-3.316014469E-2,-2.396855557E-1,1.398729998E0,1.419504973E0
1.466521700E1,-1.063685564E0,-1.748962428E0,9.944125772E-2,2.049435317E0
1.467523942E1,-2.339180961E0,-3.962024209E0,-1.856822214E0,4.961571539E0
1.468526242E1,-3.926108857E0,-6.423747607E0,-3.872056611E0,8.465913210E0
1.469528542E1,-5.474383734E0,-7.486127635E0,-4.596777183E0,1.035091033E1
1.470530842E1,-6.380577030E0,-6.276387248E0,-3.800014528E0,9.723420722E0
1.471533142E1,-6.699521009E0,-3.719365345E0,-2.328239358E0,8.008617785E0
1.472535442E1,-5.816692602E0,-2.880537236E-1,-9.060950625E-1,5.893886327E0
1.473537742E1,-3.969585829E0,3.039732944E0,3.784236109E-1,5.014059479E0
1.474540042E1,-2.444017737E0,4.872781257E0,1.495591172E0,5.652788058E0
1.475542342E1,-1.936301370E0,4.726478659E0,2.491440410E0,5.682969191E0
1.476544642E1,-1.766764861E0,3.559124154E0,3.252811915E0,5.135134679E0
1.477546942E1,-9.895766374E-1,2.466675405E0,3.397668496E0,4.313687597E0
1.478549242E1,2.686161169E-1,1.127476494E0,3.544283336E0,3.728981393E0
1.479551542E1,7.958042961E-1,-5.525724041E-1,4.157689587E0,4.269077587E0
1.480553842E1,9.834671742E-1,-2.037655837E0,5.023277478E0,5.509316257E0
1.481556142E1,1.443737479E0,-2.977365373E0,5.541602740E0,6.454335241E0
1.482558442E1,2.010894008E0,-3.070391065E0,5.436343503E0,6.559331268E0
1.483560742E1,2.618313587E0,-2.450145326E0,4.787518913E0,5.981564636E0
1.484563042E1,3.132574450E0,-1.459670849E0,3.898626359E0,5.209889553E0
1.485565342E1,3.186124420E0,-3.183265132E-1,3.085753455E0,4.446863499E0
1.486567642E1,1.900333831E0,-2.838940144E-2,2.310399650E0,2.991658598E0
1.487569942E1,4.920214163E-1,-3.033669966E-1,1.173671837E0,1.308289796E0
1.488572242E1,-2.901698309E-1,-3.602545577E-1,5.512170196E-2,4.658543540E-1
1.489574542E1,-8.563658090E-1,-3.772693706E-1,-5.942816897E-1,1.108541972E0
1.490576842E1,-1.240898591E0,-4.079666680E-1,-8.908781223E-1,1.581116676E0
1.491579142E1,-1.395205442E0,-4.995527762E-1,-1.000782388E0,1.788216036E0
1.492581442E1,-1.196959250E0,-5.590914649E-1,-8.684669872E-1,1.580990076E0
1.493583742E1,-7.684785032E-1,-5.574834806E-1,-4.169332270E-1,1.036909040E0
1.494586042E1,-6.161868945E-1,-3.334246087E-1,8.595407009E-3,7.006654977E-1
1.495588342E1,-5.919963786E-1,2.119627368E-1,2.877029272E-1,6.914917848E-1
1.496590642E1,-5.591613391E-1,8.609305841E-1,4.063745443E-1,1.104084754E0
1.497592942E1,-5.655001594E-1,1.372096515E0,4.854989934E-1,1.561457188E0
1.498595242E1,-5.921755958E-1,1.748243220E0,6.349585032E-1,1.951973001E0
1.499597542E1,-6.497347096E-1,1.937935082E0,6.736553764E-1,2.152105746E0
1.500599842E1,-6.487776665E-1,1.879938889E0,5.971621013E-1,2.076459791E0
1.501602142E1,-4.856556988E-1,1.574204355E0,3.968060875E-1,1.694531168E0
1.502604442E1,-9.693163276E-2,1.039995131E0,1.207824254E-1,1.051462795E0
1.503606742E1,2.768324782E-1,3.901811922E-1,-1.297146320E-1,4.956848489E-1
1.504609042E1,5.206648792E-1,-2.089765638E-1,-2.074954641E-1,5.981784753E-1
1.505611342E1,8.007234125E-1,-5.881550503E-1,-1.368061352E-1,1.002895939E0
1.506613642E1,1.129514395E0,-7.267492640E-1,-7.025137246E-2,1.344954466E0
1.507615942E1,1.477006966E0,-6.514377111E-1,-1.105421966E-1,1.618066824E0
1.508618242E1,1.819423569E0,-3.470264018E-1,-2.071060395E-1,1.863765640E0
1.509620542E1,1.999087895E0,-3.259296477E-2,-2.466548520E-1,2.014510692E0
1.510622842E1,1.903274250E0,1.427293646E-1,-2.865913349E-1,1.930015320E0
1.511625142E1,1.430218570E0,1.975154364E-1,-3.370358856E-1,1.482609420E0
1.512627442E1,7.527446692E-1,2.120071757E-1,-3.659796397E-1,8.634307593E-1
1.513629742E1,1.772356845E-1,2.855400056E-1,-4.775345740E-1,5.839390825E-1
1.514632042E1,-2.596087736E-1,4.865216714E-1,-5.862729046E-1,8.048701577E-1
1.515634342E1,-7.284648371E-1,5.551586276E-1,-6.594801177E-1,1.128616917E0
1.516636642E1,-1.100303898E0,6.466108346E-1,-9.278829575E-1,1.577891322E0
1.517638942E1,-1.290210645E0,6.944854975E-1,-1.333985679E0,1.981532591E0
1.518641242E1,-1.279149468E0,6.790394926E-1,-1.776347278E0,2.291882991E0
1.519643542E1,-1.130353032E0,6.536491281E-1,-2.140052131E0,2.506946007E0
1.520645842E1,-9.440686351E-1,5.803630507E-1,-2.291104130E0,2.545043221E0
1.521648142E1,-6.502944343E-1,5.486565238E-1,-2.230339865E0,2.387115989E0
1.522650442E1,-2.940585217E-1,4.913742757E-1,-1.945966964E0,2.028473938E0
1.523652742E1,7.930637062E-2,3.400097430E-1,-1.535627350E0,1.574816650E0
1.524655042E1,4.024375409E-1,2.338886261E-2,-1.187561898E0,1.254115734E0
1.525657342E1,5.048209713E-1,-4.201417404E-1,-9.864862378E-1,1.185123788E0
1.526659642E1,4.153707048E-1,-7.941916341E-1,-9.767371751E-1,1.325627656E0
1.527661942E1,4.031609876E-1,-9.405544585E-1,-1.291862192E0,1.648056247E0
1.528664242E1,6.476890612E-1,-8.671976298E-1,-1.883865879E0,2.172667370E0
1.529666542E1,9.809360607E-1,-7.383115482E-1,-2.403871923E0,2.699247992E0
1.530668842E1,1.307487998E0,-6.677298081E-1,-2.641748935E0,3.022288107E0
1.531671142E1,1.564303411E0,-6.055037391E-1,-2.502374995E0,3.012567104E0
1.532673442E1,1.659174485E0,-4.739753008E-1,-2.055788199E0,2.683985409E0
1.533675742E1,1.499975414E0,-3.329211634E-1,-1.502062870E0,2.148710220E0
1.534678042E1,1.119266126E0,-1.874605644E-1,-1.063787160E0,1.555487463E0
1.535680342E1,5.907130609E-1,-7.707098007E-2,-8.075419968E-1,1.003496853E0
1.536682642E1,1.026453857E-1,6.343118012E-2,-8.922758992E-1,9.003976178E-1
1.537684942E1,-3.777403638E-1,1.017058843E-1,-1.265196549E0,1.324293841E0
1.538687242E1,-9.599588822E-1,-1.143890798E-1,-1.774641206E0,2.020880335E0
1.539689542E1,-1.370205526E0,-4.551928747E-1,-2.453154011E0,2.846511609E0
1.540691842E1,-1.345978757E0,-7.725177598E-1,-3.216597185E0,3.571405879E0
1.541694142E1,-9.079527229E-1,-1.085560144E0,-3.875854962E0,4.126144770E0
1.542696442E1,-1.230207396E-1,-1.316196549E0,-4.101476502E0,4.309247841E0
1.543698742E1,6.063308278E-1,-1.569221358E0,-3.764011760E0,4.122848199E0
1.544701042E1,1.112454559E0,-1.811818242E0,-2.849069275E0,3.554917189E0
1.545703342E1,1.417671907E0,-2.177855696E0,-1.643350019E0,3.074646053E0
1.546705642E1,1.550678814E0,-2.665301228E0,-5.130845489E-1,3.125970437E0
1.547707942E1,1.510590303E0,-3.057700269E0,4.548239154E-1,3.440679990E0
1.548710242E1,1.424370185E0,-3.089528418E0,1.073667492E0,3.567461023E0
1.549712542E1,1.271865006E0,-2.547012640E0,1.287230612E0,3.124400203E0
1.550714842E1,8.455089913E-1,-1.749045458E0,1.152500969E0,2.258828005E0
1.551717142E1,1.588535003E-1,-1.201752505E0,7.611665601E-1,1.431369292E0
1.552719442E1,-5.382278685E-1,-9.808429438E-1,2.413141514E-1,1.144541235E0
1.553721742E1,-1.189503758E0,-9.215282035E-1,-1.870277242E-1,1.516282556E0
1.554724042E1,-1.683633973E0,-8.740353638E-1,-3.422854793E-1,1.927620429E0
1.555726342E1,-1.942959449E0,-8.192352587E-1,-1.858384737E-1,2.116783826E0
1.556728642E1,-2.092262253E0,-8.692301220E-1,3.384643239E-1,2.290781622E0
1.557730942E1,-2.065549541E0,-1.119014989E0,1.339662010E0,2.704326857E0
1.558733242E1,-1.874574361E0,-1.427191905E0,2.311135960E0,3.300341679E0
1.559735542E1,-1.578625142E0,-1.665974650E0,2.815985144E0,3.632808997E0
1.560737842E1,-1.207927604E0,-1.902140767E0,2.966687772E0,3.725381179E0
1.561740142E1,-8.517693128E-1,-2.081227534E0,2.784399655E0,3.579092126E0
1.562742442E1,-5.328298652E-1,-2.049895813E0,2.299080902E0,3.125980407E0
1.563744742E1,-2.570753212E-1,-1.859520997E0,1.669205822E0,2.512002017E0
1.564747042E1,3.526704267E-2,-1.571671926E0,1.171777193E0,1.960728996E0
1.565749342E1,3.415626173E-1,-1.213167440E0,8.992865646E-1,1.548275358E0
1.566751642E1,6.380601588E-1,-8.706960189E-1,8.509394467E-1,1.374529107E0
1.567753963E1,9.015497294E-1,-5.268475789E-1,1.000775371E0,1.446344229E0
1.568756263E1,1.002137188E0,-1.571485984E-1,1.360626032E0,1.697138128E0
1.569758563E1,9.202258824E-1,2.428079689E-1,1.833278839E0,2.065594996E0
1.570760863E1,7.366914310E-1,6.401081461E-1,2.329349306E0,2.525533784E0
1.571763163E1,3.773129323E-1,9.245670015E-1,2.801216247E0,2.973886624E0
1.572765463E1,-1.577252801E-1,1.060323561E0,3.255692253E0,3.427636994E0
1.573767763E1,-6.442430046E-1,1.095667641E0,3.596027978E0,3.814046912E0
1.574770063E1,-9.841007200E-1,1.042249233E0,3.708319370E0,3.975722606E0
1.575772363E1,-1.162627908E0,9.756453538E-1,3.690814268E0,3.990701375E0
1.576774663E1,-1.269631662E0,9.195968682E-1,3.490290439E0,3.826192664E0
1.577776963E1,-1.237313224E0,9.027574718E-1,3.199112256E0,3.546862598E0
1.578779263E1,-1.056945917E0,9.227327299E-1,2.957759951E0,3.273669851E0
1.579781563E1,-7.425180352E-1,1.038038068E0,2.629876456E0,2.923201368E0
1.580783863E1,-2.798594356E-1,1.299275876E0,2.122383454E0,2.504186620E0
1.581786163E1,1.313910288E-1,1.588659257E0,1.603995042E0,2.261393802E0
1.582788463E1,3.813118431E-1,1.464034041E0,1.479512498E0,2.116069854E0
1.583790763E1,5.512605813E-1,1.406987436E0,1.235622210E0,1.951989784E0
1.584793063E1,6.557804382E-1,1.441487178E0,9.325697932E-1,1.837830157E0
1.585795363E1,5.725511706E-1,1.429203347E0,6.536356795E-1,1.672625676E0
1.586797663E1,1.779831049E-1,1.434385149E0,4.782908383E-1,1.522465392E0
1.587799963E1,-3.290292567E-1,1.520726305E0,2.717350218E-1,1.579464678E0
1.588802263E1,-6.824145055E-1,1.357079111E0,1.926049447E-1,1.531159670E0
1.589804563E1,-7.825866652E-1,1.156298005E0,2.587539107E-2,1.396472879E0
1.590806863E1,-7.096476200E-1,1.139971994E0,-3.057588002E-1,1.377179849E0
1.591809163E1,-6.462728655E-1,1.123008052E0,-6.834047315E-1,1.464874646E0
1.592811463E1,-4.749506164E-1,1.175030730E0,-1.044374696E0,1.642252663E0
1.593813763E1,-3.738285765E-1,1.233689412E0,-1.286469597E0,1.821192300E0
1.594816063E1,-3.918111035E-1,1.246068553E0,-1.312121624E0,1.851449685E0
1.595818363E1,-4.838231814E-1,1.173984078E0,-1.074314779E0,1.663272597E0
1.596820663E1,-6.245925593E-1,9.965930039E-1,-8.064880362E-1,1.426091313E0
1.597822963E1,-7.288642019E-1,7.363802129E-1,-5.866265881E-1,1.190642514E0
1.598825263E1,-6.769330332E-1,5.321913493E-1,-4.951781818E-1,9.933113285E-1
1.599827563E1,-3.904741377E-1,4.427903455E-1,-6.355783081E-1,8.674636177E-1
1.600829863E1,7.735720128E-2,4.596221405E-1,-1.053867651E0,1.152334011E0
1.601832163E1,7.069193092E-1,4.402924150E-1,-1.537769769E0,1.748807646E0
1.602834463E1,1.297271743E0,1.590308172E-1,-1.955114202E0,2.351738999E0
1.603836763E1,1.688911523E0,-3.807940722E-1,-2.313890584E0,2.889898941E0
1.604839063E1,1.826184266E0,-1.076353703E0,-2.692801852E0,3.427049472E0
1.605841363E1,1.741881742E0,-1.563426182E0,-2.979433241E0,3.788862081E0
1.606843663E1,1.554892171E0,-1.760301349E0,-3.235477259E0,3.998082490E0
1.607845963E1,1.401801248E0,-1.644344046E0,-3.325559756E0,3.965887261E0
1.608848263E1,1.223243654E0,-1.128515545E0,-3.038712898E0,3.464628183E0
1.609850563E1,1.042916400E0,-3.561848956E-1,-2.205365969E0,2.465396794E0
1.610852863E1,9.704202819E-1,5.053467822E-1,-1.160690141E0,1.595083853E0
1.611855163E1,1.032353698E0,1.226482719E0,-5.057139874E-1,1.680999897E0
1.612857463E1,9.964528169E-1,1.796394457E0,-3.847254476E-1,2.089967686E0
1.613859763E1,8.949243955E-1,2.210096658E0,-4.861971509E-1,2.433475823E0
1.614862063E1,8.889960498E-1,2.435402157E0,-5.938382515E-1,2.659725834E0
1.615864363E1,8.842791009E-1,2.509267108E0,-6.198077828E-1,2.731763650E0
1.616866663E1,8.470200580E-1,2.342310975E0,-5.655774888E-1,2.554161620E0
1.617868963E1,6.460825387E-1,1.712988018E0,-3.659927228E-1,1.867003286E0
1.618871263E1,2.078898588E-1,5.983502555E-1,-1.846927848E-1,6.598125843E-1
1.619873563E1,-4.710899922E-1,-6.088080007E-1,-2.753980100E-1,8.175677503E-1
1.620875863E1,-1.262631814E0,-1.532240058E0,-5.612423632E-1,2.063247848E0
1.621878163E1,-2.171457527E0,-2.042679765E0,-7.376002344E-1,3.071127239E0
1.622880463E1,-3.194697608E0,-2.356061288E0,-6.772894210E-1,4.026889439E0
1.623882763E1,-4.387741855E0,-3.016021315E0,-7.344545786E-1,5.374763873E0
1.624885063E1,-5.824074712E0,-4.202245370E0,-1.102757975E0,7.266002171E0
1.625887363E1,-6.857379459E0,-4.971049563E0,-1.137727540E0,8.545724707E0
1.626889663E1,-6.923335467E0,-4.288761942E0,-6.138345596E-1,8.167181022E0
1.627891963E1,-6.273836693E0,-2.269689726E0,1.263843504E-1,6.672967204E0
1.628894263E1,-4.704100488E0,4.627726203E-1,8.584054640E-1,4.804121130E0
1.629896563E1,-2.627358060E0,3.216774355E0,1.325829544E0,4.359870596E0
1.630898863E1,-6.976976654E-1,4.754525414E0,1.745951989E0,5.112792025E0
1.631901163E1,5.755420214E-1,4.050760970E0,2.672783325E0,4.887093589E0
1.632903463E1,1.424696606E0,2.175395772E0,3.439671385E0,4.312011877E0
1.633905763E1,1.783735819E0,2.083649451E-1,3.884938027E0,4.279938422E0
1.634908063E1,1.944516708E0,-1.690530617E0,4.524251536E0,5.206523884E0
1.635910363E1,2.414513271E0,-3.244042261E0,5.161204525E0,6.556806896E0
1.636912663E1,2.685381151E0,-4.146451823E0,5.564064234E0,7.440641468E0
1.637914963E1,3.009489683E0,-4.338215353E0,5.648519078E0,7.731940790E0
1.638917263E1,3.198952042E0,-3.756664149E0,5.413001418E0,7.324370556E0
1.639919563E1,2.905784928E0,-2.329937097E0,4.878872302E0,6.138044303E0
1.640921862E1,2.164732059E0,-5.914470327E-1,3.842269725E0,4.449596736E0
1.641924163E1,1.215358538E0,4.172947311E-1,2.440951749E0,2.758527997E0
1.642926463E1,4.226023950E-1,8.125811273E-1,9.785363634E-1,1.340303804E0
1.643928763E1,-2.995300537E-1,9.605367333E-1,1.658489630E-2,1.006292268E0
