"Time (s)","Linear Acceleration x (m/s^2)","Linear Acceleration y (m/s^2)","Linear Acceleration z (m/s^2)","Absolute acceleration (m/s^2)"
8.722916664E-4,6.130605344E-1,1.657574540E-1,2.046939461E0,2.143193857E0
1.089329167E-2,2.705215783E-1,1.900099504E-1,1.210374810E0,1.254708287E0
2.091429167E-2,-4.267137185E-2,2.288281533E-1,5.538324791E-1,6.007608381E-1
3.093629167E-2,-5.991773441E-1,3.431353721E-1,-1.310331792E-1,7.027980274E-1
4.095729167E-2,-7.452497081E-1,1.886735693E-1,-2.934395939E-1,8.228618587E-1
5.097829167E-2,-4.626982145E-1,-6.011230052E-3,9.471436858E-2,4.723310113E-1
6.100029167E-2,-4.635571705E-1,-2.526783612E-1,5.152543044E-1,7.377117342E-1
7.102129167E-2,-4.623840728E-1,-2.249178278E-1,7.919240838E-1,9.442090948E-1
8.104229167E-2,-3.431836116E-1,-1.756222916E-1,7.126843715E-1,8.102698279E-1
9.106429167E-2,-7.413231567E-2,-3.875440979E-1,2.409508932E-1,4.623238702E-1
1.010852917E-1,3.021256328E-2,-4.844038099E-1,-1.303788757E-1,5.025519886E-1
1.111062917E-1,-1.892474735E-1,-3.822941753E-1,-4.195605272E-1,5.983263981E-1
1.211282917E-1,-4.218010341E-1,-2.415622196E-1,-4.938102257E-1,6.929047245E-1
1.311492917E-1,-3.908447050E-1,-2.275274402E-1,-5.206430984E-1,6.896358135E-1
1.411702917E-1,-1.933646442E-1,-3.344879249E-1,-6.187938756E-1,7.295052556E-1
1.511922917E-1,-1.772808543E-1,-3.049431136E-1,-5.445365757E-1,6.487980318E-1
1.612132917E-1,-1.951840053E-1,-2.326574948E-1,-4.635567319E-1,5.541760998E-1
1.712342917E-1,-2.169739468E-1,-1.519638723E-1,-5.469742799E-1,6.077430172E-1
1.812562917E-1,-3.906980860E-1,-1.109450698E-1,-6.676619804E-1,7.814898099E-1
1.912772917E-1,-4.381691448E-1,-9.144606739E-2,-4.949147648E-1,6.673044336E-1
2.012982917E-1,-6.065929292E-1,-9.134549528E-2,-2.541182381E-1,6.639842319E-1
2.113202917E-1,-5.035053478E-1,-2.059661248E-1,-3.151310098E-1,6.286869119E-1
2.213412917E-1,-1.474066986E-1,-7.256950110E-2,-3.146059299E-1,3.549252856E-1
2.313622917E-1,-7.197863996E-2,2.065587401E-2,-3.259436810E-1,3.344351550E-1
2.413842917E-1,-1.763546553E-1,3.210092157E-2,-4.741483784E-1,5.069005014E-1
2.514052917E-1,-1.957405141E-1,2.006255704E-1,-7.122493386E-1,7.654175911E-1
2.614262917E-1,-2.289012435E-1,3.640289354E-1,-1.005591869E0,1.093676301E0
2.714482917E-1,-3.371258962E-1,3.965587503E-1,-1.119588016E0,1.234661912E0
2.814692917E-1,-2.829429647E-1,4.339242125E-1,-1.279959599E0,1.380812630E0
2.914902917E-1,-2.049142107E-1,3.286886564E-1,-1.233963062E0,1.293325522E0
3.015122917E-1,-1.774817061E-1,2.384716737E-1,-1.181326427E0,1.218154597E0
3.115332917E-1,-3.282764277E-1,1.369800898E-1,-1.367243326E0,1.412757329E0
3.215542917E-1,-5.535211149E-1,1.001411694E-1,-1.644217161E0,1.737775575E0
3.315762917E-1,-9.561653548E-1,1.103430989E-1,-1.709107221E0,1.961498223E0
3.415972917E-1,-1.436622879E0,3.282422215E-2,-1.748451966E0,2.263193983E0
3.516182917E-1,-1.807376989E0,-2.326048699E-1,-1.751786633E0,2.527740694E0
3.616402917E-1,-1.671871567E0,-4.146453577E-1,-1.676471572E0,2.403672657E0
3.716612917E-1,-1.342448793E0,-3.961260563E-1,-1.740013264E0,2.233098917E0
3.816822917E-1,-1.115079228E0,-4.429280475E-1,-9.078971744E-1,1.504614309E0
3.917042917E-1,-1.356653434E0,-5.216280618E-1,4.856621307E-1,1.532472538E0
4.017252917E-1,-2.069589821E0,-5.790968361E-1,3.911202550E-2,2.149438280E0
4.117462917E-1,-2.159617061E0,-4.707815516E-1,-6.633607686E-2,2.211330277E0
4.217682917E-1,-1.965563176E0,2.044362009E-2,8.946590781E-2,1.967704421E0
4.317892917E-1,-1.637434391E0,3.307921922E-1,2.303112996E-1,1.686314963E0
4.418102917E-1,-1.230965779E0,7.050172099E-1,2.464735883E-1,1.439817782E0
4.518322917E-1,-7.500521725E-1,1.079224101E0,2.931250137E-1,1.346560506E0
4.618532917E-1,-3.722097749E-1,1.185514787E0,2.882086748E-1,1.275558571E0
4.718742917E-1,-1.574058759E-1,9.907870111E-1,-4.015984654E-2,1.004016098E0
4.818962917E-1,5.949366510E-2,9.630580527E-1,-3.507586795E-1,1.026670327E0
4.919172917E-1,1.567901641E-1,8.192867142E-1,-1.077092206E-1,8.410797536E-1
5.019382917E-1,1.438941300E-2,7.316100544E-1,1.034471852E-1,7.390275008E-1
5.119602917E-1,-1.021216214E-2,7.101674375E-1,4.969876027E-1,8.668556713E-1
5.219812917E-1,-1.868916303E-1,5.890040660E-1,1.440783173E0,1.567708654E0
5.320022917E-1,-6.568212426E-1,6.314028114E-1,2.198063089E0,2.379404337E0
5.420242917E-1,-1.184355285E0,7.904353827E-1,2.152677585E0,2.580989407E0
5.520452917E-1,-1.624191617E0,9.837779537E-1,1.580151558E0,2.470363620E0
5.620662917E-1,-1.282482088E0,1.345148453E0,1.306126474E0,2.271596582E0
5.720882917E-1,-1.012212086E0,1.437918330E0,1.152634140E0,2.102557464E0
5.821092917E-1,-1.090120388E0,1.217919472E0,1.431905345E0,2.173026281E0
5.921302917E-1,-1.079444541E0,8.264752811E-1,2.014440637E0,2.430274262E0
6.021522917E-1,-7.752893400E-1,5.414287806E-1,2.423600137E0,2.601548829E0
6.121732917E-1,-2.130737078E-1,4.710297659E-1,2.415544428E0,2.470247827E0
6.221942917E-1,2.794542235E-1,1.836522728E-1,2.136120025E0,2.162135884E0
6.322162917E-1,4.660265958E-1,3.742218018E-5,1.642147831E0,1.706994519E0
6.422372917E-1,2.592403990E-1,-1.093335772E-1,1.269298371E0,1.300106830E0
6.522582917E-1,2.045619160E-1,-1.213162762E-1,1.270563124E0,1.292630600E0
6.622802917E-1,1.544290584E-1,-8.301420701E-1,1.233878278E0,1.495138721E0
6.723012917E-1,-4.496070296E-1,-3.422492850E0,1.211452451E0,3.658308466E0
6.823222917E-1,-4.783396626E-1,-3.403866545E0,1.595167792E0,3.789416390E0
6.923442917E-1,6.802978134E-1,-7.114365757E-1,1.335011719E0,1.658675196E0
7.023652917E-1,1.572365406E0,4.233121008E-1,1.190393119E0,2.017067644E0
7.123862917E-1,1.334613524E0,-5.469146383E-1,3.086920559E-1,1.474991412E0
7.224082500E-1,1.171820024E0,4.082701385E-2,-1.945152301E-1,1.188555925E0
7.324292500E-1,1.315779642E0,1.779267377E0,-3.374299514E-1,2.238510094E0
7.424502500E-1,1.827247875E0,2.144845240E0,-4.238880515E-1,2.849364312E0
7.524722500E-1,2.052676749E0,6.545232868E-1,4.512904429E-1,2.201260010E0
7.624932500E-1,1.446191263E0,-3.719203377E0,3.158574679E0,5.089257011E0
7.725142500E-1,4.809457666E-1,-4.257018578E0,1.752073147E0,4.628528526E0
7.825362500E-1,1.140519294E0,1.049647715E0,-2.749091828E0,3.155954762E0
7.925572500E-1,3.191223192E0,-8.327820879E-1,-1.361120707E0,3.567923913E0
8.025782500E-1,3.412167252E0,-1.728519393E0,-4.082830024E-1,3.846733635E0
8.126002500E-1,2.460842223E0,-8.897871780E-1,-1.404153875E0,2.969699273E0
8.226212500E-1,1.552829273E0,2.824363035E-1,-1.210670094E0,1.989163416E0
8.326422500E-1,1.114636009E0,9.428196698E-1,-1.809361827E0,2.324889800E0
8.426642500E-1,5.595592421E-1,6.468184108E-1,-1.535975551E0,1.758039105E0
8.526852500E-1,5.739392996E-2,2.102804929E-1,-5.887105358E-1,6.277675078E-1
8.627062500E-1,-4.072696799E-1,9.064763010E-2,-2.057395452E-1,4.652035527E-1
8.727282500E-1,-5.698643750E-1,-7.893331826E-2,4.165948194E-1,7.103007238E-1
8.827492500E-1,-2.114154375E-1,-4.254001415E-1,9.138882315E-1,1.029977411E0
8.927702500E-1,5.657274699E-1,-4.570020032E-1,1.248374110E0,1.444761683E0
9.027922500E-1,1.663261542E0,-1.022295610E0,1.388373702E0,2.395643715E0
9.128132500E-1,1.817640899E0,-3.748983246E-1,1.713987892E0,2.526286145E0
9.228342500E-1,1.010867811E0,1.528086780E0,1.480727257E0,2.355728369E0
9.328562500E-1,9.021557933E-1,1.888438402E0,1.151039604E0,2.388509335E0
9.428772500E-1,5.881983197E-1,1.321821570E0,8.632966599E-1,1.684776142E0
9.528982500E-1,-2.585223609E-1,8.600833225E-1,8.788584396E-1,1.256570448E0
9.629202500E-1,-1.282940510E0,8.935574627E-1,3.945826837E-1,1.612475360E0
9.729412500E-1,-1.887484721E0,1.665058976E-1,1.062482938E-1,1.897791212E0
9.829622500E-1,-2.667344829E0,-4.387931889E-1,-1.428147340E-1,2.706965820E0
9.929842500E-1,-2.606751888E0,4.939669311E-2,-3.644277155E-2,2.607474547E0
1.003005250E0,-1.453618396E0,1.098704685E0,1.239246606E0,2.203608535E0
1.013026250E0,-8.157397932E-1,5.641691869E-1,1.645747962E0,1.921511029E0
1.023048250E0,-3.890643740E-1,5.846981764E-1,1.893129038E0,2.019202962E0
1.033069250E0,-6.679654509E-1,8.303420448E-1,1.650936927E0,1.965003433E0
1.043090250E0,-1.382868841E0,4.657365739E-1,1.366321951E0,1.999017874E0
1.053112250E0,-1.213549848E0,-1.593073905E-2,-1.881980883E0,2.239376937E0
1.063133250E0,-1.355131404E0,-3.810449177E-1,-5.772462509E0,5.941624337E0
1.073154250E0,-1.796845277E0,-4.149371338E-1,-4.366776955E0,4.740207459E0
1.083176250E0,-2.853010299E0,-2.687123036E-1,3.526502538E-1,2.887254105E0
1.093197250E0,-2.150007162E0,1.262068874E-1,2.005747581E0,2.943039642E0
1.103218250E0,9.095905280E-1,1.086676962E0,5.743076742E-1,1.529068688E0
1.113240250E0,2.451088482E0,2.118954939E-1,-1.587538930E0,2.927971021E0
1.123261250E0,2.540509951E0,-1.066976523E0,-5.578786793E-1,2.811380148E0
1.133282250E0,2.799642761E0,-1.766998165E0,4.194756695E-1,3.337100829E0
1.143304250E0,3.114341077E0,-1.410980499E0,4.474925302E-2,3.419355028E0
1.153325250E0,2.522355516E0,2.634579957E-2,-1.744939544E0,3.067211349E0
1.163346250E0,2.100144446E-2,-1.483982402E-1,-2.971612297E0,2.975389511E0
1.173368250E0,-1.485472857E0,-4.037631047E-1,-1.738906971E0,2.322380612E0
1.183389250E0,-1.290293384E0,-1.487963187E0,-7.736621330E-1,2.115997296E0
1.193410250E0,-5.904167533E-1,-2.111874545E0,-1.891363764E-1,2.200994913E0
1.203432250E0,-9.174795914E-1,-2.297952828E0,-7.274689101E-1,2.579063205E0
1.213453250E0,-1.564060605E0,-1.881855022E0,-1.639554006E0,2.945471310E0
1.223474250E0,-1.943834338E0,5.993337572E-2,-1.146984414E0,2.257799192E0
1.233496250E0,-1.155396364E0,1.971888694E0,-1.683715980E-1,2.291644557E0
1.243517250E0,3.645920223E-1,2.347902083E0,7.219194639E-1,2.483292018E0
1.253538250E0,2.066031790E-1,1.429841863E0,1.620214195E0,2.170766377E0
1.263560250E0,2.757313013E-2,7.030113226E-1,1.644146263E0,1.788351792E0
1.273581250E0,4.872742081E-1,4.851961076E-1,2.263223290E0,2.365381804E0
1.283602250E0,1.165909658E0,1.016144924E0,2.529919474E0,2.965196179E0
1.293624250E0,1.524202475E0,1.227080889E0,1.970576725E0,2.777065596E0
1.303645250E0,2.237321879E0,1.283141654E0,9.154506806E-1,2.736806834E0
1.313666250E0,3.025066373E0,2.679480726E-1,-6.894843739E-1,3.114195150E0
1.323688250E0,3.327259834E0,-1.665862969E0,-1.726938305E0,4.102203474E0
1.333709250E0,2.144850503E0,-2.930981165E0,-2.833961824E0,4.606774782E0
1.343730250E0,-4.428780538E-1,-2.456604745E0,-3.783446735E0,4.532716299E0
1.353752250E0,-7.013062745E-1,2.219041729E-1,-1.449214858E0,1.625206343E0
1.363773250E0,-2.152172971E-1,-3.397641599E-1,8.033416495E-2,4.101362547E-1
1.373794250E0,3.511252999E-3,9.916877747E-2,1.179003328E-1,1.541014724E-1
1.383816250E0,3.712876689E-1,2.458491057E-1,3.956951165E-1,5.957104507E-1
1.393837250E0,3.639885896E-1,1.766397071E-1,7.529506373E-1,8.547654309E-1
1.403858250E0,-4.983114123E-1,9.665564418E-2,8.344479597E-1,9.767087460E-1
1.413880250E0,-2.512776607E-1,-1.210584140E-1,1.178349536E0,1.210910084E0
1.423901250E0,7.300131798E-2,-3.863840103E-2,1.352525446E0,1.355045092E0
1.433922250E0,5.249688685E-2,2.964070559E-2,9.216182506E-1,9.235879462E-1
1.443944250E0,-2.026469529E-2,-1.058170617E-2,4.881549449E-1,4.886899637E-1
1.453965250E0,-1.084945017E-1,3.835130274E-2,1.814583244E-1,2.148697345E-1
1.463986250E0,6.743710756E-2,1.832926691E-2,-4.873420358E-2,8.519828695E-2
1.474008250E0,-7.047941387E-2,5.755122006E-2,1.337913839E-1,1.618011901E-1
1.484029250E0,3.468860686E-2,7.046947360E-2,2.093303934E-1,2.235809915E-1
1.494050250E0,-2.811399758E-2,1.187569499E-2,4.802610576E-2,5.690286307E-2
1.504072250E0,-3.368756354E-2,2.173059225E-1,-1.440994404E-1,2.629094228E-1
1.514093250E0,5.119529665E-2,5.476736069E-2,-1.763655458E-1,1.916382737E-1
1.524114250E0,2.086286545E-2,5.256529927E-2,6.262718797E-2,8.438325968E-2
1.534136250E0,4.791208506E-3,3.626384676E-2,5.833416224E-2,6.885417013E-2
1.544157250E0,1.280657172E-2,8.467177570E-2,-1.331340837E-1,1.582971956E-1
1.554178250E0,3.487045527E-2,1.545120889E-1,-1.819665936E-1,2.412504414E-1
1.564200250E0,5.690159440E-2,1.825518268E-1,-1.805023777E-1,2.629525990E-1
1.574221250E0,4.177601695E-2,1.774922311E-1,-1.496846277E-1,2.359114568E-1
1.584242250E0,6.977073133E-2,1.366301340E-1,-1.412277266E-1,2.085210282E-1
1.594263250E0,6.819607615E-3,1.143984354E-1,-1.104321959E-1,1.591501773E-1
1.604285250E0,-5.841836214E-2,1.501272619E-2,-6.692255259E-2,9.009281341E-2
1.614306250E0,-5.874639094E-2,-1.223500639E-1,6.719846807E-2,1.514473859E-1
1.624328250E0,-5.730797589E-2,-2.529096186E-2,2.511877598E-1,2.588805275E-1
1.634349250E0,1.215870023E-2,6.012341022E-2,2.774791802E-1,2.841783840E-1
1.644370250E0,1.199673235E-2,4.447509170E-2,9.082494691E-2,1.018387272E-1
1.654392250E0,-2.951908350E-2,5.972346067E-2,9.444349632E-3,6.728643092E-2
1.664413250E0,-9.369636834E-2,-2.024890780E-2,3.191995025E-2,1.010342067E-1
1.674434250E0,-1.021432561E-1,-7.217218280E-2,2.708887835E-1,2.983668912E-1
1.684455250E0,-5.285239756E-2,-2.386307180E-2,4.258704038E-1,4.298004455E-1
1.694477250E0,5.192970693E-2,1.371739250E-1,4.783917028E-1,5.003718632E-1
1.704498250E0,1.454547518E-1,3.917786515E-1,2.669300723E-1,4.958823047E-1
1.714519250E0,1.194176853E-1,2.989973724E-1,8.420165956E-2,3.327911233E-1
1.724540625E0,-6.931874156E-2,-2.865544975E-2,1.989707353E-1,2.126395453E-1
1.734561625E0,-1.757895219E-1,-1.946900618E-1,1.832833135E-1,3.199983581E-1
1.744582625E0,-1.583519554E-1,-2.369028658E-1,2.024436159E-1,3.495450289E-1
1.754604625E0,-1.068596202E-1,-1.032834631E-1,1.885480734E-1,2.400767131E-1
1.764625625E0,-4.695080280E-2,4.783724070E-2,1.831651998E-1,1.950442767E-1
1.774646625E0,4.821380138E-2,1.779272640E-1,2.482412016E-1,3.092028074E-1
1.784668625E0,5.920305848E-2,1.665830809E-1,3.332374247E-1,3.772295140E-1
1.794689625E0,-8.671420813E-4,9.878636956E-2,3.098411800E-1,3.252092489E-1
1.804710625E0,-5.023869216E-2,-1.810824215E-2,1.604837772E-1,1.691356774E-1
1.814732625E0,-6.187991381E-2,-4.099541366E-2,1.318763477E-1,1.513311559E-1
1.824753625E0,-5.128358960E-2,-1.118455410E-2,1.160040808E-1,1.273265391E-1
1.834774625E0,-2.344090283E-2,4.958789706E-2,1.132075037E-1,1.257949695E-1
1.844796625E0,1.373394012E-2,1.173197043E-1,1.417546338E-1,1.845180488E-1
1.854817625E0,2.585287929E-2,1.261647874E-1,1.393045773E-1,1.897147601E-1
1.864838625E0,1.607808888E-2,9.787478864E-2,1.291655054E-1,1.628548648E-1
1.874860625E0,-3.005936623E-2,2.686561704E-2,2.787993354E-1,2.816991237E-1
1.884881625E0,-1.031010300E-1,-5.332894564E-2,3.673565859E-1,3.852592114E-1
1.894902625E0,-7.760483086E-2,3.532302976E-3,1.477490531E-1,1.669274382E-1
1.904924625E0,-3.426526845E-2,1.802579641E-2,1.889865415E-1,1.929117695E-1
1.914945625E0,-6.791014731E-2,3.921493649E-2,3.130539326E-1,3.227264540E-1
1.924966625E0,-1.854853749E-2,4.304486275E-2,3.322808933E-1,3.355704107E-1
1.934988625E0,7.383279204E-3,4.374769807E-2,2.400001359E-1,2.440664646E-1
1.945009625E0,-1.131260812E-2,7.213125229E-2,1.170039546E-1,1.379159819E-1
1.955030625E0,9.943774939E-3,1.095335519E-1,9.887758613E-2,1.478960943E-1
1.965052625E0,6.391123652E-2,1.420955265E-1,4.035704389E-2,1.609486744E-1
1.975073625E0,4.598952055E-2,1.267243659E-1,-2.469045281E-2,1.370537099E-1
1.985094625E0,7.825913429E-3,7.711308002E-2,-4.287587821E-2,8.857772273E-2
1.995116625E0,-3.191761136E-2,3.892432988E-2,-1.703586280E-2,5.314186667E-2
2.005137625E0,-5.716238022E-2,-1.387602746E-2,3.408685528E-2,6.798525982E-2
2.015158625E0,-5.671214461E-2,-1.070683658E-2,1.265103579E-1,1.390531350E-1
2.025180625E0,-3.055111706E-2,5.840374410E-2,2.673036363E-1,2.753100108E-1
2.035201625E0,1.891281903E-2,8.846427977E-2,4.045196613E-1,4.145114955E-1
2.045222625E0,4.468559146E-2,1.112269056E-1,4.080443629E-1,4.252862903E-1
2.055244625E0,4.462945819E-2,1.543758488E-1,2.822502159E-1,3.247905103E-1
2.065265625E0,6.934680820E-2,1.714795393E-1,1.448782164E-1,2.349551229E-1
2.075286625E0,9.059091210E-3,1.811695451E-1,1.348082878E-2,1.818961350E-1
2.085308625E0,4.758405626E-2,1.817992902E-1,-1.421663509E-1,2.356406069E-1
2.095329625E0,8.874143779E-2,6.845803142E-2,-2.599081510E-1,2.830437984E-1
2.105350625E0,-2.641421199E-2,-1.062766528E-1,-3.523953152E-1,3.690188284E-1
2.115372625E0,-1.133219630E-1,-2.187554473E-1,-4.070474857E-1,4.757977182E-1
2.125393625E0,-1.859356105E-2,-3.072010159E-2,-4.540110793E-1,4.554289245E-1
2.135414625E0,5.817044020E-2,9.677551210E-2,-4.895400041E-1,5.023929891E-1
2.145436625E0,4.141056597E-2,8.000452816E-2,-4.483797721E-1,4.573401136E-1
2.155457625E0,1.250620025E-1,2.479798311E-1,-3.804093985E-1,4.710051078E-1
2.165478625E0,2.420250267E-1,4.495298463E-1,-4.862209053E-1,7.050276342E-1
2.175500625E0,2.759862399E-1,4.493140841E-1,-5.624397267E-1,7.709669234E-1
2.185521625E0,1.064134777E-1,2.234554392E-1,-4.213346455E-1,4.886502277E-1
2.195542625E0,6.155363917E-3,7.860587418E-2,-2.853998186E-1,2.960909124E-1
2.205564625E0,3.709473610E-2,1.196580058E-1,-3.688195592E-1,3.895149870E-1
2.215585625E0,3.164162278E-2,3.725904286E-2,-4.161030686E-1,4.189644284E-1
2.225606625E0,1.973961532E-2,5.192853749E-2,-3.799848906E-1,3.840244035E-1
2.235627625E0,2.732579291E-2,7.059226513E-2,-2.663389188E-1,2.768869562E-1
2.245649625E0,7.348429799E-2,1.238691705E-1,-1.791165876E-1,2.298396516E-1
2.255670625E0,9.259241402E-2,2.162727195E-1,-1.873044437E-1,3.007161435E-1
2.265691625E0,9.755962372E-2,1.886820477E-1,-2.340115638E-1,3.160383004E-1
2.275713625E0,1.409290069E-1,1.682676637E-1,-1.354238534E-1,2.579042685E-1
2.285734625E0,7.440406501E-2,1.426732314E-1,-4.552254729E-2,1.672241554E-1
2.295755625E0,2.719072223E-2,1.306273824E-1,-2.259071767E-2,1.353262315E-1
2.305777625E0,4.113983989E-2,1.335773027E-1,-2.711628717E-1,3.050650508E-1
2.315798625E0,6.430241525E-2,1.032846326E-1,-1.885403989E-1,2.243880522E-1
2.325819625E0,4.443123758E-2,3.183165729E-2,2.093532707E-1,2.163704722E-1
2.335841625E0,-1.262530804E-2,8.997695446E-3,2.506941086E-1,2.511730340E-1
2.345862625E0,-1.456968266E-1,-3.787943244E-2,2.049368687E-1,2.542863284E-1
2.355883625E0,-1.705954403E-1,-8.284042776E-2,2.613937823E-1,3.229427970E-1
2.365905625E0,-2.459450001E-1,-1.227394885E-1,2.683747731E-1,3.841600499E-1
2.375926625E0,-9.069241977E-1,-4.147073382E-1,3.512292342E-1,1.057286930E0
2.385947625E0,-7.715249026E-1,-6.589794499E-1,5.499798949E-1,1.154115452E0
2.395969625E0,-8.149498343E-2,-6.079437822E-1,6.522009189E-1,8.953229101E-1
2.405990625E0,5.442032844E-1,-1.078033608E-1,8.050331028E-1,9.776794341E-1
2.416011625E0,7.144508153E-1,7.569957411E-1,6.041578563E-1,1.203531983E0
2.426033625E0,4.069252789E-1,1.195383718E0,2.302708076E-1,1.283571214E0
2.436054625E0,1.142253578E-1,6.977926826E-1,-1.304781322E-1,7.190178046E-1
2.446075625E0,-2.541199923E-1,-2.170661867E-2,-3.822791187E-1,4.595492056E-1
2.456097625E0,-4.875618911E-1,-4.869549501E-1,6.057583854E-2,6.917450060E-1
2.466118625E0,-4.518336493E-1,-6.975886148E-1,6.022689132E-1,1.026407018E0
2.476139625E0,-3.325779319E-2,-4.870952833E-1,1.002251793E0,1.114843735E0
2.486161625E0,-2.723703218E-1,-3.309284323E-1,1.257640339E0,1.328667920E0
2.496182625E0,-6.512003142E-1,-1.957864147E-1,1.261781337E0,1.433347938E0
2.506203625E0,-3.874862105E-1,1.540630227E-1,1.227023733E0,1.295942985E0
2.516225625E0,2.458876973E-1,4.754143006E-1,8.207754153E-1,9.798733588E-1
2.526246625E0,3.467474896E-1,7.341500849E-1,7.008822052E-1,1.072588474E0
2.536267625E0,3.505060798E-1,7.142818308E-1,7.104272000E-1,1.066658264E0
2.546289625E0,2.251470387E-2,3.172301602E-1,6.480416483E-1,7.218724710E-1
2.556310625E0,-1.338433510E-1,-2.728895545E-2,5.812566514E-1,5.970913033E-1
2.566331625E0,-2.548257512E-1,-2.483014280E-1,5.613477592E-1,6.646059504E-1
2.576353625E0,-1.736856937E-2,-4.642513812E-2,5.434663890E-1,5.457221607E-1
2.586374625E0,3.212764335E-1,2.958042079E-1,9.983300655E-1,1.089670407E0
2.596395625E0,-4.853376102E-1,1.083073908E-1,1.011477091E0,1.127106469E0
2.606417625E0,-4.409554893E-1,-3.079670012E-2,8.693106674E-1,9.752390562E-1
2.616438625E0,2.184689337E-1,9.066984951E-2,7.775609833E-1,8.127427510E-1
2.626459625E0,2.105453718E-1,2.118539786E-1,8.366729714E-1,8.883879349E-1
2.636480625E0,1.518048280E-1,5.173616409E-3,4.762555687E-1,4.998908269E-1
2.646502625E0,1.217226577E-1,-2.735970676E-2,-1.158286643E-1,1.702387689E-1
2.656523625E0,-1.075115848E-1,3.764028132E-1,-4.885208344E-1,6.260115209E-1
2.666544625E0,3.819611764E-1,1.340496408E0,-8.656656593E-3,1.393879441E0
2.676566625E0,7.223176593E-1,1.581656047E0,3.412984693E-1,1.771965941E0
2.686587625E0,4.230518997E-2,-2.166978121E-2,-2.627510673E-1,2.670157896E-1
2.696608625E0,-5.574729556E-1,-2.515787923E0,-1.535028010E0,2.999379263E0
2.706630625E0,-1.196376575E0,-2.298214198E0,-2.550545527E0,3.635710095E0
2.716651625E0,-5.511281419E-1,1.643921292E-1,-1.562511678E0,1.664995419E0
2.726673250E0,-2.648069483E-1,-6.154124308E-1,6.003570199E-2,6.726510725E-1
2.736695250E0,5.853998423E-2,-3.297548962E-1,-1.260472438E0,1.304207034E0
2.746716250E0,-1.639348769E-1,9.552303851E-2,-1.194976021E0,1.209945034E0
2.756737250E0,4.588818830E-1,6.711118376E-1,5.476902714E-1,9.802695112E-1
2.766759250E0,9.467946070E-1,1.178020996E0,1.358200461E0,2.031960134E0
2.776780250E0,-3.222839087E-1,-2.350580692E-3,5.315832388E-1,6.216535875E-1
2.786801250E0,-1.096247685E-1,-2.544363266E-1,-9.794745491E-1,1.017902661E0
2.796823250E0,3.011433005E-2,6.029999614E-2,1.702909465E-1,1.831446665E-1
2.806844250E0,1.478240436E-1,2.152658290E-1,1.103050482E0,1.133539453E0
2.816865250E0,-1.460809886E-1,2.036936045E-2,5.538767718E-2,1.575511373E-1
2.826887250E0,3.246871144E-1,3.909325594E-1,-7.397946214E-1,8.975221836E-1
2.836908250E0,1.927236432E-1,3.532940322E-1,-1.987608933E-1,4.488484918E-1
2.846929250E0,1.591974628E-1,3.057818967E-1,3.064057946E-2,3.461000515E-1
2.856951250E0,6.643314064E-2,1.186639792E-1,-3.078396781E-1,3.365408883E-1
2.866972250E0,-1.416604936E-2,-1.888065934E-2,-3.974247229E-1,3.981250641E-1
2.876993250E0,-8.341287017E-2,-8.611662269E-2,-2.752489060E-1,3.002261479E-1
2.887015250E0,-8.773571670E-2,-7.999107957E-2,-1.053340816E-1,1.587179812E-1
2.897036250E0,1.453302062E-1,3.345770949E-1,-2.816119923E-1,4.608340433E-1
2.907057250E0,4.214509320E-1,6.363717753E-1,-6.028755619E-1,9.726504344E-1
2.917079250E0,6.630239689E-1,1.110783863E0,-8.737640530E-1,1.561058998E0
2.927100250E0,1.171245827E0,1.698832494E0,-6.964400755E-1,2.177814824E0
2.937121250E0,1.263882680E0,1.589398929E0,-7.817855966E-1,2.175954297E0
2.947143250E0,7.334759009E-1,8.496074510E-1,-6.181378180E-1,1.281371952E0
2.957164250E0,2.242711258E-1,9.168901920E-2,-1.472868307E-1,2.835451015E-1
2.967185250E0,-5.848332471E-1,-7.876977164E-1,-1.928856111E-1,9.998512280E-1
2.977206250E0,-1.138393246E0,-1.249498529E0,-3.718567492E-1,1.730740651E0
2.987228250E0,-1.229425623E0,-1.602944005E0,-4.074117672E-1,2.060801104E0
2.997249250E0,-9.848751837E-1,-1.618579459E0,-2.560193141E-1,1.911890290E0
3.007270250E0,-7.311001772E-1,-1.122384154E0,5.069696769E-2,1.340456579E0
3.017292250E0,-3.908641469E-1,-3.011930019E-1,5.199944960E-1,7.168586203E-1
3.027313250E0,-1.047821045E-3,4.252434361E-1,1.092591275E0,1.172428579E0
3.037334250E0,2.719861597E-1,7.748239017E-1,1.368473434E0,1.595947396E0
3.047356250E0,5.764594495E-2,6.185020995E-1,1.481181586E0,1.606165244E0
3.057377250E0,6.980756879E-2,4.321256089E-1,1.425733609E0,1.491416093E0
3.067398250E0,-1.231832922E-2,1.340444952E-1,1.285506853E0,1.292535314E0
3.077420250E0,-2.257943255E-1,-2.059243172E-1,1.091278136E0,1.133258961E0
3.087441250E0,-2.969181025E-1,-2.842986417E-1,8.427830194E-1,9.376936040E-1
3.097462250E0,-1.901502836E-1,-2.246786767E-1,2.340353912E-1,3.760454792E-1
3.107484250E0,-2.866860598E-1,-4.586672902E-1,-1.596189009E-1,5.639528114E-1
3.117505250E0,2.528569937E-2,1.133716643E-1,-9.323575392E-2,1.489476642E-1
3.127526250E0,8.585876048E-2,5.128002280E-1,1.444414294E-1,5.396286937E-1
3.137548250E0,2.100793487E-1,1.508540708E-1,3.959923013E-1,4.729695403E-1
3.147569250E0,-4.455636799E-2,6.927079439E-2,4.408746515E-1,4.485021418E-1
3.157590250E0,-2.117323565E-1,-1.196925044E-3,6.132559776E-2,2.204378651E-1
3.167612250E0,-2.111347711E-1,-1.889229530E-1,3.442777719E-1,4.458665248E-1
3.177633250E0,-6.593905091E-3,-7.164944172E-2,4.738491471E-1,4.792808533E-1
3.187654250E0,4.922946274E-2,1.184254128E-1,4.610270803E-1,4.785332665E-1
3.197676250E0,1.757737345E-1,3.551242107E-1,3.438640814E-1,5.246447533E-1
3.207697250E0,1.717145973E-1,3.977387184E-1,1.511065243E-1,4.588193247E-1
3.217718250E0,9.678018987E-2,2.781374305E-1,-5.226314440E-2,2.990957567E-1
3.227739250E0,1.424726719E-1,1.649721730E-1,-7.206240132E-2,2.295806389E-1
3.237761250E0,-6.477779388E-2,-3.705906808E-2,-2.827903524E-2,7.980752434E-2
3.247782250E0,-1.929540235E-1,-1.350636649E-1,9.892831072E-2,2.554608765E-1
3.257803250E0,-2.493030560E-1,-2.066113651E-1,2.473214346E-1,4.074409920E-1
3.267825250E0,-3.171459603E-1,-2.132982409E-1,4.711658598E-1,6.066918223E-1
3.277846250E0,-3.027618098E-1,-2.121299672E-1,7.435721420E-1,8.303995224E-1
3.287867250E0,-2.476336759E-1,-1.618287098E-1,9.081566446E-1,9.551227459E-1
3.297889250E0,-2.037088072E-1,-6.519820869E-2,9.243869072E-1,9.488093796E-1
3.307910250E0,-2.397463667E-1,-2.188846707E-2,8.939996584E-1,9.258470795E-1
3.317931250E0,-2.217123842E-1,-2.169843256E-2,9.319591977E-1,9.582145634E-1
3.327953250E0,-2.084427130E-1,-2.041262984E-2,9.090022981E-1,9.328184272E-1
3.337974250E0,-1.881142831E-1,5.899314344E-2,1.037267259E0,1.055836418E0
3.347995250E0,-1.178558940E-1,1.527590936E-1,8.809463342E-1,9.018269214E-1
3.358017250E0,1.638389826E-3,9.285553873E-2,3.169782914E-1,3.303030012E-1
3.368038250E0,-9.166504562E-2,7.068055809E-2,1.997164746E-1,2.308352055E-1
3.378059250E0,-1.016228539E-1,1.242182493E-2,1.646950150E-1,1.939225467E-1
3.388081250E0,-4.178829610E-2,-2.857943594E-2,7.970748961E-2,9.442631916E-2
3.398102250E0,2.712874174E-2,-4.224788725E-2,2.110844851E-3,5.025244543E-2
3.408123250E0,1.836084187E-2,-4.447860003E-2,-1.867232305E-1,1.928238346E-1
3.418145250E0,7.992617548E-2,8.510622382E-2,-2.310088724E-1,2.588365546E-1
3.428166250E0,8.334387302E-2,4.740747035E-2,-6.823039931E-1,6.890082789E-1
3.438187250E0,3.566000479E-1,2.175900972E-1,-1.102724207E0,1.179198763E0
3.448209250E0,2.563086051E-1,8.726402181E-1,-8.293912876E-1,1.230887874E0
3.458230250E0,2.732889193E-1,6.631298035E-1,-3.947338343E-1,8.186835589E-1
3.468251250E0,2.668832946E-1,1.092148787E-1,-3.479017299E-1,4.518740935E-1
3.478273250E0,3.163501543E-1,-1.269290185E-1,-1.032749993E0,1.087548134E0
3.488294250E0,1.333603710E-1,-6.778443217E-2,-1.204992009E0,1.214242751E0
3.498315250E0,1.040804386E-4,-8.722700894E-2,-6.762035930E-1,6.818063223E-1
3.508336250E0,5.788743496E-2,1.582431972E-2,-3.192052035E-1,3.247973617E-1
3.518358250E0,1.089236873E-1,2.269473964E-1,-3.405343113E-1,4.234773991E-1
3.528379250E0,1.926242405E-1,2.945441329E-1,-3.320412306E-1,4.838509306E-1
3.538400250E0,1.074484348E-1,2.180520272E-1,7.823939994E-2,2.553688635E-1
3.548422250E0,-2.017874122E-3,1.184078711E-1,4.277706027E-2,1.259141479E-1
3.558443250E0,-3.331860423E-2,-7.634124756E-3,-3.774664948E-1,3.790110341E-1
3.568464250E0,-3.806128085E-2,1.546763957E-2,1.012514826E-1,1.092692624E-1
3.578486250E0,-4.996972024E-2,2.754330933E-2,3.965862322E-1,4.006697473E-1
3.588507250E0,-5.492406607E-2,6.550050974E-3,2.283267546E-1,2.349311879E-1
3.598528250E0,-5.825347066E-2,3.473246098E-3,3.088855988E-1,3.143498742E-1
3.608550250E0,-5.180633068E-2,2.235215127E-2,2.710916819E-1,2.769010916E-1
3.618571250E0,-4.844593585E-2,3.170067966E-2,3.291725135E-1,3.342252017E-1
3.628592250E0,-4.725018024E-2,5.337455392E-2,3.980866277E-1,4.044185774E-1
3.638614250E0,-5.047550440E-2,3.342736244E-2,3.426917146E-1,3.479982419E-1
3.648635250E0,-5.775002539E-2,7.672131658E-3,3.242169982E-1,3.294094549E-1
3.658656250E0,-6.651149333E-2,-1.271827877E-2,2.794869679E-1,2.875734664E-1
3.668678250E0,-6.596185505E-2,-7.221311331E-3,2.755954997E-1,2.834713268E-1
3.678699250E0,-4.508261740E-2,2.073013365E-2,2.446164396E-1,2.495984442E-1
3.688720250E0,-3.085985005E-2,3.851034701E-2,2.181683137E-1,2.236801070E-1
3.698742250E0,-1.673297703E-2,4.971302748E-2,1.806117207E-1,1.880743770E-1
3.708763250E0,-1.281241894E-2,6.133553803E-2,1.546231860E-1,1.668368543E-1
3.718784250E0,-1.311764359E-2,5.953693449E-2,1.068338194E-1,1.230048133E-1
3.728806250E0,-1.213121831E-2,4.526680470E-2,8.298711978E-2,9.530536246E-2
3.738827250E0,-7.621260881E-3,4.212217212E-2,5.088539422E-2,6.649574682E-2
3.748848250E0,1.092844605E-2,6.183839858E-2,3.080854073E-2,6.994701319E-2
3.758870250E0,1.793341041E-2,9.138788760E-2,4.049927741E-3,9.321885605E-2
3.768891250E0,2.492141783E-2,8.220834374E-2,1.713541165E-2,8.759515501E-2
3.778912250E0,2.186975598E-2,7.934028447E-2,-7.119058147E-3,8.260658542E-2
3.788933250E0,1.749194562E-2,7.081621349E-2,-2.069563508E-2,7.582356867E-2
3.798955250E0,9.783561230E-3,8.275271952E-2,6.337139234E-3,8.356967149E-2
3.808976250E0,8.123536706E-3,6.473277032E-2,-1.055078901E-2,6.608814229E-2
3.818997250E0,-1.040921330E-2,-5.144497275E-2,4.971529327E-2,7.229486378E-2
3.829019250E0,-2.051466376E-1,-1.559423178E-1,2.855370820E-1,3.846226392E-1
3.839040250E0,-2.034427589E-1,-1.762824422E-1,4.934510605E-1,5.621017743E-1
3.849061250E0,-2.452848494E-2,1.042084926E-1,6.965600165E-1,7.047388971E-1
3.859083250E0,4.471716642E-2,3.084739548E-1,2.525406593E-1,4.011640442E-1
3.869104250E0,2.004583400E-1,2.962526894E-1,1.953101590E-2,3.582326934E-1
3.879125250E0,8.507874191E-2,2.104956704E-1,-1.573842412E-1,2.762546271E-1
3.889147250E0,2.888641477E-2,1.099335015E-2,-1.269986004E-1,1.307054827E-1
3.899168250E0,-7.865323663E-2,-1.133441824E-1,4.617487729E-2,1.454831764E-1
3.909189250E0,-9.731930315E-2,-5.723196208E-2,-1.821178173E-1,2.142742253E-1
3.919211250E0,-3.143755496E-2,1.336790442E-2,-1.409259371E-1,1.450073808E-1
3.929232250E0,5.048836827E-2,7.962445915E-2,-6.359431744E-2,1.137249622E-1
3.939253250E0,1.472059929E-1,2.218275744E-1,1.427663483E-1,3.020915545E-1
3.949275250E0,1.463043523E-1,2.729322392E-1,-1.224773870E-1,3.330130343E-1
3.959296250E0,-5.762723386E-2,7.869884491E-2,-2.013915557E-1,2.237698929E-1
3.969317250E0,-3.195386410E-2,-3.987216353E-2,1.117284505E-1,1.228579892E-1
3.979339250E0,-2.837478340E-2,-5.025389493E-2,-6.221262038E-2,8.485866144E-2
3.989360250E0,-4.156317830E-2,7.828193843E-2,-2.160838544E-2,9.122763834E-2
3.999381250E0,4.757119238E-2,1.134891933E-1,4.275908008E-2,1.302733828E-1
4.009402250E0,5.349149823E-2,1.353133410E-1,4.520599365E-2,1.523634553E-1
4.019424250E0,8.782517910E-3,1.075893527E-1,2.694272719E-2,1.112587614E-1
4.029445250E0,-3.121828437E-3,3.326013207E-2,5.240318522E-2,6.214560338E-2
4.039466250E0,-1.676279783E-2,1.446308792E-2,4.361496627E-2,4.891255040E-2
4.049488250E0,-2.737140119E-2,3.103585124E-2,3.315195858E-2,5.302329699E-2
4.059509250E0,-6.082858443E-3,4.964110672E-2,6.119301215E-2,7.903053448E-2
4.069530250E0,1.244287491E-2,8.072665930E-2,9.807140127E-2,1.276307894E-1
4.079552250E0,2.634170651E-3,8.289889991E-2,1.228494161E-1,1.482266694E-1
4.089573250E0,-1.667918265E-2,5.422064602E-2,1.608082976E-1,1.705209142E-1
4.099594250E0,-2.662354231E-2,3.326071680E-2,1.523057882E-1,1.581522729E-1
4.109616250E0,-3.783090055E-2,1.925429642E-2,1.615099635E-1,1.669951295E-1
4.119637250E0,-4.677012384E-2,1.711655438E-2,1.703258105E-1,1.774578898E-1
4.129658250E0,-3.309056282E-2,2.881917179E-2,1.788943204E-1,1.841974698E-1
4.139680250E0,-2.162241876E-2,5.076084852E-2,1.759865000E-1,1.844327545E-1
4.149701250E0,-1.505482614E-2,6.507190883E-2,1.704219241E-1,1.830427091E-1
4.159722250E0,-1.935603797E-2,5.161921978E-2,1.485210317E-1,1.584225266E-1
4.169744250E0,-1.690430045E-2,3.773792982E-2,1.198724525E-1,1.268042254E-1
4.179765250E0,-2.047519505E-2,4.031889081E-2,9.727998063E-2,1.072764709E-1
4.189786250E0,-3.389630914E-2,1.610790968E-2,1.046808015E-1,1.112047424E-1
4.199807250E0,2.127860248E-2,1.491373283E-1,3.497588056E-1,3.808227195E-1
4.209829250E0,-3.477806926E-2,-8.029981256E-3,4.626148917E-1,4.639897981E-1
4.219850250E0,-2.508993459E-1,-6.105194807E-2,4.267759913E-1,4.988141627E-1
4.229871250E0,-4.846493930E-1,2.238144583E-1,4.576492900E-1,7.031506371E-1
4.239893250E0,3.938257617E-1,-6.021053374E-2,2.443003245E-1,4.673400127E-1
4.249914250E0,2.176456457E-1,-4.160352409E-2,-2.514484725E-1,3.351519277E-1
4.259935250E0,-8.119502127E-2,7.226398408E-2,-9.993542053E-2,1.476543367E-1
4.269957250E0,-8.559095800E-2,-7.339600503E-2,-1.149335287E-1,1.610046635E-1
4.279978250E0,-6.660563350E-3,9.094174504E-3,-1.520738000E-1,1.524910088E-1
4.289999250E0,5.856863558E-2,8.078220785E-2,-2.089759791E-1,2.315750635E-1
4.300021250E0,1.759234232E-1,2.948721617E-1,-1.713649338E-1,3.837506784E-1
4.310042250E0,8.709252298E-2,2.269210839E-1,-1.368738167E-1,2.789493280E-1
4.320063250E0,6.705236077E-2,9.652232766E-2,-2.022129433E-1,2.338859835E-1
4.330085250E0,4.239933014E-2,1.047136921E-1,-2.783146012E-1,3.003692357E-1
4.340106250E0,6.373465061E-5,4.926396132E-2,-2.867649972E-2,5.700248752E-2
4.350127250E0,2.289184928E-3,-1.770653844E-2,1.448226678E-1,1.459190426E-1
4.360149250E0,-4.208708882E-2,-5.752490759E-3,2.106137842E-1,2.148547888E-1
4.370170250E0,-4.940838754E-2,-8.588390350E-3,3.455902525E-1,3.492099252E-1
4.380191250E0,-4.403304219E-2,5.984098971E-2,-7.591681279E-2,1.062224803E-1
4.390212250E0,-7.634592533E-2,1.203824759E-2,-4.297001839E-2,8.843100248E-2
4.400234250E0,-6.292481124E-2,2.951089740E-2,7.199909791E-1,7.233377046E-1
4.410255250E0,1.225459456E-2,1.890913528E-1,3.482718587E-2,1.926620037E-1
4.420276250E0,7.570156217E-2,1.221606141E-1,2.817295213E-1,3.162680277E-1
4.430298250E0,1.781705081E-2,5.767693520E-3,7.742473662E-2,7.965741289E-2
4.440319250E0,-8.565235376E-2,4.539953649E-2,-6.021645404E-2,1.141203968E-1
4.450340250E0,2.777018130E-2,-3.880095363E-2,-2.800442076E-1,2.840800154E-1
4.460362250E0,3.513533413E-2,1.157526505E-1,-2.053186188E-1,2.383042237E-1
4.470383250E0,1.513563466E-1,3.200467640E-1,-2.779924927E-1,4.501316483E-1
4.480404250E0,2.501900786E-1,3.787487161E-1,-2.679849100E-1,5.271257700E-1
4.490426250E0,3.364493734E-1,4.682029295E-1,-1.902216196E-1,6.071214282E-1
4.500447250E0,3.502382773E-1,4.504373342E-1,-2.074832580E-1,6.071325599E-1
4.510468250E0,2.899938297E-1,3.827096200E-1,-9.082538545E-2,4.886842796E-1
4.520490250E0,1.147059989E-1,2.357971573E-1,2.611619402E-1,3.700855639E-1
4.530511250E0,-5.513865888E-2,-1.831347942E-3,4.486036474E-1,4.519832496E-1
4.540532250E0,-2.559045625E-1,-2.309889919E-1,5.650053388E-1,6.618716585E-1
4.550553250E0,-4.697799236E-1,-4.910602802E-1,8.271137240E-1,1.070490770E0
4.560575250E0,-5.521484810E-1,-5.620431393E-1,1.048349048E0,1.311409990E0
4.570596250E0,-6.019983333E-1,-6.002570325E-1,1.343726410E0,1.590066402E0
4.580617250E0,-5.571800101E-1,-7.050379676E-1,1.454429843E0,1.709647411E0
4.590639250E0,-4.821672499E-1,-5.392442608E-1,1.520768990E0,1.684045115E0
4.600660250E0,-4.626878357E-1,-3.913845491E-1,1.601584088E0,1.712405761E0
4.610681250E0,-3.440805745E-1,-2.577294785E-1,1.687847769E0,1.741736494E0
4.620703250E0,-2.158137131E-1,-1.811800700E-1,1.763787605E0,1.786154666E0
4.630724250E0,-1.885750437E-1,-1.277441204E-1,1.971398259E0,1.984512586E0
4.640745250E0,-3.000457782E-1,-2.940213919E-2,2.182573376E0,2.203297187E0
4.650767250E0,-2.665119964E-1,-1.999630809E-2,2.203960590E0,2.220106029E0
4.660788250E0,-6.294673830E-1,1.852912474E-1,2.261790723E0,2.355049746E0
4.670809250E0,-8.022438347E-1,2.058032799E-1,2.191059148E0,2.342368534E0
4.680831250E0,-5.460398948E-1,-1.842673999E-1,1.908514817E0,1.993625553E0
4.690852250E0,-5.656292367E-1,-3.845918387E-1,1.566574323E0,1.709386564E0
4.700873250E0,-4.688595718E-1,-3.970388067E-1,1.245519499E0,1.388808099E0
4.710894250E0,-3.317961591E-1,-9.769352496E-2,1.383147753E0,1.425738553E0
4.720916250E0,-3.792702878E-1,5.420719743E-2,1.262292237E0,1.319153541E0
4.730941125E0,-3.920324206E-2,2.103746331E-1,1.335622754E0,1.352657577E0
4.740962125E0,1.552435756E-3,4.655605727E-1,1.439596773E0,1.513006254E0
4.750984125E0,-1.670871109E-1,4.812784731E-1,1.185736397E0,1.290549447E0
4.761005125E0,-3.466486716E-1,3.563269830E-1,8.454606056E-1,9.807843066E-1
4.771026125E0,-2.320847601E-1,2.279174495E-1,5.199718380E-1,6.133354807E-1
4.781048125E0,-1.671818358E-1,2.233308935E-1,2.563542134E-1,3.788719268E-1
4.791069125E0,2.125638306E-2,2.968344873E-1,5.913055758E-2,3.034122106E-1
4.801090125E0,9.127035856E-2,2.224187279E-1,-5.353591880E-2,2.463056302E-1
4.811112125E0,2.243927479E-1,4.617014104E-1,-4.886518486E-1,7.087319146E-1
4.821133125E0,-2.527166605E-2,7.161406606E-1,-9.133853710E-1,1.160934511E0
4.831154125E0,2.076580167E-2,6.391848707E-1,-1.146441354E0,1.312751421E0
4.841176125E0,3.155508399E-2,5.395582563E-1,-1.608690502E0,1.697057443E0
4.851197125E0,1.986228991E-1,4.939049506E-1,-2.234741503E0,2.297272892E0
4.861218125E0,2.420425683E-1,5.506732285E-1,-2.812006699E0,2.875622938E0
4.871240125E0,9.689128697E-2,4.686806470E-1,-3.326330127E0,3.360583518E0
4.881261125E0,2.437546331E-1,6.055101711E-1,-4.038095316E0,4.090510074E0
4.891282125E0,4.906439584E-1,7.677084249E-1,-5.006236353E0,5.088468349E0
4.901303125E0,5.137346131E-1,6.598688114E-1,-5.798302524E0,5.858298581E0
4.911325125E0,2.861101091E-1,3.462580776E-1,-4.724912775E0,4.746214742E0
4.921346125E0,-1.425276357E-1,-8.067403436E-3,-2.798748722E0,2.802387129E0
4.931367125E0,-3.221757352E-1,-4.708090335E-1,-3.124019973E0,3.175682469E0
4.941389125E0,-3.939649254E-1,-5.383806270E-1,-3.407454396E0,3.472147394E0
4.951410125E0,-2.187162709E-1,-2.258498740E-1,-3.022248015E0,3.038556901E0
4.961431125E0,-8.316904128E-2,2.102015555E-1,-3.220501370E0,3.228425446E0
4.971453125E0,-1.155503368E-1,5.568198216E-1,-3.110512905E0,3.162070639E0
4.981474125E0,-3.477806926E-2,5.963855910E-1,-2.736810336E0,2.801252595E0
4.991495125E0,1.001043320E-2,7.114529479E-1,-2.142599909E0,2.257653622E0
5.001517125E0,1.010685378E-1,7.613992792E-1,-1.064373197E0,1.312567718E0
5.011538125E0,3.463592345E-1,7.141876906E-1,-1.654024915E-1,8.107939078E-1
5.021559125E0,4.426570290E-1,7.237677687E-1,4.865316482E-1,9.780071948E-1
5.031581125E0,6.861128694E-1,5.783790904E-1,8.121314764E-1,1.210301936E0
5.041602125E0,9.362321967E-1,4.181238663E-1,1.208193798E0,1.584642088E0
5.051623125E0,7.378502029E-1,3.289181596E-1,1.730078845E0,1.909393330E0
5.061644125E0,-5.831252754E-2,-2.698840857E-2,2.166961164E0,2.167913608E0
5.071666125E0,-8.229014629E-1,-3.022788298E-1,2.466492387E0,2.617656204E0
5.081687125E0,-1.110499104E0,-5.150736254E-1,3.109891346E0,3.342145012E0
5.091708125E0,-1.209881305E0,-7.729492843E-1,3.408585248E0,3.698610112E0
5.101730125E0,-8.379685682E-1,-1.297812318E0,3.439686003E0,3.770669428E0
5.111751125E0,-9.062178540E-1,-1.381992343E0,3.651293229E0,4.007876730E0
5.121772125E0,-1.059065825E0,-1.787442954E0,4.026003274E0,4.530482877E0
5.131794125E0,-1.028784850E0,-2.127549176E0,4.317388156E0,4.921859837E0
5.141815125E0,-1.151264137E0,-2.732496260E0,4.340217440E0,5.256370645E0
5.151836125E0,-1.531605050E0,-1.973121872E0,4.268057536E0,4.945233977E0
5.161857125E0,-1.615575160E0,8.007849544E-1,2.580524202E0,3.148085894E0
5.171879125E0,-1.782657593E0,8.130296087E-1,1.069438859E0,2.232170404E0
5.181900125E0,-4.346732408E-1,1.396490514E0,-2.927648252E-1,1.491589027E0
5.191921125E0,2.451245188E0,2.405846820E0,-5.626734692E-1,3.480417120E0
5.201943125E0,2.162283976E0,1.831574230E0,-1.052847896E0,3.023015852E0
5.211964125E0,1.847952281E0,1.413396569E0,-2.109949057E0,3.140780558E0
5.221985125E0,1.323910781E0,1.026164712E0,-2.869609959E0,3.322712008E0
5.232007125E0,7.895869517E-1,6.795604795E-1,-3.914299235E0,4.050554098E0
5.242028125E0,1.796820134E-1,8.767899871E-3,-4.959821155E0,4.963082549E0
5.252049125E0,-3.660666901E-1,-7.171832192E-1,-6.011580884E0,6.065266797E0
5.262071125E0,-5.654777938E-1,-1.259142927E0,-5.117862623E0,5.300728618E0
5.272092125E0,-7.341658723E-1,-6.595717728E-1,-2.813119424E0,2.981220446E0
5.282113125E0,-6.217344403E-1,2.539451605E-1,-1.566738045E0,1.704614314E0
5.292135125E0,-2.758523387E-1,5.357616591E-1,-1.836580616E0,1.932915783E0
5.302156125E0,-6.623725891E-3,7.649421072E-1,-2.083026722E0,2.219049487E0
5.312177125E0,3.589541370E-1,1.265908740E0,-1.501275542E0,1.996296888E0
5.322198125E0,7.550082725E-1,1.007474087E0,-1.020440288E0,1.620598627E0
5.332220125E0,9.067593062E-1,1.127528535E0,-1.038330502E0,1.780916412E0
5.342241125E0,9.838144988E-1,1.157335886E0,-7.628727776E-1,1.699791809E0
5.352262125E0,8.636571407E-1,9.759692895E-1,-2.840852183E-1,1.333838117E0
5.362284125E0,1.656071806E-1,2.530043435E-1,2.149289563E-1,3.709870514E-1
5.372305125E0,-8.494057220E-1,-7.986407804E-1,9.079017060E-1,1.477701825E0
5.382326125E0,-1.188590423E0,-1.419261326E0,1.702374737E0,2.514981044E0
5.392348125E0,-1.196152042E0,-1.525999909E0,2.160164360E0,2.902716916E0
5.402369125E0,-1.286236001E0,-1.435922382E0,2.521111228E0,3.173685234E0
5.412390125E0,-1.315906527E0,-7.013390189E-1,2.838958855E0,3.206738809E0
5.422412125E0,-1.554008657E0,3.719916737E-1,3.290275025E0,3.657763039E0
5.432433125E0,-1.226648195E0,1.142738312E0,4.067045465E0,4.399019829E0
5.442454125E0,-4.307614535E-1,1.849497700E0,4.857748650E0,5.215737639E0
5.452475125E0,3.346472615E-1,2.909312553E0,5.456188368E0,6.192421161E0
5.462497125E0,6.391059333E-1,3.029030201E0,4.651546006E0,5.587518286E0
5.472518125E0,5.947542179E-1,2.925650843E0,3.215506094E0,4.387783595E0
5.482539125E0,4.315414721E-1,2.649821894E0,1.853244596E0,3.262253767E0
5.492561125E0,2.469922364E-1,1.981236053E0,8.252843495E-1,2.160415636E0
5.502582125E0,2.497035903E-1,1.521719162E0,-6.111065412E-1,1.658744193E0
5.512603125E0,5.900203121E-1,1.510725812E0,-2.133276524E0,2.679792002E0
5.522625125E0,1.157231805E0,1.019896497E0,-4.044978658E0,4.329113842E0
5.532646125E0,1.930892696E0,-1.197105723E0,-6.609312505E0,6.988878343E0
5.542667125E0,1.014548634E0,-3.975129574E0,-7.649685366E0,8.680360031E0
5.552689125E0,-2.116797316E-1,-4.573101515E0,-3.877974578E0,5.999729377E0
5.562710125E0,-1.763055387E0,-2.141239262E0,-5.844309586E-1,2.834577468E0
5.572731125E0,-2.120868732E0,-2.126703084E0,-4.996868236E-1,3.044772095E0
5.582753125E0,-2.268952977E0,-3.227493471E0,-4.752594955E-1,3.973755567E0
5.592774125E0,-9.908837825E-1,-1.993836218E0,5.286138766E-1,2.288376316E0
5.602795125E0,2.359790057E-1,-3.432637185E-1,7.506433260E-1,8.584762516E-1
5.612816125E0,6.429305971E-1,8.681366926E-1,1.336357164E0,1.718392138E0
5.622838125E0,4.730426699E-1,1.169715026E0,1.487311807E0,1.950409962E0
5.632859125E0,2.361550069E-1,1.217496133E0,1.655531377E0,2.068538170E0
5.642880125E0,-1.253906161E-1,9.420121694E-1,1.751659749E0,1.992842595E0
5.652902125E0,-1.882803440E-1,5.488693625E-1,1.745568119E0,1.839487734E0
5.662923125E0,-1.191370189E-2,3.409681016E-1,1.536697390E0,1.574115641E0
5.672944125E0,-1.340614522E-1,1.117999327E-1,8.040244581E-1,8.227557518E-1
5.682966125E0,-3.071407896E-1,-3.050311142E-1,4.708808081E-1,6.396156508E-1
5.692987125E0,-4.163615155E-1,-5.408949298E-1,5.594224173E-1,8.825404680E-1
5.703008125E0,-3.951121491E-1,-6.325745934E-1,5.403096235E-1,9.209770442E-1
5.713029125E0,-4.103599334E-1,-6.466745692E-1,8.777815287E-1,1.164939348E0
5.723051125E0,-4.354187608E-1,-4.779233408E-1,8.333599390E-1,1.054745943E0
5.733071875E0,-2.500514996E-1,-2.336792958E-1,7.048559730E-1,7.835519819E-1
5.743092875E0,-1.022414893E-1,-3.462697721E-1,1.000331421E0,1.063493784E0
5.753114875E0,-5.350564849E-1,2.378150314E-1,9.950670268E-1,1.154556113E0
5.763135875E0,-3.836440051E-1,4.815854520E-1,1.230202572E0,1.375683698E0
5.773156875E0,-7.052794576E-2,2.053945595E-1,1.948482875E0,1.960547533E0
5.783178875E0,1.859426272E-1,-7.928239703E-3,1.453258792E0,1.465127515E0
5.793199875E0,-5.948664844E-2,-2.349229985E-1,5.104094477E-1,5.650179474E-1
5.803220875E0,-4.378020859E-1,-3.876838464E-1,3.096890062E-1,6.617225338E-1
5.813242875E0,-3.983626163E-1,-4.898773885E-1,9.213451856E-1,1.116937590E0
5.823263875E0,-1.486315441E-1,-3.045867258E-1,1.263113771E0,1.307792341E0
5.833284875E0,-1.312998122E-1,-1.556107807E-1,9.616389334E-1,9.829566593E-1
5.843305875E0,-8.262349606E-2,1.511622190E-2,4.517186053E-1,4.594614681E-1
5.853327875E0,1.142662883E-2,4.228033930E-1,-5.644603783E-1,7.053430340E-1
5.863348875E0,2.980928081E-1,1.141051975E0,-1.029971250E0,1.565790442E0
5.873369875E0,7.256897485E-1,1.851710286E0,-8.968220363E-1,2.181684294E0
5.883391875E0,1.020716277E0,1.550616687E0,-1.078543558E0,2.146981610E0
5.893412875E0,1.013089753E0,1.010670760E0,-1.530665987E0,2.095410365E0
5.903433875E0,8.800305140E-1,1.307454962E-1,-2.061058733E0,2.244885563E0
5.913455875E0,6.838201761E-2,-5.275118226E-1,-2.697317072E0,2.749266122E0
5.923476875E0,-6.536426961E-2,-6.980704254E-1,-3.556920923E0,3.625363604E0
5.933497875E0,-2.063587654E-1,-5.387215197E-1,-3.615210062E0,3.660949140E0
5.943519875E0,1.050785583E-1,-5.733481461E-1,-2.891334704E0,2.949506056E0
5.953540875E0,4.889909506E-1,-2.209732962E-1,-2.693879494E0,2.746803247E0
5.963561875E0,7.910855931E-1,2.901926351E-1,-2.825238948E0,2.948220360E0
5.973582875E0,7.836678153E-1,4.867187226E-1,-2.597473526E0,2.756428682E0
5.983604875E0,6.941779339E-1,1.096987942E0,-2.503453222E0,2.820025458E0
5.993625875E0,6.431375885E-1,1.595595224E0,-2.271304142E0,2.849275800E0
6.003646875E0,4.402380359E-1,1.334777831E0,-2.345621084E0,2.734479778E0
6.013668875E0,-1.465522742E-1,1.051758560E0,-2.505450631E0,2.721204972E0
6.023689875E0,-2.314737260E-1,5.629360092E-1,-1.618900618E0,1.729542207E0
6.033710875E0,4.131046164E-1,-5.271025175E-1,-1.029657400E0,1.228286143E0
6.043732875E0,8.669602329E-1,-2.158189171E0,-6.890079720E-1,2.425723094E0
6.053753875E0,2.692660350E-1,-2.688435152E0,-6.968017258E-1,2.790290380E0
6.063774875E0,-5.022828412E-1,-2.529614834E0,-1.833251796E0,3.164182581E0
6.073795875E0,-9.838308710E-1,-2.349312431E0,-2.819313964E0,3.799437236E0
6.083817875E0,-7.680440551E-1,-1.649496612E0,-2.299143906E0,2.932028895E0
6.093838875E0,-4.517500341E-1,-8.039728564E-1,-1.324569323E0,1.613980898E0
6.103859875E0,1.113976443E-1,-2.850985408E-2,-9.636538839E-1,9.704901107E-1
6.113881875E0,4.135630381E-1,5.156583470E-1,-1.152269858E0,1.328406468E0
6.123902875E0,1.454372102E-1,1.067755957E0,-1.431922302E0,1.792109440E0
6.133923875E0,3.423544765E-1,1.378408000E0,-1.350697168E0,1.959999500E0
6.143945875E0,6.799089736E-1,1.317061352E0,-1.267062396E0,1.949967675E0
6.153966875E0,9.433143443E-1,9.563933963E-1,-1.126910191E0,1.753412918E0
6.163987875E0,1.337926556E0,1.317175373E0,-9.148945373E-1,2.088547449E0
6.174009875E0,9.165867215E-1,1.126011182E0,-4.003664571E-1,1.506096179E0
6.184030875E0,4.321495825E-1,5.433390659E-1,1.874716741E-1,7.191079410E-1
6.194051875E0,3.628431201E-2,-6.242124903E-1,4.254966205E-1,7.563102263E-1
6.204072875E0,-1.225681651E-1,-1.891562569E0,-3.017964345E-1,1.919404334E0
6.214094875E0,-2.338634831E-1,-3.015831281E0,-6.845846996E-1,3.101384635E0
6.224115875E0,-8.408880830E-3,-3.786467407E0,-3.861814043E-1,3.806119048E0
6.234136875E0,1.518755794E-1,-3.761400978E0,-1.491156936E-2,3.764495433E0
6.244158875E0,-1.441315269E-1,-3.574052095E0,3.305045092E-1,3.592193690E0
6.254179875E0,-4.328062248E-1,-3.425043991E0,5.716273105E-1,3.499286406E0
6.264200875E0,-4.369478077E-1,-3.807831379E0,1.011707472E0,3.964095761E0
6.274222875E0,-5.526788235E-3,-4.098396481E0,1.253504457E0,4.285808872E0
6.284243875E0,3.593862462E-1,-3.690740593E0,1.309191877E0,3.932519290E0
6.294264875E0,3.711847579E-1,-2.818794439E0,1.358450283E0,3.150994666E0
6.304285875E0,4.611734068E-1,-1.409642364E0,1.920915592E0,2.426868191E0
6.314307875E0,8.107766765E-1,-1.703554121E-1,2.565426106E0,2.695884065E0
6.324328875E0,1.292139350E0,8.609577736E-1,2.981597003E0,3.361665223E0
6.334349875E0,1.896500543E0,1.392588667E0,3.336764483E0,4.082892935E0
6.344371875E0,2.758825103E0,1.306097238E0,3.586259328E0,4.709380204E0
6.354392875E0,3.499695393E0,8.078127229E-1,4.255218805E0,5.568421349E0
6.364413875E0,4.017670991E0,5.368767232E-2,5.205165061E0,6.575584071E0
6.374435875E0,4.465634369E0,-1.107279919E-1,6.220595455E0,7.658326111E0
6.384456875E0,4.907427764E0,1.189409910E-1,7.330411019E0,8.822240074E0
6.394477875E0,5.532443077E0,5.436730881E-1,7.920520794E0,9.676681067E0
6.404499875E0,5.965162763E0,9.790298684E-1,8.100579953E0,1.010747554E1
6.414520875E0,6.756618485E0,1.211954435E0,8.375970946E0,1.082947904E1
6.424541875E0,6.076416566E0,1.441950716E0,7.665712000E0,9.887628664E0
6.434563875E0,5.648737180E0,1.547201036E0,6.633256268E0,8.848850292E0
6.444584875E0,5.338046545E0,1.895371445E0,5.582340292E0,7.952967809E0
6.454605875E0,5.116037707E0,2.423348999E0,4.646784618E0,7.323869843E0
6.464626875E0,4.877125738E0,2.981941404E0,3.751518599E0,6.837559638E0
6.474648875E0,4.442646040E0,3.467279599E0,2.822915264E0,6.303013743E0
6.484669875E0,4.037669638E0,3.556784683E0,2.027762933E0,5.750244856E0
6.494690875E0,3.492592780E0,3.470756938E0,1.372097100E0,5.111458549E0
6.504712875E0,2.888035120E0,2.918734172E0,9.288167578E-1,4.209804816E0
6.514733875E0,2.229687755E0,2.274275990E0,1.076996897E0,3.362106643E0
6.524754875E0,1.584851550E0,1.415631375E0,1.184418435E0,2.432820103E0
6.534776875E0,1.054725437E0,3.993079649E-1,1.452364168E0,1.838818717E0
6.544797875E0,5.916388214E-1,-4.108563620E-1,1.711481191E0,1.856881071E0
6.554818875E0,2.725615257E-1,-1.043407567E0,1.843328887E0,2.135614788E0
6.564840875E0,-1.954548776E-2,-1.356761461E0,1.960968434E0,2.384655298E0
6.574861875E0,-3.653737950E-1,-1.454080618E0,2.099085515E0,2.579536481E0
6.584882875E0,-4.888412619E-1,-1.343971262E0,2.094991879E0,2.536575547E0
6.594904875E0,-5.011186606E-1,-8.735114533E-1,2.120567601E0,2.347541080E0
6.604925875E0,-4.550174582E-1,-9.123001277E-2,2.115018593E0,2.165333104E0
6.614946875E0,-3.834247345E-1,8.227131826E-1,2.277280582E0,2.451505324E0
6.624967875E0,-3.470685017E-1,1.553169727E0,2.324583387E0,2.817176010E0
6.634989875E0,-3.446699739E-1,1.810136729E0,2.245468805E0,2.904741386E0
6.645010875E0,-2.717370683E-1,1.695270370E0,2.123030448E0,2.730392086E0
6.655031875E0,-2.514197481E-1,1.520959317E0,1.985559484E0,2.513757267E0
6.665053875E0,-2.601712757E-1,1.515398030E0,1.968693191E0,2.497973811E0
6.675074875E0,-3.396723586E-1,1.595469509E0,1.794470723E0,2.425082563E0
6.685095875E0,-5.573963571E-1,1.624618464E0,1.818900390E0,2.501694322E0
6.695117875E0,-7.764260387E-1,1.347664217E0,1.935765181E0,2.483188086E0
6.705138875E0,-9.978367066E-1,1.334540726E0,1.876887812E0,2.509857546E0
6.715159875E0,-1.197392237E0,1.348398043E0,1.591664726E0,2.405269641E0
6.725182000E0,-1.385946815E0,1.132804185E0,1.410536696E0,2.278970747E0
6.735203000E0,-1.392396879E0,1.069247582E0,1.469883011E0,2.289675856E0
6.745224000E0,-1.254904280E0,1.230412048E0,1.701918654E0,2.446472086E0
6.755245000E0,-1.282877945E0,1.390914317E0,1.773574528E0,2.593450417E0
6.765267000E0,-1.451119881E0,1.330312605E0,1.528651037E0,2.492439473E0
6.775288000E0,-1.621605978E0,9.474340001E-1,1.022158200E0,2.138233972E0
6.785309000E0,-1.873869479E0,6.181936589E-1,4.993908083E-1,2.035421677E0
6.795331000E0,-2.136810581E0,5.279293138E-1,-1.237797081E-1,2.204538554E0
6.805352000E0,-1.849107106E0,1.878953049E-1,1.997420561E-1,1.869331063E0
6.815373000E0,-2.076853232E0,-9.962866098E-2,4.807066154E-1,2.134086237E0
6.825394000E0,-2.109482449E0,7.464058489E-2,-8.537636518E-1,2.276927709E0
6.835416000E0,-2.051748211E0,6.449496406E-1,1.962664711E-1,2.159664624E0
6.845437000E0,-2.159303066E0,7.909323961E-1,4.232799411E-1,2.338232172E0
6.855458000E0,-2.140687285E0,7.119221869E-1,5.034452677E-4,2.255964429E0
6.865480000E0,-2.208501538E0,7.464116961E-2,-4.408712894E-1,2.253312637E0
6.875501000E0,-2.141930403E0,-3.635468325E-1,-7.568320191E-1,2.300614452E0
6.885522000E0,-2.520773259E0,-8.951528755E-1,-2.590427631E-1,2.687508074E0
6.895544000E0,-2.783136656E0,-1.260144847E0,-1.769051707E0,3.530348230E0
6.905565000E0,-2.947205434E0,-1.299175889E0,-1.697940209E0,3.640999700E0
6.915586000E0,-2.723305607E0,-1.044561515E0,-4.713557482E-1,2.954602922E0
6.925608000E0,-2.678418286E0,-1.181344261E0,-7.606718856E-1,3.024586004E0
6.935629000E0,-2.730587729E0,-1.459818783E0,-1.429154815E0,3.410229276E0
6.945650000E0,-2.947874356E0,-1.784063556E0,-1.449365716E0,3.738115430E0
6.955671000E0,-3.168676329E0,-1.914331919E0,-4.831460738E-1,3.733444321E0
6.965693000E0,-4.008812460E0,-2.016916640E0,-1.420047777E0,4.706916800E0
6.975714000E0,-4.587603194E0,-1.597622892E0,-1.368254895E0,5.046842917E0
6.985735000E0,-5.055245960E0,-1.380673796E0,-8.979621702E-1,5.316776082E0
6.995757000E0,-5.109110511E0,-1.235100492E0,1.873465437E-1,5.259618063E0
7.005778000E0,-5.166005089E0,-1.646528273E0,1.028609433E0,5.518759036E0
7.015799000E0,-4.907654051E0,-1.489849498E0,-2.459350598E-1,5.134705821E0
7.025821000E0,-5.225333278E0,-5.941820678E-1,-5.205682540E-1,5.284709216E0
7.035842000E0,-5.307887192E0,1.583700818E-1,4.576855427E-1,5.329936546E0
7.045863000E0,-4.855675812E0,5.838927955E-1,-5.455037051E-1,4.920984930E0
7.055884000E0,-4.664776500E0,6.292919666E-1,-2.025303594E0,5.124256319E0
7.065906000E0,-4.734675286E0,3.255238509E-1,-1.982965659E0,5.143468542E0
7.075927000E0,-4.570189016E0,4.760437533E-1,-7.227866060E-1,4.651415460E0
7.085948000E0,-4.293833817E0,8.518195988E-1,-8.250438827E-1,4.454582235E0
7.095970000E0,-3.891158879E0,1.291944053E0,-1.453636522E0,4.350091493E0
7.105991000E0,-3.510518004E0,1.080161118E0,-1.815639398E0,4.097197960E0
7.116012000E0,-2.781195381E0,1.182860115E-1,-1.724494754E0,3.274587223E0
7.126034000E0,-1.852657535E0,-1.016037846E0,-3.951076760E0,4.480589293E0
7.136055000E0,-1.286800842E0,-6.373918220E-1,-6.062841085E0,6.230583180E0
7.146076000E0,-1.495761618E0,2.615188251E0,-8.916433766E-1,3.141900749E0
7.156097000E0,-2.120055969E0,1.365226914E0,3.588989685E0,4.386265929E0
7.166119000E0,-3.230674941E0,-3.452392368E-1,2.339060216E0,4.003455182E0
7.176140000E0,-2.591229869E0,-1.308072135E0,2.527539657E0,3.848893564E0
7.186161000E0,-2.804052731E0,-1.541487429E0,5.386609426E0,6.265337686E0
7.196183000E0,-3.135895084E0,-9.515564333E-1,7.179590278E0,7.892136224E0
7.206204000E0,-3.640024475E0,-1.557207815E-1,6.615091308E0,7.552050063E0
7.216225000E0,-4.362357337E0,2.965376680E-1,6.164969139E0,7.558104300E0
7.226247000E0,-5.016022253E0,4.898754881E-1,6.558656906E0,8.271422952E0
7.236268000E0,-5.303071425E0,4.021820907E-1,6.170466106E0,8.146101456E0
7.246289000E0,-5.095656068E0,-3.126472222E-1,5.113940896E0,7.226053593E0
7.256310000E0,-4.683771181E0,-1.576574378E0,1.838568669E0,5.272915132E0
7.266332000E0,-3.577918859E0,-2.520305190E0,1.326075420E0,4.572955022E0
7.276353000E0,-2.801985741E0,-3.177217357E0,1.057138583E0,4.366162641E0
7.286374000E0,-2.748168553E0,-3.942844173E0,9.179488304E-1,4.892962356E0
7.296396000E0,-3.243180381E0,-3.938307318E0,1.143248774E0,5.228336377E0
7.306417000E0,-4.209239810E0,-3.131737713E0,1.923595371E0,5.587996066E0
7.316438000E0,-5.008276446E0,-2.311242233E0,3.087094222E0,6.320982863E0
7.326460000E0,-5.601971149E0,-1.632420257E0,4.011277646E0,7.080764436E0
7.336481000E0,-6.191081634E0,-3.186877249E-1,4.657559282E0,7.753961061E0
7.346502000E0,-5.690957000E0,1.811738428E0,4.261700736E0,7.336993994E0
7.356524000E0,-5.234808106E0,4.100953761E0,3.037095850E0,7.310607968E0
7.366545000E0,-4.327523135E0,6.752105019E0,3.092591482E0,8.595493048E0
7.376566000E0,-2.837563124E0,9.247255780E0,1.740585414E0,9.828180987E0
7.386587000E0,-1.390273170E0,1.089233833E1,-2.227322556E0,1.120432325E1
7.396609000E0,7.683867019E-1,1.078312871E1,-4.984577097E0,1.190429720E1
7.406630000E0,2.897097135E0,1.084330592E1,-8.103898247E0,1.384354080E1
7.416651000E0,4.675551749E0,1.134714880E1,-1.364709845E1,1.835379704E1
7.426673000E0,4.963069868E0,1.109595007E1,-1.359761463E1,1.823862095E1
7.436694000E0,3.199159033E0,1.018196361E1,-1.016800630E1,1.474094141E1
7.446715000E0,1.701704646E0,9.685803385E0,-5.928772616E0,1.148307148E1
7.456737000E0,1.047265559E0,8.388962874E0,-9.745022231E-1,8.510059803E0
7.466758000E0,1.464056845E0,3.679603693E0,2.296108031E0,4.577669481E0
7.476779000E0,-7.370766163E-1,7.186841995E-2,3.139339094E0,3.225507240E0
7.486800000E0,-8.174758315E-1,-4.691823381E-1,3.831597971E0,3.945825872E0
7.496822000E0,1.462222574E0,-1.542647517E-1,3.823102552E0,4.096096384E0
7.506843000E0,4.876291341E-1,-1.968278039E-1,4.755490204E0,4.784475984E0
7.516864000E0,1.230844157E0,8.934992829E-1,4.522494448E0,4.771401716E0
7.526886000E0,1.726944153E0,1.099110774E0,3.445016325E0,4.007308084E0
7.536907000E0,1.568418535E0,5.366232464E-1,4.613177746E0,4.901970025E0
7.546928000E0,4.208085569E0,2.271073762E0,2.672777478E0,5.478092700E0
7.556950000E0,4.627292340E0,3.519000560E0,1.104651303E0,5.917385727E0
7.566971000E0,4.809853522E0,3.438076850E0,-2.874491215E-1,5.919264340E0
7.576992000E0,4.577859394E0,2.771594545E0,-1.103667802E0,5.464120750E0
7.587013000E0,2.571372725E0,1.192795448E0,-1.050936441E0,3.023108677E0
7.597035000E0,2.540112340E-1,-7.241004753E-1,-8.141733241E-1,1.118803561E0
7.607056000E0,-1.696936242E0,-2.640329816E0,-2.377828717E-1,3.147614151E0
7.617077000E0,-2.932924195E0,-3.214765252E0,7.424209714E-3,4.351645100E0
7.627099000E0,-4.470615027E0,-4.724240345E0,-2.045186466E-1,6.507432169E0
7.637120000E0,-4.471010883E0,-5.463559953E0,-4.902399158E-1,7.076776163E0
7.647141000E0,-3.990842797E0,-3.728626165E0,2.912626755E-1,5.469397887E0
7.657163000E0,-3.908694679E0,-2.088079009E0,4.013938129E-1,4.449616279E0
7.667184000E0,-4.478456143E0,-1.538531662E0,4.731701392E-1,4.758943063E0
7.677205000E0,-4.395245587E0,-1.487088443E0,4.197850603E-1,4.658952168E0
7.687226000E0,-3.345082732E0,-1.282204345E0,-1.060717079E-1,3.583975122E0
7.697248000E0,-2.738248751E0,-5.871224320E-1,1.005115613E0,2.975395162E0
7.707269000E0,-2.686334247E0,-7.464906335E-1,3.399039084E-1,2.808767456E0
7.717290000E0,-2.245081134E0,-3.498897833E-1,5.940037277E-1,2.348542652E0
7.727307917E0,-1.322000495E0,7.153600574E-2,1.474557860E0,1.981697149E0
7.737328917E0,-7.244980860E-1,2.196108949E-1,1.556994245E0,1.731287816E0
7.747349917E0,-2.150138140E-2,3.066890922E-1,2.911650270E-2,3.088175504E-1
7.757371917E0,7.000035149E-1,8.956381944E-1,2.400705948E-1,1.161811769E0
7.767392917E0,1.803994668E-1,2.200959215E0,-1.302169079E-1,2.212175824E0
7.777413917E0,-1.883738995E-1,4.247830263E0,3.452973801E-1,4.266002456E0
7.787434917E0,2.082503396E-1,5.252526923E0,5.072547287E-1,5.281071354E0
7.797456917E0,-3.055620414E-1,4.731479782E0,-1.634413719E-2,4.741364384E0
7.807477917E0,-5.481115633E-1,4.041930797E0,-1.370850474E-1,4.081228144E0
7.817498917E0,-6.557436007E-1,4.038696117E0,-1.601093361E-1,4.094716229E0
7.827520917E0,-1.123067694E0,3.551699652E0,3.056503344E-1,3.737549142E0
7.837541917E0,-1.398618901E0,3.242745056E0,1.588267493E-1,3.535075143E0
7.847562917E0,-1.903563395E0,2.903176193E0,-2.683050451E-1,3.481949627E0
7.857584917E0,-2.183020542E0,2.197411563E0,-4.225624877E-1,3.126140643E0
7.867605917E0,-2.407749504E0,1.978387874E0,-2.085593650E-1,3.123263240E0
7.877626917E0,-2.756955748E0,2.153913248E0,1.921877459E-1,3.503866922E0
7.887647917E0,-2.576667379E0,2.647825654E0,3.315134463E-1,3.709460424E0
7.897669917E0,-2.144109076E0,3.178690855E0,5.927176327E-2,3.834682832E0
7.907690917E0,-1.619610908E0,3.386580421E0,-9.088204497E-1,3.862385410E0
7.917711917E0,-1.352955655E0,2.745591977E0,-1.831620715E0,3.567015384E0
7.927733917E0,-5.534681976E-1,2.193041792E0,-1.474369287E0,2.699911877E0
7.937754917E0,-2.289009511E-2,1.820725890E0,-9.752807799E-1,2.065608705E0
7.947775917E0,1.030372953E-1,9.949462818E-1,-9.171258348E-1,1.357075748E0
7.957797917E0,2.219462729E-1,1.110572998E0,-5.829779255E-1,1.273772269E0
7.967818917E0,3.668426156E-2,1.315773795E0,8.356606722E-2,1.318935064E0
7.977839917E0,-3.005965859E-1,1.085261498E0,1.052649968E0,1.541500172E0
7.987860917E0,-3.312471056E-1,1.295986525E0,1.947995217E0,2.363046991E0
7.997882917E0,-8.591699874E-1,1.274275813E0,2.380706717E0,2.833675420E0
8.007903917E0,-1.113764774E0,1.651269780E0,2.349846721E0,3.080412873E0
8.017924917E0,-1.000000761E0,2.176855530E0,1.858788341E0,3.032127243E0
8.027946917E0,-1.215102868E0,2.326128806E0,1.593706281E0,3.070382698E0
8.037967917E0,-1.740133717E0,1.852200868E0,4.430803674E-1,2.579735184E0
8.047988917E0,-2.110189378E0,1.577690465E0,1.010749698E-2,2.634788146E0
8.058010917E0,-2.699363013E0,4.360245323E-1,-8.368067265E-2,2.735631650E0
8.068031917E0,-2.407234365E0,-8.846530303E-1,-1.457258872E0,2.949744344E0
8.078052917E0,-2.435141371E0,-1.886333843E0,-2.417133116E0,3.915443955E0
8.088074917E0,-2.291363600E0,-2.688065023E0,-1.552338400E0,3.858211402E0
8.098095917E0,-1.391761871E0,-3.161911100E0,-1.565481917E0,3.792811166E0
8.108116917E0,-6.839838982E-1,-3.796933630E0,-1.651829943E0,4.196794149E0
8.118137917E0,-4.189149946E-1,-4.055128840E0,-1.017597372E0,4.201792961E0
8.128159917E0,-2.051852292E-1,-4.137034005E0,-1.211168861E-1,4.143889554E0
8.138180917E0,-9.819755495E-2,-4.207700822E0,2.045353112E-1,4.213813435E0
8.148201917E0,-1.424855357E-1,-4.027729372E0,3.669244766E-2,4.030415904E0
8.158223917E0,9.082947850E-2,-3.653009972E0,2.098741114E-2,3.654199272E0
8.168244917E0,7.130913377E-1,-2.862781581E0,-2.250222006E-1,2.958826224E0
8.178265917E0,1.286500295E0,-1.541103267E0,-5.676184595E-1,2.086210201E0
8.188287917E0,1.698808520E0,-1.543062669E-1,-5.538742867E-1,1.793470808E0
8.198308917E0,2.222402709E0,7.026131272E-1,-7.839592990E-1,2.459132202E0
8.208329917E0,3.208397049E0,1.135210022E0,-1.257287021E0,3.628124043E0
8.218351917E0,3.972074988E0,1.207983298E0,-1.747406776E0,4.504446004E0
8.228372917E0,3.059072025E0,1.225987752E0,-1.716024185E0,3.715603131E0
8.238393917E0,1.462666377E0,1.223248624E0,-1.128087821E0,2.215471115E0
8.248414917E0,5.697480154E-1,1.086709122E0,-8.057252669E-1,1.467904194E0
8.258436917E0,-3.474713749E-1,8.363883582E-1,-4.771211028E-1,1.023682758E0
8.268457917E0,-6.291153806E-1,8.394809505E-1,-5.097275162E-1,1.166334673E0
8.278478917E0,-8.170846528E-1,8.552248710E-1,-7.555500171E-1,1.403528674E0
8.288500917E0,-5.870171821E-1,1.242691201E0,6.440067771E-1,1.517766557E0
8.298521917E0,3.467486590E-1,1.048015757E0,4.991329461E-1,1.211488901E0
8.308542917E0,9.521091413E-1,1.031044506E0,2.667932475E-1,1.428545844E0
8.318564917E0,8.930850077E-1,1.034774153E0,5.306213719E-1,1.466259669E0
8.328585917E0,6.315460682E-2,6.523311657E-1,-1.310493760E0,1.465236618E0
8.338606917E0,-9.233478570E-1,5.318755996E-1,7.315545058E-1,1.292530430E0
8.348627917E0,-1.089196528E0,-4.299960530E-1,-6.161383626E-1,1.323205261E0
8.358649917E0,-1.645020568E0,-1.785388827E-2,-2.147245084E0,2.705008850E0
8.368670917E0,-2.788732442E0,-3.660883248E-1,-1.880724755E-1,2.818939614E0
8.378691917E0,-3.123712410E0,-1.286804058E0,9.126535919E-1,3.499482888E0
8.388713917E0,-5.895291460E-1,-1.117842037E0,9.691255622E-1,1.592582742E0
8.398734917E0,1.593803052E0,-1.497434506E0,-2.370048997E-1,2.199702160E0
8.408755917E0,1.541399136E0,-5.090787676E-1,-3.473187625E-2,1.623662154E0
8.418777917E0,1.782413179E0,5.386425823E-2,3.218458938E0,3.679453225E0
8.428798917E0,1.881538687E0,2.717581183E-1,3.961932408E0,4.394422455E0
8.438819917E0,1.451197064E0,7.237663069E-1,3.669033097E0,4.011435460E0
8.448841917E0,7.320515192E-1,6.944983613E-1,2.886843165E0,3.058118844E0
8.458862917E0,7.112260759E-2,4.284085339E-1,2.252807060E0,2.294282448E0
8.468883917E0,-5.052853864E-1,1.645093659E-1,1.505471212E0,1.596502497E0
8.478904917E0,-8.718058205E-1,-2.329840618E-1,6.282434146E-1,1.099552977E0
8.488926917E0,-1.114618467E0,-6.718787000E-1,-6.727060810E-2,1.303196320E0
8.498947917E0,-1.372351454E0,-1.069068950E0,-6.911112155E-1,1.871868490E0
8.508968917E0,-1.460802285E0,-1.171043806E0,-9.618598120E-1,2.104866079E0
8.518990917E0,-1.654612341E0,-1.078425372E0,-1.098797071E0,2.260110237E0
8.529011917E0,-1.989239722E0,-1.125186432E0,-9.688516201E-1,2.482295841E0
8.539032917E0,-2.335505401E0,-1.233571883E0,-6.372621600E-1,2.717055047E0
8.549054917E0,-2.704372907E0,-1.432839730E0,-6.157189710E-1,3.121821963E0
8.559075917E0,-2.961285530E0,-1.814959659E0,-2.980347745E-1,3.485988422E0
8.569096917E0,-2.476405756E0,-1.515361485E0,9.203144677E-1,3.045633698E0
8.579118917E0,-2.109312880E0,-1.018078890E0,9.881342755E-1,2.542065066E0
8.589139917E0,-1.794804599E0,-7.970275337E-1,1.118416672E0,2.259962896E0
8.599160917E0,-1.638742998E0,-7.960457861E-1,1.188658397E0,2.175333604E0
8.609181917E0,-1.669317504E0,-7.725803250E-1,1.377250690E0,2.297894852E0
8.619203917E0,-1.814438379E0,-7.602163875E-1,1.348233297E0,2.384921091E0
8.629224917E0,-2.057926379E0,-7.133167478E-1,1.335660176E0,2.554969642E0
8.639245917E0,-2.250252412E0,-5.599436966E-1,1.289644927E0,2.653367087E0
8.649267917E0,-2.271906990E0,-3.451453525E-1,1.309890912E0,2.645089958E0
8.659288917E0,-1.870151820E0,-1.814902648E-1,1.169831386E0,2.213348598E0
8.669309917E0,-1.091409114E0,3.712221801E-2,9.900603484E-1,1.474032363E0
8.679331917E0,-2.121229506E-1,6.598290503E-2,9.434504382E-1,9.692515769E-1
8.689352917E0,7.762336653E-1,-5.485419184E-2,6.075830090E-1,9.872713905E-1
8.699373917E0,1.927608315E0,-6.450724322E-1,2.926519740E-1,2.053640045E0
8.709395917E0,2.918492682E0,-8.278800747E-1,1.631945609E0,3.444739674E0
8.719416917E0,3.616197656E0,-8.389374518E-1,8.975639749E-1,3.819204450E0
8.729443292E0,4.830093659E0,-1.848677628E0,2.178234011E-1,5.176375253E0
8.739464292E0,5.779573308E0,-2.441092667E0,-8.509739453E-1,6.331394608E0
8.749486292E0,6.030504813E0,-2.007866612E0,-1.930646820E0,6.642733908E0
8.759507292E0,4.711604512E0,-4.797245756E-1,-2.307953028E0,5.268396333E0
8.769528292E0,3.611257344E0,2.488165677E-1,-2.035200299E0,4.152725556E0
8.779550292E0,2.649283365E0,8.791703886E-1,-1.596217368E0,3.215517502E0
8.789571292E0,1.976365322E0,7.964483669E-1,-1.170597371E0,2.431182448E0
8.799592292E0,1.421437660E0,5.734504724E-1,-7.791286218E-1,1.719410328E0
8.809614292E0,1.182977096E0,9.472781718E-2,-6.279933000E-1,1.342677829E0
8.819635292E0,1.079439864E0,-4.923835051E-1,-7.421733418E-1,1.399447464E0
8.829656292E0,1.049765244E0,-9.771226528E-1,-8.646953139E-1,1.674656303E0
8.839678292E0,9.773930866E-1,-1.230835679E0,-1.021688084E0,1.874593357E0
8.849699292E0,8.732781494E-1,-1.095546604E0,-9.901256910E-1,1.715571616E0
8.859720292E0,6.032297570E-1,-8.388085207E-1,-8.719791904E-1,1.351973958E0
8.869742292E0,3.108748215E-1,-7.525053719E-1,-1.014151315E0,1.300542341E0
8.879763292E0,9.736549616E-2,-6.623901308E-1,-7.405802679E-1,9.983485656E-1
8.889784292E0,-2.077159041E-1,-5.165488780E-1,-7.229169989E-1,9.124569181E-1
8.899805292E0,-3.635412776E-1,-3.988947129E-1,-5.523741835E-1,7.722671113E-1
8.909827292E0,-6.166666585E-1,-6.821244836E-2,-3.431239700E-1,7.089885504E-1
8.919848292E0,-7.293448430E-1,-1.112669590E-1,-6.074157786E-1,9.556558818E-1
8.929869292E0,-8.642348456E-1,7.263908297E-2,-4.430780286E-1,9.739078212E-1
8.939891292E0,-9.969719034E-1,2.781041014E-1,-4.748436123E-1,1.138758677E0
8.949912292E0,-9.532499331E-1,3.776590875E-1,-5.944434384E-1,1.185189783E0
8.959933292E0,-9.891003817E-1,5.789000773E-1,-6.198218161E-1,1.302928988E0
8.969955292E0,-9.949399960E-1,7.943921936E-1,-6.871185905E-1,1.446753784E0
8.979976292E0,-1.030413884E0,9.019704366E-1,-7.258090317E-1,1.549871669E0
8.989997292E0,-1.127203429E0,9.481953076E-1,-8.095981702E-1,1.680806684E0
9.000019292E0,-1.224669498E0,9.930036905E-1,-7.879330668E-1,1.762586232E0
9.010040292E0,-1.367263792E0,9.041675279E-1,-7.350014395E-1,1.796428766E0
9.020061292E0,-1.476914873E0,8.991912550E-1,-6.449041785E-1,1.845460336E0
9.030083292E0,-1.455306487E0,8.021742529E-1,-4.159633201E-1,1.713016634E0
9.040104292E0,-1.431439907E0,4.920437819E-1,-4.071097586E-1,1.567439200E0
9.050125292E0,-1.343325291E0,2.799465591E-1,-7.652970332E-1,1.571169138E0
9.060147292E0,-1.238926764E0,2.357755226E-1,-3.525701469E-1,1.309517213E0
9.070168292E0,-1.210312829E0,1.947184208E-1,-4.048017164E-1,1.290982896E0
9.080189292E0,-1.265771915E0,2.136321169E-1,-4.546742266E-1,1.361817123E0
9.090210292E0,-1.316536272E0,3.168711412E-1,-5.250217858E-1,1.452350836E0
9.100232292E0,-1.409842631E0,3.920482081E-1,-5.768044353E-1,1.572914937E0
9.110253292E0,-1.522065318E0,4.666908395E-1,-5.455781110E-1,1.682895911E0
9.120274292E0,-1.529531627E0,4.252332035E-1,-5.008866723E-1,1.664685476E0
9.130296292E0,-1.586886381E0,6.843265450E-1,-3.739067830E-1,1.768139556E0
9.140317292E0,-1.462251225E0,6.791432807E-1,-2.591453817E-1,1.632963738E0
9.150338292E0,-1.389801300E0,6.568990105E-1,-1.935662270E-2,1.537347925E0
9.160360292E0,-1.281790947E0,5.290546104E-1,1.689288376E-1,1.396933701E0
9.170381292E0,-1.180674462E0,3.457467386E-1,3.917628640E-1,1.291127854E0
9.180402292E0,-9.711371505E-1,3.263795909E-1,5.865591989E-1,1.180543390E0
9.190424292E0,-5.855162019E-1,3.645537230E-1,8.401010478E-1,1.086967529E0
9.200445292E0,1.034080088E-1,5.828677055E-1,8.576011795E-1,1.042068981E0
9.210466292E0,8.678753221E-1,7.374406055E-1,8.940167615E-1,1.447857794E0
9.220488292E0,1.503120924E0,8.922181579E-1,8.610978144E-1,1.948567473E0
9.230509292E0,1.958821337E0,1.030811495E0,9.122536424E-1,2.394109453E0
9.240530292E0,2.079777424E0,9.279449379E-1,7.051397091E-1,2.384067523E0
9.250552292E0,2.026528001E0,9.807721925E-1,5.723102653E-1,2.322987058E0
9.260573292E0,1.816443974E0,1.024290680E0,5.930912697E-1,2.168039982E0
9.270594292E0,1.523221312E0,9.604425931E-1,4.284678832E-1,1.851009959E0
9.280615292E0,1.110393269E0,8.728439936E-1,2.821100289E-1,1.440283277E0
9.290637292E0,6.330616665E-1,8.068429622E-1,1.607709485E-1,1.038079928E0
9.300658292E0,1.143855715E-1,7.141564080E-1,3.812150717E-2,7.242628552E-1
9.310679292E0,-4.101085031E-1,6.120543748E-1,-2.039755864E-1,7.644642450E-1
9.320701292E0,-8.321862566E-1,5.203177008E-1,-2.835262245E-1,1.021592676E0
9.330722292E0,-1.095213897E0,4.819549960E-1,-3.418811443E-1,1.244450407E0
9.340743292E0,-9.499883562E-1,6.076827040E-1,-3.370150915E-1,1.177002684E0
9.350765292E0,-6.512196100E-1,8.274041113E-1,-1.392833081E-1,1.062113169E0
9.360786292E0,-1.410137916E-1,8.295126173E-1,7.071607992E-2,8.443795566E-1
9.370807292E0,3.197725296E-1,5.719287345E-1,1.971993944E-1,6.842839682E-1
9.380829292E0,6.171472996E-1,8.901421040E-2,3.322975579E-1,7.065521821E-1
9.390850292E0,8.906888187E-1,-3.830411571E-1,4.794708064E-1,1.081637349E0
9.400871292E0,1.534909312E0,-7.060691240E-1,5.934763089E-1,1.790724527E0
9.410893292E0,2.190596779E0,-2.085754448E-1,5.535370485E-1,2.269057344E0
9.420914292E0,2.892027014E0,-3.003875479E-1,3.683383334E-1,2.930823444E0
9.430935292E0,3.751051406E0,-5.195818287E-1,-2.198640794E-1,3.793242959E0
9.440957292E0,4.212076294E0,-1.240180407E0,-6.258622822E-1,4.435238183E0
9.450978292E0,4.164791030E0,-2.582886769E0,-1.831932810E0,5.231898911E0
9.460999292E0,3.158460073E0,-3.366493481E0,-2.597978725E0,5.297040858E0
9.471020292E0,1.731675135E0,-4.031322486E0,-1.638775742E0,4.683571894E0
9.481042292E0,1.159502864E-1,-5.940250701E0,-9.003443259E-1,6.009213157E0
9.491063292E0,-1.106191460E0,-8.363821017E0,-6.403721479E-1,8.460924183E0
9.501084292E0,-3.255884627E0,-1.030215312E1,5.068033236E-1,1.081628371E1
9.511106292E0,-3.007634654E0,-7.710239716E0,1.342525392E0,8.384273202E0
9.521127292E0,-1.053953020E0,-2.415103986E0,2.283837357E0,3.487041340E0
9.531148292E0,-2.106781036E-1,-7.590190239E-1,2.262371059E0,2.395583008E0
9.541170292E0,1.328234797E0,6.290890682E-1,1.714316506E0,2.258061517E0
9.551191292E0,1.670996824E0,1.215995446E0,4.871397221E-1,2.123247611E0
9.561212292E0,7.782275659E-1,3.556970917E-1,-4.477290501E-1,9.657224589E-1
9.571234292E0,-4.570943892E-1,-1.190639141E0,-1.104294331E0,1.687015949E0
9.581255292E0,-7.977981967E-1,-1.354125683E0,-1.760027699E0,2.359626205E0
9.591276292E0,-1.191711082E0,-1.305360927E0,-1.650749086E0,2.418494366E0
9.601298292E0,-1.627468981E0,-1.648389734E0,-1.167052935E0,2.593811202E0
9.611319292E0,-2.099476109E0,-2.354430645E0,-7.271164691E-1,3.237258401E0
9.621340292E0,-2.154041741E0,-2.350561689E0,-3.353641301E-1,3.205854827E0
9.631362292E0,-1.176076797E0,-1.781303816E0,2.072987053E-1,2.144568178E0
9.641383292E0,-7.373093355E-1,-1.523290163E0,6.081756243E-1,1.798309086E0
9.651404292E0,-7.876064998E-1,-1.548162464E0,8.898386335E-1,1.951651559E0
9.661426292E0,-5.494780576E-1,-8.729448581E-1,1.355022061E0,1.702951452E0
9.671447292E0,-3.948741674E-1,-2.862475187E-1,1.525054414E0,1.601141535E0
9.681468292E0,-2.038836390E-1,-7.003093243E-2,1.887734982E0,1.900004271E0
9.691490292E0,-1.897696298E-1,8.828696296E-2,2.093190937E0,2.103629102E0
9.701511292E0,-1.201287067E-1,-3.936778271E-1,2.093366061E0,2.133446649E0
9.711532292E0,-9.327232826E-1,-1.059530387E0,2.172403752E0,2.590736464E0
9.721554292E0,-2.781305893E0,-2.083528559E0,1.582260064E0,3.818415985E0
9.731570375E0,-3.941888738E0,-2.457574798E0,8.859973052E-1,4.728969437E0
9.741591375E0,-4.042436289E0,-2.037206040E0,-1.867738089E-1,4.530605263E0
9.751613375E0,-3.595745850E0,-1.256027530E0,-1.309542125E0,4.027641239E0
9.761634375E0,-2.376944034E0,-5.878251942E-1,-2.246594979E0,3.323039331E0
9.771655375E0,-1.282905427E0,-2.438727468E-3,-2.738751612E0,3.024336733E0
9.781677375E0,-8.499185228E-1,-1.358669993E-1,-2.943642726E0,3.066896450E0
9.791698375E0,-7.111336899E-1,-7.706799068E-1,-2.269447798E0,2.500010390E0
9.801719375E0,-5.984683692E-1,-9.236026494E-1,-1.183650695E0,1.616241075E0
9.811741375E0,-3.502008551E-1,-7.141564811E-1,-1.490281315E-1,8.092400771E-1
9.821762375E0,2.572763193E-1,1.941939986E-1,6.206597221E-1,6.993717925E-1
9.831783375E0,2.930454916E-1,4.199950484E-1,9.993382716E-1,1.122919624E0
9.841804375E0,1.801568073E-1,3.535288710E-1,6.924594373E-1,7.980847136E-1
9.851826375E0,2.729550433E-1,7.279325212E-1,4.978698014E-1,9.231817536E-1
9.861847375E0,-7.044427210E-1,-2.247055739E-2,-4.789468959E-1,8.521353192E-1
9.871868375E0,-9.310275900E-1,-2.864624769E-1,-7.918511398E-1,1.255349096E0
9.881890375E0,-6.553717178E-1,-3.829907980E-1,-5.409270895E-1,9.320923538E-1
9.891911375E0,-1.836581200E-1,-6.070946203E-1,-4.227735722E-1,7.622543384E-1
9.901932375E0,-1.767461264E-1,-8.508806822E-1,2.107539712E-1,8.942339542E-1
9.911954375E0,3.431596380E-1,-1.232071342E0,1.375454571E0,1.878199565E0
9.921975375E0,2.523266512E-1,-1.559991089E0,2.421738091E0,2.891722033E0
9.931996375E0,-1.234569418E-1,-2.087733584E0,2.618899478E0,3.351493341E0
9.942018375E0,2.202593511E-1,-2.056147218E0,3.014016305E0,3.655208592E0
9.952039375E0,1.677601254E-1,-1.685026048E0,3.523757562E0,3.909517055E0
9.962060375E0,2.853534794E-1,4.657548465E-1,3.905941225E0,3.943948661E0
9.972082375E0,2.420106425E0,1.904079558E0,4.069848620E0,5.103538171E0
9.982103375E0,2.415805798E0,1.811142889E-1,6.645951743E0,7.073725652E0
9.992124375E0,1.763161806E0,-7.316482075E-1,5.604141635E0,5.920342230E0
1.000214637E1,1.051032336E0,-3.099000907E-1,4.703848765E0,4.829792981E0
1.001216737E1,-1.717479265E-1,-2.698403485E0,2.225349998E0,3.501865407E0
1.002218838E1,-1.299323239E0,-3.912127872E0,1.585705828E0,4.416723711E0
1.003221037E1,-1.828671672E0,-3.777415332E0,2.323946479E0,4.797252746E0
1.004223137E1,-1.741410749E0,-4.617125786E0,1.478921929E0,5.151463092E0
1.005225237E1,-5.667144799E-1,-4.948975155E0,3.113138013E-1,4.991035631E0
1.006227438E1,4.920355958E-1,-4.783432586E0,3.682342529E-2,4.808812982E0
1.007229538E1,1.732704830E0,-4.745921820E0,-3.288614416E-1,5.063021805E0
1.008231638E1,2.997889684E0,-4.559526619E0,-1.332248033E0,5.617073114E0
1.009233837E1,3.276372101E0,-2.044099761E0,-2.143405948E0,4.416689601E0
1.010235937E1,3.515452470E0,2.356891300E-1,-1.218209786E0,3.728000874E0
1.011238037E1,4.384287905E0,1.903503899E0,1.624417904E-1,4.782436080E0
1.012240238E1,4.926737024E0,2.340275852E0,1.738891622E0,5.724803302E0
1.013242337E1,5.665386541E0,1.784640822E0,2.643597533E0,6.501550234E0
1.014244437E1,7.456672286E0,2.020449820E-1,8.860402822E-1,7.511847385E0
1.015246637E1,7.974864231E0,-1.392598315E0,1.282221741E0,8.196455464E0
1.016248737E1,6.622466401E0,-1.825189070E0,1.811549709E0,7.104230340E0
1.017250837E1,6.480615288E0,-1.382931114E0,1.992091848E0,6.919487185E0
1.018252937E1,4.901564176E0,-1.299922140E0,1.251611713E0,5.223184931E0
1.019255137E1,3.598782309E0,-1.584915869E0,6.886995314E-1,3.992179789E0
1.020257237E1,1.966815650E0,-1.494180239E0,2.358398420E-1,2.481241386E0
1.021259337E1,9.336693621E-1,-7.351522976E-1,-5.924077302E-2,1.189830596E0
1.022261537E1,-8.119326711E-2,-5.651363164E-2,-1.827658349E-1,2.078208065E-1
1.023263637E1,-2.031342598E0,6.753680259E-2,-4.008764805E-1,2.071621569E0
1.024265737E1,-4.004648657E0,3.449561951E-1,-6.742741580E-1,4.075641212E0
1.025267937E1,-4.937857259E0,2.257130492E0,-1.231899726E0,5.567283835E0
1.026270037E1,-5.417854022E0,4.290422844E0,-3.284840038E0,7.651865424E0
1.027272137E1,-5.813108844E0,6.765522625E0,-5.804939114E0,1.064245502E1
1.028274337E1,-6.572734662E0,8.697031617E0,-7.169298009E0,1.304752980E1
1.029276437E1,-7.150302159E0,9.568878953E0,-6.773485948E0,1.373209297E1
1.030278537E1,-5.919863214E0,1.232658314E1,-4.602898341E0,1.442830917E1
1.031280737E1,-6.198742656E0,9.976388369E0,-1.827959919E0,1.188672255E1
1.032282837E1,-5.557269770E0,7.613660671E0,-4.927409162E-1,9.438954906E0
1.033284937E1,-3.950243239E0,8.234917978E0,-9.194104882E-1,9.179521306E0
1.034287137E1,-3.305060880E0,7.419305069E0,-1.587728965E0,8.275892604E0
1.035289238E1,-2.769103923E0,6.661418213E0,-1.842810239E0,7.445695315E0
1.036291338E1,-2.606677628E0,5.884195783E0,-1.620860604E0,6.636694762E0
1.037293537E1,-2.583396354E0,5.252343906E0,-1.396577053E0,6.017597585E0
1.038295637E1,-2.312940996E0,4.972755781E0,-1.221660594E0,5.618758823E0
1.039297737E1,-2.342899205E0,4.249966251E0,-1.010231123E0,4.957010868E0
1.040299938E1,-2.580103202E0,3.303965988E0,-9.907171369E-2,4.193201521E0
1.041302038E1,-2.998648653E0,1.947058785E0,7.340822572E-1,3.649905261E0
1.042304137E1,-3.016653399E0,8.802237645E-1,1.415601554E0,3.446580823E0
1.043306337E1,-2.655389612E0,2.809587121E-1,1.225647664E0,2.938068070E0
1.044308437E1,-2.552888507E0,-1.297723294E0,1.144626816E0,3.084071339E0
1.045310537E1,-1.822582966E0,-2.204541804E0,1.402741773E0,3.185827634E0
1.046312637E1,-1.506242167E0,-3.226370221E0,1.469108840E0,3.851819187E0
1.047314837E1,-9.344248223E-1,-4.413411716E0,1.231842277E0,4.676407609E0
1.048316937E1,-4.340013957E-1,-5.881091496E0,1.140425226E0,6.006343655E0
1.049319037E1,2.636012524E-1,-7.223775347E0,9.772872519E-1,7.294347556E0
1.050321237E1,1.385153933E0,-7.793656095E0,4.125338916E-1,7.926532089E0
1.051323337E1,2.924036427E0,-7.414010416E0,-5.083527992E-1,7.985985352E0
1.052325437E1,4.097516475E0,-5.610899262E0,-1.296457518E0,7.067717729E0
1.053327637E1,4.811277319E0,-3.295825787E0,-1.380729344E0,5.993101917E0
1.054329737E1,4.949847559E0,-1.918354657E0,-6.134729093E-1,5.343914713E0
1.055331837E1,4.834000769E0,-8.374069431E-1,5.140258044E-1,4.932852760E0
1.056334037E1,3.641317880E0,5.786128329E-1,1.737361552E0,4.075832905E0
1.057336137E1,2.754593473E0,7.579400665E-1,1.705388977E0,3.327252607E0
1.058338237E1,1.674403996E0,6.922385587E-1,1.114321429E0,2.127095487E0
1.059340437E1,7.407439899E-1,8.284006231E-1,7.455597568E-1,1.338210971E0
1.060342537E1,9.643988192E-2,1.111384518E0,7.710881156E-1,1.356116912E0
1.061344637E1,-4.808896333E-1,1.489180869E0,6.126882130E-1,1.680565782E0
1.062346837E1,-7.724616265E-1,2.104367305E0,3.456610769E-1,2.268157909E0
1.063348937E1,-7.014612257E-1,2.638553724E0,1.326955426E-1,2.733426735E0
1.064351038E1,-6.114953810E-1,2.849661891E0,-2.390020162E-1,2.924315553E0
1.065353237E1,-3.829347378E-1,2.697976053E0,-8.110263526E-1,2.843145713E0
1.066355337E1,-1.100598013E-1,2.555936075E0,-1.182557266E0,2.818397429E0
1.067357437E1,8.774273336E-2,2.438071264E0,-1.074367404E0,2.665737346E0
1.068359637E1,8.742230594E-2,2.367757912E0,-5.416696858E-1,2.430499174E0
1.069361738E1,6.256520748E-4,2.307901865E0,-9.754559040E-2,2.309962457E0
1.070363838E1,-1.219021672E-1,2.020733118E0,1.386059082E-1,2.029146143E0
1.071366037E1,-2.551385772E-1,1.819172724E0,5.205366790E-1,1.909304461E0
1.072368137E1,-4.185419422E-1,1.311033019E0,7.856482673E-1,1.584685500E0
1.073370225E1,-5.992150587E-1,7.664786093E-1,8.674683559E-1,1.303475927E0
1.074372425E1,-6.074836063E-1,3.772011774E-1,8.894994950E-1,1.141282792E0
1.075374525E1,-6.234342259E-1,-9.783122689E-5,8.062889385E-1,1.019201695E0
1.076376625E1,-5.346764159E-1,-1.028989082E-1,6.804065716E-1,8.714471629E-1
1.077378825E1,-5.316697776E-1,5.985001635E-2,2.154535429E-1,5.767798592E-1
1.078380925E1,-6.304386055E-1,4.835788043E-2,-6.477424901E-2,6.355997351E-1
1.079383025E1,-6.022749066E-1,-1.098033461E-1,5.027556617E-2,6.142633560E-1
1.080385125E1,-7.836134362E-1,4.388597558E-2,-1.692605209E-1,8.028854963E-1
1.081387325E1,-8.265594810E-1,2.142216259E-1,6.643368881E-2,8.564490152E-1
1.082389425E1,-8.537858713E-1,3.728774538E-1,1.283311808E-1,9.404556350E-1
1.083391525E1,-8.227745783E-1,7.825405452E-1,1.934960604E-2,1.135650527E0
1.084393725E1,-8.176512480E-1,1.221340970E0,-3.003106205E-1,1.500137926E0
1.085395825E1,-9.479792529E-1,1.368681449E0,-4.659061432E-1,1.728878858E0
1.086397925E1,-1.098269652E0,1.569479074E0,-4.692659533E-1,1.972224969E0
1.087400125E1,-1.207443600E0,1.749619509E0,-4.278431082E-1,2.168441422E0
1.088402225E1,-1.367779516E0,1.853085551E0,-1.833920717E-1,2.310493349E0
1.089404325E1,-1.542492566E0,1.877388626E0,2.769159289E-1,2.445517082E0
1.090406525E1,-1.740488643E0,1.760320498E0,5.457919729E-1,2.534939418E0
1.091408625E1,-1.858491887E0,1.583935876E0,5.323948324E-1,2.499257732E0
1.092410725E1,-1.675529585E0,1.404770610E0,4.109926021E-1,2.224790952E0
1.093412925E1,-1.296855714E0,1.038423619E0,1.796802592E-1,1.671060547E0
1.094415025E1,-7.603134513E-1,5.017110566E-1,-1.351583898E-2,9.110286529E-1
1.095417125E1,1.853462112E-1,2.590861056E-2,-1.554231034E-1,2.432710734E-1
1.096419325E1,1.241458023E0,-6.776591843E-1,-2.444132488E-2,1.414580281E0
1.097421425E1,2.407910303E0,-1.121454155E0,8.405018013E-2,2.657584595E0
1.098423525E1,3.780795023E0,-1.621377937E0,-1.743815124E-1,4.117485438E0
1.099425725E1,4.538338063E0,-2.446780254E0,8.051867384E-1,5.218387842E0
1.100427825E1,5.239004068E0,-2.998308930E0,1.381804647E0,6.192447347E0
1.101429925E1,5.811718960E0,-3.445464222E0,1.284843779E0,6.877363195E0
1.102432125E1,4.808526204E0,-3.193605348E0,1.041505467E0,5.865643444E0
1.103434225E1,2.771153957E0,-2.337376802E0,8.799077225E-1,3.730531084E0
1.104436325E1,1.653625331E0,-1.849665222E0,8.235569358E-1,2.614189013E0
1.105438525E1,3.926574880E-1,-1.490291255E0,2.973017529E-1,1.569565628E0
1.106440625E1,7.309428871E-2,-6.651707742E-1,-2.807826378E-1,7.256954069E-1
1.107442725E1,-4.979254961E-1,-6.290046490E-1,-3.461960971E-1,8.737438903E-1
1.108444925E1,-9.199377608E-1,-4.171034541E-1,-1.376849717E0,1.707622885E0
1.109447025E1,-8.970353866E-1,-1.796420331E-1,-1.920309820E0,2.127095097E0
1.110449125E1,-6.704820925E-1,2.433115603E-1,-1.133492183E0,1.339235334E0
1.111451225E1,-4.923384815E-1,3.894704631E-1,-5.785265134E-1,8.536845721E-1
1.112453425E1,-3.450319165E-1,2.534819148E-1,-3.544875220E-1,5.558430604E-1
1.113455525E1,-1.624496841E-1,1.404458807E-1,-2.223714385E-1,3.091342782E-1
1.114457625E1,-4.543169618E-2,-1.857324198E-2,-3.189088959E-1,3.226637386E-1
1.115459825E1,9.290640950E-3,-2.255117588E-1,-4.466652954E-1,5.004515515E-1
1.116461925E1,5.478724122E-2,-5.088365467E-1,-3.451225483E-1,6.172729108E-1
1.117464025E1,4.107552052E-2,-7.794452485E-1,2.168264508E-2,7.808279138E-1
1.118466225E1,-5.054917932E-2,-1.138832518E0,5.168570262E-1,1.251653270E0
1.119468325E1,-4.587023735E-2,-1.233019029E0,6.550360876E-1,1.396965383E0
1.120470425E1,1.587577522E-2,-9.317546913E-1,2.008635521E-1,9.532916718E-1
1.121472625E1,2.991552472E-2,-4.557391508E-1,-3.859910774E-1,5.979817924E-1
1.122474725E1,-5.858208418E-2,-7.397619501E-2,-5.798678646E-1,5.874955987E-1
1.123476825E1,-3.165413582E-1,9.983389825E-3,-4.515934018E-1,5.515747457E-1
1.124479025E1,-5.465813470E-1,-2.414651558E-2,-4.183127314E-1,6.887087660E-1
1.125481125E1,-6.667930841E-1,1.464139876E-1,-5.975538647E-1,9.072599925E-1
1.126483225E1,-6.553880900E-1,5.010069788E-1,-8.590109432E-1,1.190983351E0
1.127485425E1,-7.841350079E-1,8.202025343E-1,-5.767804251E-1,1.272900454E0
1.128487525E1,-1.048951312E0,5.679637375E-1,-1.583852845E-1,1.203315237E0
1.129489625E1,-1.235192147E0,1.640372032E-1,3.882914086E-1,1.305135266E0
1.130491825E1,-1.582824905E0,-5.111590607E-1,8.679811567E-1,1.876168850E0
1.131493925E1,-1.648873299E0,-8.543347786E-1,8.736055934E-1,2.052281122E0
1.132496025E1,-1.383772820E0,-2.517230724E-1,-1.898936091E-1,1.419243216E0
1.133498225E1,-1.035448337E0,5.476000781E-1,-8.637179518E-1,1.455344565E0
1.134500325E1,-9.212370121E-1,9.630549829E-1,-8.891586024E-1,1.602109719E0
1.135502425E1,-9.260586262E-1,1.002151659E0,-8.403220725E-1,1.602508569E0
1.136504525E1,-1.154177805E0,6.979526040E-1,-3.524420929E-1,1.394087397E0
1.137506725E1,-1.229920882E0,5.445968020E-1,-1.956314635E-1,1.359250794E0
1.138508825E1,-1.318971053E0,-8.331858382E-2,1.644704819E-1,1.331794715E0
1.139510925E1,-1.172112969E0,-1.461336136E-1,2.515249979E-1,1.207670762E0
1.140513125E1,-9.280256295E-1,-4.130414665E-2,7.650263985E-2,9.320891886E-1
1.141515225E1,-6.474586809E-1,2.756976798E-2,2.788772861E-2,6.486451734E-1
1.142517325E1,-4.805434781E-1,7.966422021E-2,5.737872720E-2,4.904699182E-1
1.143519525E1,-4.633169961E-1,-4.624811366E-2,2.380729119E-1,5.229533806E-1
1.144521625E1,-4.156686205E-1,-1.618943448E-1,5.544949687E-1,7.116564137E-1
1.145523725E1,-3.856548625E-1,-3.768200120E-1,8.127419257E-1,9.753319600E-1
1.146525925E1,-3.939561546E-1,-6.592870134E-1,8.966143870E-1,1.180583829E0
1.147528025E1,-3.715811992E-1,-8.929366346E-1,9.803593791E-1,1.377139402E0
1.148530125E1,-5.493178439E-1,-8.956668457E-1,5.162682116E-1,1.170684440E0
1.149532325E1,-7.833772087E-1,-9.522100058E-1,2.705120766E-1,1.262363074E0
1.150534425E1,-1.118381150E0,-8.252782099E-1,-9.337298077E-2,1.393046674E0
1.151536525E1,-1.421030109E0,-5.836911397E-1,-4.763012866E-1,1.608379567E0
1.152538725E1,-1.592098004E0,-3.737608950E-1,-5.975012398E-1,1.741114871E0
1.153540825E1,-1.661143096E0,-2.228033285E-1,-4.078468366E-1,1.724928042E0
1.154542925E1,-1.788179703E0,-3.705247535E-1,-2.120726280E-1,1.838436848E0
1.155545125E1,-1.848773230E0,-2.474617678E-1,-1.481930029E-1,1.871138944E0
1.156547225E1,-1.700431123E0,3.502189815E-3,-5.297074521E-1,1.781030110E0
1.157549325E1,-1.585697642E0,1.844438396E-1,-1.013278034E0,1.890816997E0
1.158551525E1,-1.422444550E0,3.491910410E-1,-1.027658676E0,1.789235936E0
1.159553625E1,-1.263711941E0,1.074867341E-1,-4.597034534E-1,1.349017618E0
1.160555725E1,-9.465998948E-1,-8.967202216E-2,-1.440988191E-1,9.616948071E-1
1.161557925E1,-5.214500141E-1,-2.267579466E-1,9.551549194E-2,5.765869343E-1
1.162560025E1,9.437990785E-3,-6.668498021E-1,1.063480071E-1,6.753426041E-1
1.163562125E1,6.214859337E-1,-1.220365216E0,4.629708409E-2,1.370284440E0
1.164564325E1,1.363795808E0,-1.777961402E0,1.342415464E-1,2.244795435E0
1.165566425E1,2.047442906E0,-2.240813252E0,1.084518079E-1,3.037273165E0
1.166568525E1,2.783358850E0,-2.383510895E0,-7.839712858E-2,3.665290819E0
1.167570625E1,3.268677750E0,-2.160918797E0,-1.107176131E-1,3.919959524E0
1.168572825E1,3.499046937E0,-1.582086986E0,3.955641389E-3,3.840096919E0
1.169574925E1,3.613455312E0,-9.961673266E-1,-3.634980083E-2,3.748430331E0
1.170577025E1,3.537580088E0,-4.828301780E-1,-3.456242394E-1,3.587067601E0
1.171579225E1,3.401542277E0,-5.073190480E-3,-6.717316425E-1,3.467237949E0
1.172581325E1,3.138072587E0,4.015839936E-1,-9.213030857E-1,3.295082493E0
1.173583379E1,2.716809935E0,7.959055991E-1,-1.329106032E0,3.127466193E0
1.174585579E1,2.196389616E0,7.396941224E-1,-1.212874494E0,2.615786550E0
1.175587679E1,1.577084693E0,5.938609095E-1,-8.942217064E-1,1.907747198E0
1.176589779E1,9.360345608E-1,3.551268420E-1,-7.199939758E-1,1.233153315E0
1.177591979E1,4.978921670E-1,6.676277742E-2,-2.378103902E-1,5.557946204E-1
1.178594079E1,1.381188351E-1,-3.628157844E-1,4.731745977E-2,3.910895652E-1
1.179596179E1,-2.241705537E-2,-7.840755124E-1,1.736897868E-1,8.033959644E-1
1.180598379E1,-9.338938951E-2,-1.161052815E0,2.338909650E-1,1.188053113E0
1.181600479E1,-1.339538634E-1,-1.290956165E0,7.730717104E-2,1.300187624E0
1.182602579E1,-1.403817075E-1,-1.307778459E0,-9.870509326E-2,1.318989847E0
1.183604779E1,-1.725998658E-1,-1.057597297E0,-1.824062312E-1,1.087002663E0
1.184606879E1,-1.280382353E-1,-6.057149698E-1,-1.751311255E-1,6.433936007E-1
1.185608979E1,-2.887355089E-3,4.253529252E-1,-3.195374715E-1,5.320128227E-1
1.186611079E1,1.629981530E-1,1.554259941E0,-4.786980969E-1,1.634455331E0
1.187613279E1,3.625525135E-1,2.345814481E0,-4.463267781E-1,2.415263442E0
1.188615379E1,5.094117665E-1,2.904571631E0,-4.390826626E-1,2.981414143E0
1.189617579E1,6.041898698E-1,3.083053503E0,-3.512954905E-1,3.161277088E0
1.190619679E1,5.986461246E-1,2.728250012E0,-3.763408327E-1,2.818396306E0
1.191621779E1,5.805910921E-1,2.185099812E0,-4.296370339E-1,2.301376802E0
1.192623879E1,5.997758067E-1,1.791660551E0,-6.236242604E-1,1.989644633E0
1.193626079E1,5.652848357E-1,1.423358470E0,-8.223377913E-1,1.738314046E0
1.194628179E1,4.418302327E-1,1.105678659E0,-1.192780538E0,1.685367812E0
1.195630279E1,2.101653028E-1,8.537238908E-1,-6.002237034E-1,1.064557387E0
1.196632479E1,-2.353527689E-1,7.474887532E-1,-9.770843536E-1,1.252527124E0
1.197634579E1,-6.960981596E-1,5.852118543E-1,-8.039746106E-1,1.213837195E0
1.198636679E1,-1.240369856E0,5.676941809E-1,-6.986323428E-1,1.532606020E0
1.199638879E1,-1.682777209E0,5.886143491E-1,-4.799417996E-1,1.846225912E0
1.200640979E1,-1.927780223E0,7.187751237E-1,-3.395185769E-1,2.085245101E0
1.201643079E1,-2.004478735E0,8.230976370E-1,-1.005551340E-1,2.169224759E0
1.202645279E1,-1.934946570E0,1.043642625E0,8.990151624E-2,2.200293262E0
1.203647379E1,-1.597417216E0,1.456088552E0,4.146084289E-2,2.161863695E0
1.204649479E1,-1.119847632E0,1.766562255E0,-3.655972500E-2,2.091921971E0
1.205651679E1,-6.569077814E-1,1.825786071E0,-8.173471928E-2,1.942087324E0
1.206653779E1,-3.941765946E-1,1.616682330E0,-9.317829589E-2,1.666649075E0
1.207655879E1,-2.904516667E-1,1.308896300E0,4.813644272E-1,1.424529188E0
1.208657979E1,-2.676948881E-1,1.153253360E0,5.318323302E-1,1.297882696E0
1.209660179E1,-2.427167523E-1,1.118058676E0,6.773379529E-1,1.329568850E0
1.210662279E1,-2.432383239E-1,1.156946754E0,7.003490853E-1,1.374110445E0
1.211664379E1,-2.289301872E-1,1.228313775E0,6.175495881E-1,1.393747199E0
1.212666579E1,-2.540574270E-1,1.310516271E0,5.413773251E-1,1.440516394E0
1.213668679E1,-3.534986848E-1,1.341263270E0,5.325006670E-1,1.485767627E0
1.214670779E1,-4.597092640E-1,1.258108262E0,5.977053076E-1,1.466772185E0
1.215672979E1,-5.572232795E-1,1.166347907E0,6.769771796E-1,1.459165284E0
1.216675079E1,-6.035700649E-1,1.160638686E0,6.655534744E-1,1.467767151E0
1.217677179E1,-6.175636214E-1,1.273317455E0,5.807928210E-1,1.529719735E0
1.218679379E1,-6.486205226E-1,1.393688821E0,5.218838775E-1,1.623403799E0
1.219681479E1,-7.103536713E-1,1.391486175E0,4.580761367E-1,1.628087792E0
1.220683579E1,-7.734281713E-1,1.307866606E0,3.603381729E-1,1.561585666E0
1.221685779E1,-8.602371043E-1,1.149123764E0,2.221263671E-1,1.452526565E0
1.222687879E1,-9.403761184E-1,9.303422964E-1,5.081756651E-2,1.323792453E0
1.223689979E1,-1.003918396E0,7.831997457E-1,-1.605727279E-1,1.283369622E0
1.224692179E1,-9.695092857E-1,8.631478482E-1,-3.316914940E-1,1.339773007E0
1.225694279E1,-8.738809973E-1,1.124868928E0,-3.947811967E-1,1.478123911E0
1.226696379E1,-7.846261740E-1,1.406384880E0,-3.193369120E-1,1.641807762E0
1.227698479E1,-7.274842590E-1,1.599962802E0,-2.036427337E-1,1.769345833E0
1.228700679E1,-6.992708588E-1,1.750708991E0,-9.797946294E-2,1.887739834E0
1.229702779E1,-6.778601092E-1,1.894974127E0,-2.976214495E-3,2.012568043E0
1.230704879E1,-6.699032182E-1,2.058398834E0,1.110046931E-1,2.167509660E0
1.231707079E1,-6.809445155E-1,2.242499296E0,2.599210149E-1,2.357975289E0
1.232709179E1,-6.501162404E-1,2.436860745E0,4.090712436E-1,2.555050038E0
1.233711279E1,-4.763317287E-1,2.550456650E0,4.985219486E-1,2.642015362E0
1.234713479E1,-1.526789868E-1,2.577955520E0,5.364112848E-1,2.637594094E0
1.235715579E1,3.006918955E-1,2.362168704E0,5.827059935E-1,2.451489930E0
1.236717679E1,7.903283787E-1,1.793624046E0,6.466938651E-1,2.063957150E0
1.237719879E1,1.274642726E0,1.035964938E0,6.180430931E-1,1.754968574E0
1.238721979E1,1.890019489E0,2.688321716E-1,3.142667183E-1,1.934737185E0
1.239724079E1,2.602619076E0,-4.473576057E-1,-7.453966925E-1,2.743969954E0
1.240726279E1,3.404512662E0,-1.134823813E0,2.906112957E-1,3.600414765E0
1.241728379E1,4.102188401E0,-1.784302415E0,1.708234086E-1,4.476702516E0
1.242730479E1,4.667458618E0,-2.489507320E0,1.096411407E-1,5.291014820E0
1.243732679E1,4.977324795E0,-3.201027803E0,1.555587405E-1,5.919842873E0
1.244734779E1,4.697627327E0,-3.983763573E0,2.659780725E-1,6.165129280E0
1.245736879E1,3.683492677E0,-4.442602771E0,3.602738535E-1,5.782269012E0
1.246738979E1,2.483114852E0,-4.196515099E0,-8.708265580E-2,4.876902883E0
1.247741179E1,1.594871923E0,-3.282515770E0,-5.563760179E-1,3.691623018E0
1.248743279E1,7.892559993E-1,-2.141888888E0,-7.735492086E-1,2.410184935E0
1.249745379E1,3.519503421E-1,-1.425327228E0,-1.120918257E0,1.847128715E0
1.250747579E1,3.381678700E-2,-7.385846132E-1,-1.361916951E0,1.549667251E0
1.251749679E1,-1.469352669E-1,-2.491562909E-1,-1.501377869E0,1.528988010E0
1.252751779E1,-2.514934230E-1,-2.091256678E-2,-1.606370473E0,1.626072684E0
1.253753979E1,-3.284474587E-1,-3.500669539E-2,-1.434573576E0,1.472108877E0
1.254756079E1,-3.948759216E-1,-1.646453136E-1,-1.266456186E0,1.336767124E0
1.255758179E1,-4.369185716E-1,-2.644280487E-1,-1.214125798E0,1.317164183E0
1.256760379E1,-5.124096340E-1,-2.985892367E-1,-1.111013220E0,1.259392528E0
1.257762479E1,-6.007774347E-1,-2.808096081E-1,-1.032176235E0,1.226855876E0
1.258764579E1,-6.989030689E-1,-2.659471554E-1,-1.008968197E0,1.255870301E0
1.259766779E1,-7.696923852E-1,-2.622137082E-1,-1.061709352E0,1.337314153E0
1.260768879E1,-8.566258639E-1,-2.795354998E-1,-1.085585872E0,1.410831192E0
1.261770979E1,-9.975835222E-1,-2.800985867E-1,-1.056156251E0,1.479558761E0
1.262773179E1,-1.142802631E0,-2.425506914E-1,-9.108260447E-1,1.481361798E0
1.263775279E1,-1.247860724E0,-2.206043369E-1,-8.638617933E-1,1.533649197E0
1.264777379E1,-1.297076154E0,-2.398177028E-1,-8.455500680E-1,1.566803752E0
1.265779479E1,-1.379673922E0,-2.541030353E-1,-8.464204261E-1,1.638443170E0
1.266781679E1,-1.439959885E0,-3.075062406E-1,-8.298317291E-1,1.690167227E0
1.267783779E1,-1.572645487E0,-4.066469514E-1,-7.896707131E-1,1.806143795E0
1.268785879E1,-1.667103748E0,-3.420814115E-1,-7.594163422E-1,1.863590024E0
1.269788079E1,-1.540647769E0,-2.830812514E-2,-5.960464525E-1,1.652170776E0
1.270790179E1,-1.402225463E0,2.404977340E-1,-4.125210643E-1,1.481299780E0
1.271792279E1,-1.206144349E0,5.015648031E-1,6.414439425E-2,1.307847830E0
1.272794479E1,-8.106895530E-1,1.087789688E0,-3.586519821E-1,1.403258779E0
1.273796587E1,-3.522812945E-1,1.581304044E0,-7.591381609E-2,1.621846940E0
1.274798687E1,1.133716643E-2,1.950031802E0,1.865188703E-2,1.950153956E0
1.275800888E1,2.324040180E-1,1.741725914E0,-6.047190428E-3,1.757173115E0
1.276802987E1,4.014569628E-1,1.285032059E0,-9.432158187E-2,1.349582027E0
1.277805087E1,4.148324686E-1,7.318948138E-1,1.343947434E-1,8.519494953E-1
1.278807187E1,3.560492402E-1,3.146147007E-1,6.031343012E-1,7.678049600E-1
1.279809387E1,2.404316604E-1,3.988736629E-2,9.483445577E-1,9.791607557E-1
1.280811487E1,1.077992678E-1,-3.088382363E-2,1.173797406E0,1.179141570E0
1.281813587E1,-9.384020984E-2,5.183907509E-2,1.119515364E0,1.124636797E0
1.282815787E1,-3.405196202E-1,-6.062510133E-2,1.005784827E0,1.063593970E0
1.283817887E1,-5.922264665E-1,-1.074694848E-1,8.550981326E-1,1.045693404E0
1.284819987E1,-7.041889518E-1,-1.908554578E-1,6.932042263E-1,1.006399516E0
1.285822187E1,-7.938068873E-1,-5.078628391E-1,5.354176967E-1,1.083847843E0
1.286824287E1,-7.993149644E-1,-8.770028257E-1,3.505351697E-1,1.237300802E0
1.287826387E1,-7.704911149E-1,-1.185661553E0,1.790760957E-1,1.425313342E0
1.288828587E1,-7.792268550E-1,-1.464146308E0,1.463881136E-1,1.665037051E0
1.289830687E1,-7.847741085E-1,-1.602867406E0,2.405164450E-1,1.800806065E0
1.290832787E1,-7.931981921E-1,-1.616636429E0,4.119049139E-1,1.847252656E0
1.291834987E1,-7.494580954E-1,-1.537807192E0,6.240433596E-1,1.820980096E0
1.292837087E1,-7.651531917E-1,-1.729248540E0,3.354177783E-1,1.920485618E0
1.293839187E1,-7.046994138E-1,-1.699555210E0,4.814234841E-1,1.901803814E0
1.294841288E1,-6.742845368E-1,-1.629626604E0,3.852975976E-1,1.805213767E0
1.295843487E1,-6.312531227E-1,-1.465118700E0,3.154923677E-1,1.626219156E0
1.296845587E1,-7.043930197E-1,-1.323530712E0,2.572587776E-1,1.521211737E0
1.297847687E1,-9.368099016E-1,-1.269446306E0,2.076720500E-1,1.591299593E0
1.298849888E1,-1.214524578E0,-1.234115674E0,2.166276455E-1,1.745004008E0
1.299851988E1,-1.407931176E0,-1.162011319E0,1.219267255E-1,1.829591930E0
1.300854088E1,-1.543876601E0,-9.535066259E-1,9.598789215E-2,1.817125070E0
1.301856287E1,-1.626377306E0,-7.521062994E-1,1.126723373E-1,1.795400257E0
1.302858387E1,-1.620959861E0,-5.547323656E-1,2.022873491E-1,1.725154787E0
1.303860487E1,-1.586002867E0,-4.423114586E-1,2.680685252E-1,1.668204200E0
1.304862688E1,-1.734962440E0,-5.030073112E-1,3.413048282E-1,1.838368844E0
1.305864788E1,-1.411527214E0,-3.328252691E-1,4.157681693E-1,1.508656656E0
1.306866887E1,-1.758260670E0,-2.933951551E-1,5.168820962E-1,1.855997953E0
1.307868987E1,-1.890612981E0,-1.865285182E-1,7.041953107E-1,2.026104975E0
1.308871187E1,-1.740419061E0,-1.578549421E-1,7.865871839E-1,1.916427950E0
1.309873287E1,-1.412293784E0,7.604303956E-3,5.669758505E-1,1.521871602E0
1.310875387E1,-1.221886223E0,3.292093509E-1,3.760695219E-1,1.320156439E0
1.311877587E1,-9.865445638E-1,5.699713790E-1,2.812066340E-1,1.173547920E0
1.312879687E1,-5.343431246E-1,6.699970660E-1,2.324426097E-1,8.879460626E-1
1.313881787E1,2.272853655E-1,5.329947567E-1,3.484582387E-1,6.761399205E-1
1.314883987E1,1.267873405E0,4.107733315E-1,4.742360866E-1,1.414615695E0
1.315886087E1,2.735163760E0,3.202797756E-1,3.325122969E-1,2.773853701E0
1.316888187E1,4.309424248E0,1.945476821E-1,1.731861953E-1,4.317288456E0
1.317890387E1,5.972009268E0,4.713031232E-2,-2.725552399E-1,5.978411354E0
1.318892487E1,7.550597865E0,-5.935534921E-1,-7.078026773E-1,7.606892828E0
1.319894587E1,8.107788400E0,-6.117009106E-1,-1.453995103E0,8.259813103E0
1.320896687E1,5.958191128E0,7.684483901E-1,-1.837308594E0,6.282217547E0
1.321898887E1,2.335212455E0,9.378360879E-1,-7.551550376E-1,2.627358535E0
1.322900987E1,1.538741577E0,1.137710584E0,-1.186575472E-1,1.917339465E0
1.323903088E1,8.039447898E-1,1.575962905E0,5.996436596E-2,1.770192653E0
1.324905287E1,3.292742550E-1,1.774446640E0,-2.139124909E-1,1.817371995E0
1.325907387E1,1.648423648E-1,1.397303862E0,-5.162752283E-1,1.498723190E0
1.326909487E1,-1.857642871E-1,8.100203392E-1,-7.803328559E-1,1.139982757E0
1.327911688E1,-4.311058545E-1,-9.920912325E-2,-7.596318121E-1,8.790535808E-1
1.328913788E1,-5.853881478E-1,-9.977773574E-1,-3.359139146E-1,1.204606615E0
1.329915888E1,-7.107267237E-1,-1.638893563E0,-3.233469325E-1,1.815394675E0
1.330918087E1,-7.161073315E-1,-1.961316051E0,-6.447770016E-1,2.185247754E0
1.331920187E1,-5.438308167E-1,-1.826666077E0,-7.472361535E-1,2.047149917E0
1.332922287E1,-3.395565838E-1,-1.632359300E0,-7.480167568E-1,1.827409266E0
1.333924387E1,-9.863901973E-2,-1.158114150E0,-7.634955060E-1,1.390641373E0
1.334926588E1,4.558606267E-2,-5.347705561E-1,-1.088703169E0,1.213808974E0
1.335928687E1,8.924429834E-2,-5.565233678E-2,-1.045404537E0,1.050681861E0
1.336930787E1,7.119920611E-2,3.836460516E-1,-6.445644553E-1,7.534699442E-1
1.337932987E1,-1.268664533E-1,6.563499570E-1,-3.352442622E-1,7.478496362E-1
1.338935087E1,-2.640918338E-1,8.159999943E-1,-2.714904620E-1,8.996152279E-1
1.339937187E1,-5.548171502E-1,1.022951375E0,-1.349724483E-1,1.171524284E0
1.340939387E1,-9.168018991E-1,9.716870812E-1,-1.761940031E-1,1.347496135E0
1.341941487E1,-1.240822431E0,8.546810800E-1,-2.910586077E-1,1.534547219E0
1.342943587E1,-1.479212244E0,8.401872942E-1,-3.116514780E-1,1.729482638E0
1.343945787E1,-1.596903831E0,7.988141504E-1,-3.640780520E-1,1.822294905E0
1.344947887E1,-1.562281882E0,5.596378872E-1,-3.984661120E-1,1.706661796E0
1.345949987E1,-1.421824746E0,4.841208047E-1,-3.283310992E-1,1.537452396E0
1.346952087E1,-1.240210227E0,4.996463317E-1,-2.764598644E-1,1.365356335E0
1.347954287E1,-9.774983364E-1,5.788082761E-1,-1.496567072E-1,1.145826840E0
1.348956387E1,-7.586393934E-1,7.123063490E-1,8.123697504E-2,1.043797639E0
1.349958487E1,-5.835983151E-1,7.459629223E-1,3.307949696E-1,1.003231273E0
1.350960687E1,-5.477414346E-1,6.702695462E-1,4.760380523E-1,9.878735602E-1
1.351962787E1,-6.930043977E-1,5.380084518E-1,3.439911121E-1,9.423577212E-1
1.352964888E1,-8.488777184E-1,4.885208344E-1,2.452999791E-1,1.009662353E0
1.353967087E1,-9.605367333E-1,4.936201912E-1,2.171000274E-1,1.101555324E0
1.354969187E1,-1.064559284E0,5.027015018E-1,1.931620382E-1,1.193024242E0
1.355971287E1,-1.117057925E0,4.784463742E-1,2.745261902E-1,1.245830635E0
1.356973487E1,-1.163738587E0,3.393761972E-1,3.190199929E-1,1.253490111E0
1.357975588E1,-1.155779357E0,2.238492492E-1,3.708650614E-1,1.234291417E0
1.358977688E1,-1.212070502E0,1.136181244E-1,3.137984294E-1,1.257176771E0
1.359979787E1,-1.233388281E0,-3.280083328E-2,3.176751333E-1,1.274064377E0
1.360981987E1,-1.209473169E0,-3.330837160E-2,3.127851069E-1,1.249707693E0
1.361984087E1,-1.110947585E0,9.682228982E-2,2.931244290E-1,1.153039905E0
1.362986187E1,-9.341429865E-1,2.926546052E-1,3.612269497E-1,1.043434112E0
1.363988388E1,-7.536756921E-1,4.568365270E-1,3.414673807E-1,9.451595809E-1
1.364990487E1,-5.285105270E-1,5.390597811E-1,2.202225137E-1,7.863884411E-1
1.365992587E1,-1.622818691E-1,5.737676838E-1,8.442315209E-1,1.033572262E0
1.366994787E1,1.131330979E-1,5.461214635E-1,6.326120887E-1,8.433539029E-1
1.367996887E1,3.627840632E-1,5.056724721E-1,3.959108788E-1,7.376058226E-1
1.368998987E1,6.064527422E-1,6.245662469E-1,3.893071065E-1,9.536393178E-1
1.370001087E1,6.871425641E-1,8.186695406E-1,3.888520470E-1,1.137361259E0
1.371003287E1,6.078005254E-1,1.031057370E0,3.279369968E-1,1.240984872E0
1.372005387E1,5.057964331E-1,1.263320763E0,5.472357235E-1,1.466722986E0
1.373007487E1,3.349980944E-1,1.414977948E0,8.014679823E-1,1.660342508E0
1.374009675E1,7.110389650E-2,1.418414649E0,6.885090584E-1,1.578290406E0
1.375011775E1,-1.924546713E-1,1.328394426E0,7.348277771E-1,1.530242599E0
1.376013875E1,-4.258117855E-1,1.214360272E0,6.766842341E-1,1.453921627E0
1.377016075E1,-4.966993350E-1,1.108749324E0,6.050399818E-1,1.357243041E0
1.378018175E1,-4.182337940E-1,9.575780421E-1,4.945241708E-1,1.156040384E0
1.379020275E1,-1.967219692E-1,7.253389156E-1,3.995425844E-1,8.511464929E-1
1.380022475E1,1.410289943E-2,4.729771811E-1,2.017757177E-2,4.736173983E-1
1.381024575E1,1.549243176E-1,-1.078460455E-2,2.505976295E-1,2.948169327E-1
1.382026675E1,3.459809196E-1,-3.197994268E-1,3.650404307E-1,5.960108943E-1
1.383028775E1,7.356756234E-1,-4.129765624E-1,2.570892084E-1,8.819654897E-1
1.384030975E1,1.427708799E0,-4.394670805E-1,2.419490129E-1,1.513282212E0
1.385033075E1,2.221536736E0,-6.006838793E-1,1.872430480E-1,2.308918914E0
1.386035175E1,2.911817501E0,-8.242977780E-1,1.452436674E-1,3.029726672E0
1.387037375E1,3.342890026E0,-1.124615452E0,7.181828007E-2,3.527723275E0
1.388039475E1,3.509521054E0,-1.415177631E0,4.488973238E-2,3.784373243E0
1.389041575E1,3.397235802E0,-1.567858956E0,-6.697817422E-2,3.742175688E0
1.390043775E1,3.140158873E0,-1.587526651E0,-2.381863296E-1,3.526694110E0
1.391045875E1,2.769293958E0,-1.488624507E0,-3.473368889E-1,3.163168485E0
1.392047975E1,2.247601869E0,-1.265819570E0,-4.690794271E-1,2.621840738E0
1.393050075E1,1.577205731E0,-9.226479453E-1,-6.292147833E-1,1.932554887E0
1.394052275E1,8.323569953E-1,-4.679824895E-1,-7.283578330E-1,1.200970820E0
1.395054375E1,2.828333294E-1,-1.588074535E-1,-9.615290789E-1,1.014767298E0
1.396056475E1,-1.336995095E-1,1.010843253E-1,-1.253110939E0,1.264270788E0
1.397058675E1,-5.228591931E-1,2.640184513E-1,-1.257722054E0,1.387426482E0
1.398060775E1,-8.012281734E-1,2.627034125E-1,-1.171282665E0,1.443219578E0
1.399062875E1,-9.523079467E-1,1.678422788E-1,-1.054829518E0,1.430988039E0
1.400065075E1,-9.442440516E-1,1.168624520E-2,-9.410221627E-1,1.333137693E0
1.401067175E1,-8.749937224E-1,-1.343412414E-1,-9.148091680E-1,1.273003298E0
1.402069275E1,-7.962761664E-1,-2.484990638E-1,-9.089754009E-1,1.233711391E0
1.403071475E1,-7.671038228E-1,-3.285404295E-1,-9.074241346E-1,1.232803978E0
1.404073575E1,-7.785246044E-1,-4.214658424E-1,-8.813911611E-1,1.249233523E0
1.405075675E1,-7.570910507E-1,-5.149101958E-1,-8.696558724E-1,1.262782921E0
1.406077775E1,-6.953426993E-1,-5.955313128E-1,-8.311472064E-1,1.236513119E0
1.407079975E1,-6.156638610E-1,-6.661469668E-1,-7.302850753E-1,1.164521388E0
1.408082075E1,-5.413632917E-1,-6.992463005E-1,-5.991145597E-1,1.068156289E0
1.409084175E1,-4.593952686E-1,-6.799750471E-1,-4.518091641E-1,9.367719030E-1
1.410086375E1,-3.880592376E-1,-6.411156213E-1,-3.647528938E-1,8.334649875E-1
1.411088475E1,-3.543535477E-1,-5.801604447E-1,-3.360266197E-1,7.583313705E-1
1.412090575E1,-3.713093036E-1,-5.063329151E-1,-3.312477634E-1,7.099075297E-1
1.413092775E1,-4.917128295E-1,-5.016873023E-1,-3.103731304E-1,7.679864166E-1
1.414094875E1,-6.528562456E-1,-5.722228494E-1,-1.884096406E-1,8.883459121E-1
1.415096975E1,-8.164952534E-1,-6.282277733E-1,-1.284270021E-1,1.038185017E0
1.416099075E1,-9.511098522E-1,-6.705776945E-1,-1.047509681E-1,1.168442194E0
1.417101275E1,-1.055582639E0,-7.356691915E-1,1.209087253E-1,1.292316829E0
1.418103375E1,-1.144659122E0,-7.818686271E-1,-3.353845954E-2,1.386610214E0
1.419105475E1,-1.195580769E0,-8.168516412E-1,9.529324293E-2,1.451117081E0
1.420107675E1,-1.201709821E0,-8.139058140E-1,2.368905866E-1,1.470600665E0
1.421109775E1,-1.157151698E0,-7.714176062E-1,4.172168901E-1,1.451948728E0
1.422111875E1,-1.061243328E0,-7.329452661E-1,5.933836305E-1,1.419700778E0
1.423114075E1,-9.558478510E-1,-7.025920773E-1,6.774122125E-1,1.366077614E0
1.424116175E1,-8.719882536E-1,-6.275883803E-1,7.540692097E-1,1.312574212E0
1.425118275E1,-8.241960365E-1,-5.099649131E-1,7.333127636E-1,1.215364525E0
1.426120375E1,-8.220518625E-1,-3.563646975E-1,7.016571075E-1,1.138019226E0
1.427122575E1,-8.913700193E-1,-2.487943482E-1,6.720011991E-1,1.143689097E0
1.428124675E1,-9.707319385E-1,-2.381147012E-1,6.687787986E-1,1.202615561E0
1.429126775E1,-1.079676676E0,-2.884273607E-1,6.713626832E-1,1.303694718E0
1.430128975E1,-1.152179226E0,-3.998574570E-1,6.681326813E-1,1.390612899E0
1.431131075E1,-1.172918131E0,-5.250150615E-1,5.978450561E-1,1.417320171E0
1.432133175E1,-1.141077703E0,-6.630827335E-1,5.955260503E-1,1.447890987E0
1.433135375E1,-1.079004831E0,-7.492873567E-1,5.470397687E-1,1.423002276E0
1.434137475E1,-1.013365157E0,-7.331592742E-1,3.629015923E-1,1.302355185E0
1.435139575E1,-1.003163520E0,-6.791976598E-1,2.625002217E-1,1.239577700E0
1.436141775E1,-1.006043859E0,-5.846666014E-1,1.170179788E-1,1.169466753E0
1.437143875E1,-9.730211234E-1,-4.838854542E-1,9.556689262E-3,1.086741262E0
1.438145975E1,-8.845837408E-1,-4.219423905E-1,-1.779237556E-1,9.960826463E-1
1.439148075E1,-7.818966937E-1,-5.012835521E-1,-2.321169198E-1,9.573535938E-1
1.440150275E1,-6.986481303E-1,-5.845908800E-1,-1.908952006E-1,9.307506028E-1
1.441152375E1,-6.432118481E-1,-5.637899950E-1,-9.443134507E-2,8.605218876E-1
1.442154475E1,-6.714615011E-1,-5.321752694E-1,1.069151688E-1,8.634245295E-1
1.443156675E1,-7.384279078E-1,-4.615239474E-1,1.961378324E-1,8.926086367E-1
1.444158775E1,-8.825565112E-1,-4.279314011E-1,2.274695528E-1,1.006863286E0
1.445160875E1,-1.056188411E0,-4.233056688E-1,2.953697598E-1,1.175570050E0
1.446163075E1,-1.278276186E0,-4.319551626E-1,3.486987054E-1,1.393616180E0
1.447165175E1,-1.454006066E0,-4.634745786E-1,3.180171955E-1,1.558870509E0
1.448167275E1,-1.703338943E0,-4.296855658E-1,3.259015810E-1,1.786674308E0
1.449169375E1,-1.879274645E0,-4.969279611E-1,4.221654618E-1,1.989179295E0
1.450171575E1,-1.873025726E0,-6.200036645E-1,5.178013515E-1,2.039791204E0
1.451173675E1,-1.521376516E0,-7.969988823E-1,5.366586220E-1,1.799387728E0
1.452175775E1,-9.224199039E-1,-7.134266755E-1,4.704973769E-1,1.257459296E0
1.453177975E1,-3.272405934E-1,-5.834258223E-1,3.655889726E-1,7.623171210E-1
1.454180075E1,1.799808061E-1,-4.650249678E-1,1.630928779E-1,5.246337752E-1
1.455182175E1,7.844495881E-1,-4.108385280E-1,-3.810806771E-2,8.863417383E-1
1.456184375E1,1.528331779E0,-5.212871692E-1,-4.084554952E-1,1.665645289E0
1.457186475E1,2.415746157E0,-6.494484884E-1,-6.650272250E-1,2.588411490E0
1.458188575E1,3.260212736E0,-6.936236179E-1,-5.602118279E-1,3.379931670E0
1.459190775E1,3.897918845E0,-6.812038395E-1,-6.768672520E-1,4.014468741E0
1.460192875E1,4.128479821E0,-6.674617133E-1,-9.142449117E-1,4.280852080E0
1.461194975E1,3.704842615E0,-6.567320725E-1,-9.184309334E-1,3.873069996E0
1.462197075E1,2.846699399E0,-6.450028503E-1,-9.383506429E-1,3.065979138E0
1.463199275E1,2.002605287E0,-5.706745067E-1,-9.734030197E-1,2.298610617E0
1.464201375E1,1.365284509E0,-5.058984670E-1,-1.107455043E0,1.829314550E0
1.465203475E1,8.816384983E-1,-4.712157074E-1,-1.265613456E0,1.612795122E0
1.466205675E1,4.550186276E-1,-3.855189148E-1,-1.314483899E0,1.443445429E0
1.467207775E1,1.163478971E-1,-2.995113426E-1,-1.383126703E0,1.419958927E0
1.468209875E1,-8.251883090E-2,-1.987363350E-1,-1.544864196E0,1.559779110E0
1.469212075E1,-9.045291781E-2,-1.429775789E-1,-1.631100102E0,1.639851170E0
1.470214175E1,-8.038752079E-3,-1.159368378E-1,-1.570276780E0,1.574571414E0
1.471216275E1,1.161198556E-1,-7.905698687E-2,-1.457556496E0,1.464310338E0
1.472218375E1,2.341032189E-1,-5.556228966E-2,-1.412434117E0,1.432781079E0
1.473220575E1,3.071542382E-1,-1.546705484E-2,-1.402429531E0,1.435754696E0
1.474222725E1,3.246970546E-1,5.128855973E-2,-1.376526366E0,1.415232677E0
1.475224825E1,2.861241424E-1,1.318737164E-1,-1.310910081E0,1.348236976E0
1.476227025E1,2.150839806E-1,2.437771448E-1,-1.222515383E0,1.265002877E0
1.477229125E1,1.814081115E-1,3.587527004E-1,-1.137122646E0,1.206092996E0
1.478231225E1,1.846182328E-1,4.598180223E-1,-1.073149429E0,1.182017852E0
1.479233425E1,2.111868113E-1,5.073611480E-1,-9.520980316E-1,1.099320638E0
1.480235525E1,2.229923397E-1,5.505483904E-1,-7.680632778E-1,9.709533009E-1
1.481237625E1,1.931393802E-1,5.865113980E-1,-6.139950657E-1,8.707975544E-1
1.482239725E1,1.102556831E-1,6.578053290E-1,-4.834962489E-1,8.237917147E-1
1.483241925E1,-3.405593812E-2,7.432275948E-1,-3.685219359E-1,8.302743413E-1
1.484244025E1,-1.682986540E-1,8.188432029E-1,-2.787331887E-1,8.812041865E-1
1.485246125E1,-2.931484026E-1,8.484467787E-1,-2.591404116E-1,9.343188295E-1
1.486248325E1,-3.920698428E-1,8.449124292E-1,-2.721984136E-1,9.704059722E-1
1.487250425E1,-4.701892287E-1,8.397803280E-1,-3.059380539E-1,1.009904452E0
1.488252525E1,-5.822832763E-1,8.585627541E-1,-2.670212889E-1,1.071206883E0
1.489254725E1,-7.127112687E-1,8.920860109E-1,-2.185444359E-1,1.162556009E0
1.490256825E1,-8.004516631E-1,9.529584494E-1,-1.602137820E-1,1.254799238E0
1.491258925E1,-8.578198653E-1,1.003223162E0,-1.101399447E-1,1.324553676E0
1.492261025E1,-8.439748281E-1,1.031286873E0,-8.196985044E-2,1.335127403E0
1.493263225E1,-7.556140441E-1,1.092596976E0,-9.528045215E-2,1.331840493E0
1.494265325E1,-6.886260027E-1,1.116557696E0,-8.473375618E-2,1.314567104E0
1.495267425E1,-6.511482739E-1,1.139104852E0,-1.126647359E-1,1.316908228E0
1.496269625E1,-6.523136240E-1,1.163347993E0,-1.081114360E-1,1.338125442E0
1.497271725E1,-6.833874822E-1,1.178652203E0,-7.143009804E-2,1.364309981E0
1.498273825E1,-6.914472842E-1,1.184423697E0,-3.223511517E-2,1.371859302E0
1.499276025E1,-6.259397578E-1,1.212367248E0,1.794861317E-2,1.364535481E0
1.500278125E1,-5.343051177E-1,1.207986807E0,8.244223237E-2,1.323446563E0
1.501280225E1,-4.239476931E-1,1.201819164E0,1.410968220E-1,1.282189246E0
1.502282425E1,-3.368551701E-1,1.199573833E0,2.173118063E-1,1.264781881E0
1.503284525E1,-2.760610843E-1,1.196637361E0,3.129926831E-1,1.267325971E0
1.504286625E1,-2.624698162E-1,1.190846863E0,3.631162216E-1,1.272344311E0
1.505288725E1,-2.887653297E-1,1.191314056E0,4.033169256E-1,1.290456949E0
1.506290925E1,-3.735458636E-1,1.223274644E0,4.191868901E-1,1.345977346E0
1.507293025E1,-4.616201341E-1,1.242862524E0,4.425997263E-1,1.397746372E0
1.508295125E1,-5.195783204E-1,1.259865935E0,4.861772704E-1,1.446925065E0
1.509297325E1,-5.032061166E-1,1.209097778E0,4.687303118E-1,1.390985959E0
1.510299425E1,-4.728041035E-1,1.092763622E0,4.098073715E-1,1.259213300E0
1.511301525E1,-4.847242373E-1,9.882487348E-1,3.237497691E-1,1.147347838E0
1.512303725E1,-5.275317031E-1,9.047887945E-1,2.797553186E-1,1.084064343E0
1.513305825E1,-5.604591286E-1,8.392175335E-1,2.259007083E-1,1.034133276E0
1.514307925E1,-5.561187404E-1,8.117715803E-1,1.915436385E-1,1.002462028E0
1.515310025E1,-4.966876405E-1,8.150135690E-1,1.419663030E-1,9.649353145E-1
1.516312225E1,-3.765308672E-1,8.190291443E-1,9.780228317E-2,9.067246108E-1
1.517314325E1,-2.090935081E-1,8.142569393E-1,7.989810884E-2,8.444632414E-1
1.518316425E1,-4.841903865E-2,8.161172310E-1,1.081161869E-1,8.246701449E-1
1.519318625E1,6.410068631E-2,8.665290007E-1,2.028229906E-1,8.922547689E-1
1.520320725E1,5.453814983E-2,1.000348086E0,3.223488494E-1,1.052416022E0
1.521322825E1,-6.317741096E-2,1.188279351E0,3.913137978E-1,1.252647472E0
1.522325025E1,-2.103272706E-1,1.344898484E0,3.948765063E-1,1.417362674E0
1.523327125E1,-2.555075365E-1,1.527961650E0,3.843876978E-1,1.596153128E0
1.524329225E1,-1.071870643E-1,1.682472277E0,3.474480591E-1,1.721314086E0
1.525331325E1,1.730442542E-1,1.619223238E0,3.661602455E-1,1.669102014E0
1.526333525E1,4.459045726E-1,1.404137211E0,3.925767964E-1,1.524647085E0
1.527335625E1,6.772484905E-1,1.089294176E0,2.726416326E-1,1.311320243E0
1.528337725E1,8.572836757E-1,7.365228850E-1,4.385452670E-1,1.212321414E0
1.529339925E1,1.152658113E0,4.794895175E-1,1.825735346E-1,1.261690936E0
1.530342025E1,1.772612076E0,3.728594005E-2,-2.443551421E-3,1.773005862E0
1.531344125E1,2.562334099E0,-6.273088834E-1,-1.504723207E-1,2.642293396E0
1.532346325E1,3.221102464E0,-1.396922624E0,-4.567801014E-2,3.511264784E0
1.533348425E1,3.423156509E0,-2.015210130E0,7.396662019E-2,3.972976644E0
1.534350525E1,3.359549913E0,-2.408805512E0,5.189513527E-2,4.134200372E0
1.535352625E1,3.183835235E0,-2.467822921E0,-2.687690216E-1,4.037225974E0
1.536354825E1,3.071513731E0,-2.261893926E0,-6.066426305E-1,3.862431360E0
1.537356925E1,2.892000702E0,-1.911862348E0,-6.251714337E-1,3.522743962E0
1.538359025E1,2.425402833E0,-1.506297716E0,-5.328164166E-1,2.904376877E0
1.539361225E1,1.748090608E0,-1.103514020E0,-5.781007630E-1,2.146570394E0
1.540363325E1,1.083607759E0,-7.161339363E-1,-7.153102098E-1,1.482808918E0
1.541365425E1,4.239804375E-1,-3.391712523E-1,-7.844899338E-1,9.540550330E-1
1.542367625E1,-9.826830626E-2,-6.650126070E-2,-7.860926557E-1,7.949973214E-1
1.543369725E1,-3.928253031E-1,1.404226381E-1,-7.449031144E-1,8.537627808E-1
1.544371825E1,-5.730575395E-1,3.015561140E-1,-7.866693373E-1,1.018911026E0
1.545374025E1,-6.743652284E-1,4.024895811E-1,-8.210952580E-1,1.136205856E0
1.546376125E1,-7.022441679E-1,3.758476201E-1,-9.146523164E-1,1.212846719E0
1.547378225E1,-7.187590438E-1,2.232326603E-1,-1.003713012E0,1.254546609E0
1.548380325E1,-7.731790799E-1,3.303179830E-2,-1.079556223E0,1.328284092E0
1.549382525E1,-8.254058254E-1,-1.413567308E-1,-1.142338216E0,1.416408522E0
1.550384625E1,-8.617766762E-1,-2.492852220E-1,-1.146993989E0,1.456158429E0
1.551386725E1,-8.441654474E-1,-3.090250549E-1,-1.114386917E0,1.431771626E0
1.552388925E1,-7.812768888E-1,-3.476251566E-1,-1.041260469E0,1.347390141E0
1.553391025E1,-6.560844934E-1,-3.723156095E-1,-9.222737235E-1,1.191492592E0
1.554393125E1,-5.340449166E-1,-3.978416294E-1,-7.987719043E-1,1.039960812E0
1.555395325E1,-4.045378608E-1,-4.365879115E-1,-6.774613291E-1,9.017836424E-1
1.556397425E1,-2.942763305E-1,-4.413627478E-1,-5.696823804E-1,7.784199692E-1
1.557399525E1,-2.489107078E-1,-4.292069712E-1,-4.603226370E-1,6.768102354E-1
1.558401625E1,-2.550789356E-1,-3.982015255E-1,-3.534040330E-1,5.903593218E-1
1.559403825E1,-2.942500180E-1,-3.661441657E-1,-2.692058086E-1,5.414022447E-1
1.560405925E1,-3.733488125E-1,-3.720276341E-1,-1.990928690E-1,5.634109218E-1
1.561408025E1,-4.620703697E-1,-4.019645011E-1,-1.234049016E-1,6.247505554E-1
1.562410225E1,-5.417386830E-1,-4.070796454E-1,-4.463296652E-2,6.791073111E-1
1.563412325E1,-6.129484141E-1,-4.196134445E-1,3.904185891E-3,7.428300235E-1
1.564414425E1,-6.676795220E-1,-4.664338544E-1,3.293787740E-2,8.151327428E-1
1.565416625E1,-7.209716302E-1,-4.852890784E-1,5.354938567E-2,8.707313695E-1
1.566418725E1,-7.473583603E-1,-4.643385047E-1,8.361291803E-2,8.838245786E-1
1.567420825E1,-7.589843792E-1,-4.401421416E-1,1.168372359E-1,8.851176940E-1
1.568422925E1,-7.952739537E-1,-4.180911219E-1,1.731973781E-1,9.150181306E-1
1.569425125E1,-8.454337084E-1,-3.539614919E-1,2.302223488E-1,9.450128163E-1
1.570427225E1,-9.175105816E-1,-2.857063589E-1,2.531405836E-1,9.937474256E-1
1.571429325E1,-1.011792841E0,-2.590465638E-1,2.509836189E-1,1.074161372E0
1.572431525E1,-1.092175684E0,-2.677524832E-1,2.450058641E-1,1.150898341E0
1.573433617E1,-1.127289968E0,-3.207861444E-1,2.462578261E-1,1.197634894E0
1.574435717E1,-1.112747943E0,-3.752427256E-1,2.934227101E-1,1.210418099E0
1.575437917E1,-1.070219389E0,-4.299899134E-1,3.556504601E-1,1.206958208E0
1.576440017E1,-9.994382590E-1,-4.809033743E-1,4.113598803E-1,1.182946254E0
1.577442117E1,-9.230116421E-1,-5.343369851E-1,4.427810631E-1,1.154782046E0
1.578444217E1,-8.707860661E-1,-6.160638106E-1,4.673217541E-1,1.164556831E0
1.579446417E1,-8.355115682E-1,-7.001657751E-1,4.936705504E-1,1.196671344E0
1.580448517E1,-7.901319122E-1,-7.526012662E-1,4.912561619E-1,1.196682799E0
1.581450617E1,-7.674616724E-1,-8.029694742E-1,5.012180632E-1,1.218596300E0
1.582452817E1,-7.669266522E-1,-7.829398370E-1,4.873946607E-1,1.199468563E0
1.583454917E1,-7.703390872E-1,-7.317153043E-1,4.566413031E-1,1.156438877E0
1.584457017E1,-8.706375468E-1,-6.343044922E-1,4.673545716E-1,1.174211319E0
1.585459217E1,-9.822258103E-1,-5.287482163E-1,4.543005896E-1,1.204463052E0
1.586461317E1,-1.025059589E0,-4.898180392E-1,3.526069844E-1,1.189537959E0
1.587463417E1,-1.027347019E0,-4.316440907E-1,3.147995458E-1,1.157953917E0
1.588465517E1,-1.017483351E0,-3.243821821E-1,3.684921151E-1,1.129726785E0
1.589467717E1,-9.744203621E-1,-2.357617816E-1,4.098569997E-1,1.083079600E0
1.590469817E1,-8.792557579E-1,-2.249225056E-1,4.131185766E-1,9.971698851E-1
1.591471917E1,-7.609326714E-1,-3.111478865E-1,3.786370343E-1,9.050953218E-1
1.592474117E1,-6.281581914E-1,-4.682926843E-1,3.422380803E-1,8.549898568E-1
1.593476217E1,-5.248454922E-1,-6.135842988E-1,3.780821335E-1,8.915686076E-1
1.594478317E1,-4.719732141E-1,-7.554509068E-1,4.129080769E-1,9.818135604E-1
1.595480517E1,-4.454309481E-1,-8.897614503E-1,4.150605100E-1,1.078127727E0
1.596482617E1,-4.577253038E-1,-1.003578380E0,4.270683521E-1,1.182822639E0
1.597484717E1,-4.071895730E-1,-1.167093719E0,4.249616003E-1,1.307097341E0
1.598486817E1,-3.142410636E-1,-1.261129518E0,5.005292247E-1,1.392739966E0
1.599489017E1,-2.215398914E-1,-1.226860742E0,7.063326142E-1,1.432889725E0
1.600491117E1,-1.758134955E-1,-1.000172962E0,8.367828260E-1,1.315850233E0
1.601493217E1,-2.028878582E-1,-6.851118261E-1,7.625113466E-1,1.044971411E0
1.602495417E1,-2.008120966E-1,-4.543537992E-1,5.177668530E-1,7.175272727E-1
1.603497517E1,-1.293515199E-1,-3.327460393E-1,2.559758254E-1,4.392896147E-1
1.604499617E1,4.883360624E-2,-2.890571058E-1,1.660286918E-1,3.369039299E-1
1.605501717E1,3.786504829E-1,-2.992178124E-1,2.358053434E-1,5.371328024E-1
1.606503917E1,7.797361475E-1,-3.649454865E-1,2.729720002E-1,9.031541290E-1
1.607506017E1,1.181508860E0,-4.191091222E-1,2.061938739E-1,1.270484772E0
1.608508117E1,1.579664485E0,-4.281182197E-1,-3.806954004E-2,1.637093273E0
1.609510317E1,1.887409877E0,-4.211588636E-1,-2.983612684E-1,1.956709043E0
1.610512417E1,2.100869501E0,-4.508510247E-1,-5.083142442E-1,2.208008758E0
1.611514517E1,2.152790437E0,-4.779195401E-1,-5.694253222E-1,2.277533523E0
1.612516717E1,2.050627300E0,-4.911523739E-1,-5.090381294E-1,2.169198653E0
1.613518817E1,1.841561274E0,-4.726278099E-1,-4.744424933E-1,1.959546032E0
1.614520917E1,1.585943810E0,-4.344881764E-1,-5.283373033E-1,1.727176323E0
1.615523117E1,1.350268275E0,-4.107707003E-1,-6.897157775E-1,1.570880274E0
1.616525217E1,1.144075570E0,-4.230314344E-1,-8.789324800E-1,1.503458283E0
1.617527317E1,8.623456103E-1,-3.766808483E-1,-9.506632711E-1,1.337643102E0
1.618529417E1,5.724511832E-1,-2.577879506E-1,-9.983028759E-1,1.179306413E0
1.619531617E1,4.141313875E-1,-1.402033675E-1,-1.238230360E0,1.313155061E0
1.620533717E1,3.884176719E-1,-7.279491127E-3,-1.393570269E0,1.446706388E0
1.621535817E1,4.068861026E-1,1.562288314E-1,-1.314483899E0,1.384857996E0
1.622538017E1,4.248592740E-1,3.858919671E-1,-1.120307881E0,1.258772323E0
1.623540117E1,4.032298386E-1,6.332908773E-1,-1.017688662E0,1.264650881E0
