"Time (s)","Linear Acceleration x (m/s^2)","Linear Acceleration y (m/s^2)","Linear Acceleration z (m/s^2)","Absolute acceleration (m/s^2)"
1.152675000E-2,-7.586838323E-1,8.424209306E-1,5.451452708E-1,1.257957689E0
2.155075000E-2,-9.127035856E-1,1.098205333E0,6.263274282E-1,1.559284719E0
3.157475000E-2,-4.923601893E-1,1.181890098E0,7.901962316E-1,1.504557359E0
4.159875000E-2,-4.846267350E-2,1.092347007E0,8.837832570E-1,1.405931528E0
5.162175000E-2,-5.053039514E-2,5.818575990E-1,4.437674153E-1,7.335128528E-1
6.164575000E-2,-2.533771035E-1,-2.900394380E-2,-9.677551210E-2,2.727758880E-1
7.166975000E-2,-1.444708847E-1,-2.586276108E-1,-3.303314316E-1,4.437104149E-1
8.169375000E-2,-2.983640458E-1,-2.476184732E-1,-5.944986945E-1,7.097638409E-1
9.171675000E-2,-6.416769540E-1,-2.242173314E-1,-8.129074019E-1,1.059642000E0
1.017407500E-1,-7.448245425E-1,-4.280746579E-3,-3.604463464E-1,8.274681217E-1
1.117647500E-1,-8.036956253E-1,2.396756154E-1,-2.146349144E-1,8.657015682E-1
1.217887500E-1,-9.898204663E-1,3.961313188E-1,-2.467349589E-1,1.094322949E0
1.318127500E-1,-9.957254963E-1,1.743397048E-1,-5.086381799E-1,1.131625554E0
1.418357500E-1,-8.878787930E-1,-2.111812565E-1,-9.057407212E-1,1.285804234E0
1.518597500E-1,-8.523367120E-1,-1.780643812E-1,-1.214304723E0,1.494229151E0
1.618837500E-1,-9.386482662E-1,-2.882782567E-1,-1.389493736E0,1.701428154E0
1.719077500E-1,-8.266941132E-1,-4.158934459E-1,-1.502208758E0,1.764375716E0
1.819307500E-1,-9.236761051E-1,-4.312915036E-1,-1.641807523E0,1.932542846E0
1.919547500E-1,-1.050912468E0,-3.691417408E-1,-1.824730064E0,2.137831248E0
2.019787500E-1,-1.203413334E0,-3.580431408E-1,-1.689392164E0,2.104862092E0
2.120027500E-1,-1.078876777E0,-3.361862487E-1,-1.324267461E0,1.740885005E0
2.220257500E-1,-6.689295837E-1,-5.241099125E-1,-7.724832612E-1,1.148428656E0
2.320497500E-1,-3.180407671E-1,-6.211444563E-1,-4.422512323E-1,8.261697873E-1
2.420737500E-1,1.722293350E-1,-8.198995024E-1,-4.233664799E-1,9.386891467E-1
2.520977500E-1,5.630226576E-1,-1.127544322E0,-7.057636070E-1,1.444455946E0
2.621207500E-1,8.103890061E-1,-1.328705790E0,-1.183011010E0,1.954918020E0
2.721447500E-1,8.614955713E-1,-1.456208128E0,-1.759616640E0,2.441099639E0
2.821687500E-1,7.846902010E-1,-1.534821896E0,-2.400121812E0,2.954996053E0
2.921927500E-1,7.235736412E-1,-1.691922839E0,-2.963421518E0,3.488270173E0
3.022167500E-1,7.175953748E-1,-1.765932217E0,-3.568341705E0,4.045555863E0
3.122397500E-1,7.423811372E-1,-1.802225300E0,-4.169215618E0,4.602336869E0
3.222637500E-1,3.049787086E-1,-2.189388744E0,-4.747583599E0,5.236982444E0
3.322877500E-1,4.905429478E-1,-2.558793610E0,-5.094199526E0,5.721793944E0
3.423117500E-1,1.027619938E0,-2.755428163E0,-5.198276457E0,5.972475636E0
3.523347500E-1,1.128519638E0,-2.939568386E0,-5.169943188E0,6.053340519E0
3.623587500E-1,9.975415684E-1,-3.116551325E0,-4.942743777E0,5.927790262E0
3.723827500E-1,9.280158354E-1,-3.162790521E0,-4.566822774E0,5.632080213E0
3.824067500E-1,7.424943540E-1,-3.187405253E0,-4.126177188E0,5.266515764E0
3.924297500E-1,6.659300351E-1,-2.754129497E0,-3.096109459E0,4.196973419E0
4.024537500E-1,6.193610555E-1,-2.183352079E0,-1.367149186E0,2.649477555E0
4.124777500E-1,8.280452585E-1,-1.944883913E0,-1.054907870E-1,2.116450021E0
4.225017500E-1,1.407308156E0,-2.003590543E0,4.254510123E-1,2.485135786E0
4.325257500E-1,1.787719527E0,-2.197468719E0,3.358184588E-1,2.852645074E0
4.425487500E-1,1.843452263E0,-2.498530451E0,1.713351130E-2,3.105038521E0
4.525727500E-1,1.642741031E0,-2.745243483E0,-7.108126777E-1,3.277226654E0
4.625967500E-1,1.378277022E0,-2.619352638E0,-1.772834271E0,3.450159002E0
4.726207500E-1,1.071206399E0,-2.470712323E0,-2.165585314E0,3.455671032E0
4.826437500E-1,1.057615131E0,-1.855362749E0,-1.501373191E0,2.610563571E0
4.926677500E-1,1.209374936E0,-1.157906574E0,-5.650948012E-1,1.767107100E0
5.026917500E-1,1.066421038E0,-8.550108629E-1,7.248091578E-2,1.368777151E0
5.127157500E-1,1.125018325E0,-7.453168049E-1,4.759703708E-1,1.430982587E0
5.227387500E-1,1.446991162E0,-7.495706543E-1,8.179512101E-1,1.823371539E0
5.327627500E-1,1.774334081E0,-4.320992965E-1,1.195305950E0,2.182596515E0
5.427867500E-1,1.830278487E0,-2.088268751E-1,1.073354082E0,2.132045259E0
5.528107500E-1,1.509663958E0,-4.646387592E-1,2.548824692E-1,1.599981099E0
5.628337500E-1,1.593033559E0,-6.552284610E-1,-1.918693650E-1,1.733174575E0
5.728577500E-1,1.666656436E0,-8.845084579E-1,-2.604741615E-1,1.904716692E0
5.828817500E-1,1.546466918E0,-9.507049325E-1,-2.421098113E-1,1.831397542E0
5.929057500E-1,1.860557708E0,-9.536646469E-1,7.056887627E-2,2.091920460E0
6.029287500E-1,3.050374292E0,-1.020565419E0,6.487757662E-1,3.281348365E0
6.129527500E-1,4.318677467E0,-1.032491692E0,1.627179252E0,4.729135912E0
6.229767500E-1,5.394844644E0,-8.584775309E-1,2.663194183E0,6.077329649E0
6.330007500E-1,5.521702911E0,-5.728168169E-1,3.288280540E0,6.452140037E0
6.430237500E-1,4.407422413E0,-9.325393511E-2,3.401956552E0,5.568426798E0
6.530477500E-1,2.720844514E0,2.732942549E-1,2.809041576E0,3.920254991E0
6.630717500E-1,1.558503411E0,2.920059480E-1,1.780075462E0,2.383876886E0
6.730957500E-1,1.472625355E0,2.019127619E-2,1.006003367E0,1.783557091E0
6.831197500E-1,1.879952922E0,-3.961389567E-1,1.804004900E-1,1.929687384E0
6.931427500E-1,2.311302606E0,-5.612267219E-1,-2.057572331E-1,2.387348154E0
7.031667500E-1,2.497024793E0,-3.327747638E-1,-2.437493706E-1,2.530866574E0
7.131907500E-1,2.670074894E0,3.464679927E-1,3.957312231E-1,2.721386267E0
7.232147500E-1,2.633821573E0,8.061586918E-1,1.482762527E0,3.128177205E0
7.332377500E-1,2.190431888E0,9.287578471E-1,2.099266048E0,3.172932545E0
7.432617500E-1,1.595381216E0,1.288728376E0,2.145557870E0,2.968076923E0
7.532857500E-1,1.287431172E0,1.728720244E0,2.096791214E0,3.007072679E0
7.633097500E-1,1.457047788E0,1.919258929E0,2.052132812E0,3.165089599E0
7.733327500E-1,1.502720389E0,1.912057206E0,1.851719203E0,3.056631371E0
7.833567500E-1,1.381859611E0,2.032358406E0,1.493981141E0,2.876107843E0
7.933807500E-1,1.017150645E0,1.768090132E0,1.240582110E0,2.387421647E0
8.034047500E-1,5.484156185E-1,1.546888356E0,1.095726625E0,1.973382911E0
8.134277500E-1,4.249826503E-1,1.617760703E0,1.127842384E0,2.017371653E0
8.234517500E-1,7.112436175E-1,1.734139298E0,1.140890592E0,2.194251109E0
8.334757500E-1,8.505815971E-1,1.792625634E0,1.196197066E0,2.316869253E0
8.434997500E-1,5.416252470E-1,1.920228544E0,1.184925973E0,2.320492433E0
8.535227500E-1,1.938112253E-1,1.989987288E0,1.052846142E0,2.259667497E0
8.635467500E-1,7.894033492E-2,2.041453604E0,9.838985525E-1,2.267558324E0
8.735707500E-1,1.717882723E-1,2.047087396E0,8.695399513E-1,2.230734799E0
8.835947500E-1,3.729658198E-1,2.059226508E0,7.440503711E-1,2.221064670E0
8.936187500E-1,4.433832532E-1,2.032336332E0,7.526693863E-1,2.212123614E0
9.036417500E-1,4.457344186E-1,2.046945016E0,8.348005468E-1,2.255117519E0
9.136657500E-1,4.514442247E-1,2.171503281E0,8.771957108E-1,2.385099726E0
9.236897500E-1,5.094065040E-1,2.476874996E0,8.537296649E-1,2.668943437E0
9.337137500E-1,4.925688618E-1,2.671173002E0,6.837454049E-1,2.800945745E0
9.437367500E-1,5.820751154E-1,2.935314537E0,6.127378412E-1,3.054558975E0
9.537607500E-1,8.847153032E-1,3.246345187E0,8.129552760E-1,3.461556661E0
9.637847500E-1,1.052568399E0,2.965157556E0,9.709540596E-1,3.292842443E0
9.738087500E-1,8.473188508E-1,2.488180587E0,8.846217477E-1,2.773363933E0
9.838319167E-1,8.556903094E-1,2.824116282E0,8.227674886E-1,3.063459649E0
9.938559167E-1,1.061377814E0,3.107745710E0,8.017210937E-1,3.380438282E0
1.003879917E0,1.267707928E0,2.899467304E0,7.065237451E-1,3.242401863E0
1.013903917E0,1.462337764E0,2.780462725E0,6.078975892E-1,3.199835023E0
1.023926917E0,1.684558856E0,2.673110769E0,6.108925331E-1,3.218143783E0
1.033950917E0,1.916857039E0,2.382690385E0,8.385855956E-1,3.170927338E0
1.043974917E0,1.962271779E0,2.251300525E0,7.974660748E-1,3.091086658E0
1.053998917E0,1.766196511E0,2.228908321E0,7.666318794E-1,2.945370411E0
1.064021917E0,1.861025485E0,2.471063448E0,6.795352634E-1,3.167228851E0
1.074045917E0,2.282595701E0,2.890922183E0,3.510171264E-1,3.700119893E0
1.084069917E0,2.290947279E0,2.389365274E0,1.927359223E-1,3.315818599E0
1.094093917E0,2.148748841E0,2.185038416E0,2.893512207E-1,3.078187550E0
1.104116917E0,2.144786768E0,1.937460581E0,4.087979959E-1,2.919071699E0
1.114140917E0,1.957890460E0,1.481703742E0,5.295178561E-1,2.511806161E0
1.124164917E0,1.583177492E0,1.068998491E0,6.402316685E-1,2.014722148E0
1.134188917E0,1.279653790E0,8.280490592E-1,4.384353393E-1,1.586002715E0
1.144211917E0,1.112704673E0,1.138273086E0,-2.445481002E-2,1.591972156E0
1.154235917E0,1.152349965E0,1.289006704E0,-4.529552914E-1,1.787349216E0
1.164259917E0,9.953364372E-1,1.008727146E0,-1.005562633E0,1.737636696E0
1.174283917E0,1.141068347E0,7.680691981E-1,-1.173171900E0,1.807843902E0
1.184306917E0,1.523302588E0,6.714866441E-1,-9.227818465E-1,1.903384203E0
1.194330917E0,1.928408799E0,6.917767748E-1,-5.932913907E-1,2.132911221E0
1.204354917E0,1.908761569E0,7.376186532E-1,-4.094239403E-1,2.086882835E0
1.214378917E0,1.728424083E0,9.726960182E-1,-3.311459488E-1,2.010782185E0
1.224401917E0,1.383220843E0,1.127974969E0,-2.587194121E-1,1.803486392E0
1.234425917E0,8.626496655E-1,1.227892775E0,-2.781504406E-1,1.526188973E0
1.244449917E0,7.471390897E-1,1.496112743E0,-5.489627717E-1,1.760093828E0
1.254473917E0,4.870379806E-1,1.864562466E0,-8.674867746E-1,2.113369937E0
1.264496917E0,4.648916513E-1,1.455264972E0,-6.494831331E-1,1.660044796E0
1.274520917E0,1.234258931E0,5.764036086E-1,-1.073507863E-1,1.366440786E0
1.284544917E0,1.301521207E0,8.106936461E-1,-1.850504883E-1,1.544482219E0
1.294568917E0,8.870723158E-1,4.055178541E-1,-1.589849165E-1,9.882399644E-1
1.304591917E0,8.308928525E-1,2.289950913E-1,1.687412882E-1,8.782341980E-1
1.314615917E0,4.581533200E-1,2.492726505E-2,3.660874477E-1,5.869802829E-1
1.324639917E0,2.377583134E-1,-6.016200185E-2,4.312181211E-1,4.960822008E-1
1.334663917E0,1.313500983E-1,8.390403628E-2,4.827173267E-1,5.072561021E-1
1.344686917E0,-7.176287770E-3,1.716020384E-1,4.084484786E-1,4.430901921E-1
1.354710917E0,-2.026188862E-1,1.765134072E-1,2.784786156E-1,3.869906140E-1
1.364734917E0,-2.072808713E-1,-9.023715556E-3,4.773242936E-2,2.128970922E-1
1.374758917E0,5.349968433E-2,-3.164647597E-1,1.560246174E-1,3.568695022E-1
1.384781917E0,1.420592737E-1,-5.087396291E-1,6.216525793E-2,5.318471272E-1
1.394805917E0,-2.265492010E-1,-4.689724231E-1,-2.242214245E-1,5.670404935E-1
1.404829917E0,-5.178387737E-1,-3.095343474E-1,-2.930951929E-1,6.707259499E-1
1.414853917E0,-6.335680354E-1,-3.238340056E-1,-1.579281785E-1,7.288471912E-1
1.424876917E0,-5.430332565E-1,-3.163852376E-1,2.913667560E-3,6.284848651E-1
1.434900917E0,-3.957763928E-1,-3.092782393E-1,-5.936970413E-2,5.057832977E-1
1.444924917E0,-2.885010356E-1,-4.538211179E-1,-1.025170393E-1,5.474451552E-1
1.454948917E0,-1.674940771E-1,-7.090626061E-1,1.428375381E-1,7.424463668E-1
1.464971917E0,6.681262493E-2,-9.415081394E-1,4.610833597E-1,1.050475782E0
1.474995917E0,4.166018361E-1,-1.008951971E0,6.182667491E-1,1.254509842E0
1.485019917E0,6.882482725E-1,-9.325513744E-1,6.513675445E-1,1.329517743E0
1.495043917E0,6.287908602E-1,-7.428136119E-1,6.890084106E-1,1.192427188E0
1.505066917E0,2.801003408E-1,-4.499207327E-1,6.478960526E-1,8.370508716E-1
1.515090917E0,-1.173933792E-1,-1.433982861E-1,5.678868467E-1,5.973606486E-1
1.525114917E0,-4.936254537E-1,1.433784056E-1,5.125907515E-1,7.259288769E-1
1.535138917E0,-7.758746463E-1,3.709283575E-1,3.290108380E-1,9.207700281E-1
1.545161917E0,-8.815121984E-1,4.728871340E-1,1.396163070E-1,1.010038965E0
1.555185917E0,-8.849275571E-1,4.012166423E-1,-9.175099969E-2,9.759558501E-1
1.565209917E0,-9.909328991E-1,3.118290871E-1,-3.127402295E-1,1.084892548E0
1.575233917E0,-1.164812720E0,2.689286506E-1,-3.811665398E-1,1.254750662E0
1.585256917E0,-1.276238431E0,2.043055156E-1,-3.929925334E-1,1.350913916E0
1.595280917E0,-1.283755027E0,1.704320106E-1,-4.179047419E-1,1.360778605E0
1.605304917E0,-1.209145140E0,1.738801137E-1,-4.140571278E-1,1.289848661E0
1.615328917E0,-1.007757677E0,2.144434181E-1,-3.450439033E-1,1.086561922E0
1.625351917E0,-8.395221734E-1,3.301364270E-1,-2.381644025E-1,9.330111589E-1
1.635375917E0,-7.820200700E-1,4.414758915E-1,-1.884471358E-1,9.175885110E-1
1.645399917E0,-7.031481475E-1,4.860761136E-1,-1.566717580E-1,8.690416246E-1
1.655423917E0,-4.944826555E-1,4.739799786E-1,-1.084892392E-1,6.934984007E-1
1.665446917E0,-2.391756785E-1,4.341154164E-1,-6.199510396E-2,4.995043472E-1
1.675470917E0,6.492572844E-2,3.565176022E-1,5.517198801E-2,3.665570885E-1
1.685494917E0,3.271365130E-1,1.888931322E-1,3.972801505E-1,5.482065592E-1
1.695518917E0,6.392971373E-1,1.219995233E-1,5.629522352E-1,8.605230575E-1
1.705541917E0,9.557238901E-1,1.086038446E-1,7.114286819E-1,1.196383600E0
1.715565917E0,9.229730505E-1,1.687725708E-1,1.005720800E0,1.375440933E0
1.725589917E0,6.747224933E-1,3.364023033E-1,1.233551126E0,1.445705825E0
1.735613917E0,5.370591563E-1,5.949971697E-1,1.247712059E0,1.482983328E0
1.745636917E0,5.544926298E-1,8.038608822E-1,1.000627290E0,1.398180735E0
1.755660917E0,6.227875239E-1,9.046882224E-1,7.421347502E-1,1.325552363E0
1.765684917E0,6.438158655E-1,8.609992889E-1,5.199013790E-1,1.194201025E0
1.775708917E0,6.000015092E-1,6.344699684E-1,3.975013214E-1,9.594588331E-1
1.785731917E0,5.287368143E-1,4.005184847E-1,3.314333394E-1,7.415023492E-1
1.795755917E0,4.028655571E-1,1.986918962E-1,1.805178729E-1,4.841134465E-1
1.805779917E0,2.701191437E-1,3.344519645E-2,1.927476168E-2,2.728634263E-1
1.815803917E0,1.374148303E-1,-1.596859977E-1,-1.797530571E-1,2.769361207E-1
1.825826917E0,5.199811935E-2,-2.308957288E-1,-2.618017718E-1,3.529260683E-1
1.835850917E0,-8.279657364E-4,-3.065996298E-1,-3.249677807E-1,4.467751974E-1
1.845874917E0,8.027642369E-3,-3.935962585E-1,-3.332711193E-1,5.158023814E-1
1.855897917E0,2.841980696E-2,-4.234271447E-1,-3.711961600E-1,5.638127540E-1
1.865921917E0,6.634367824E-2,-3.968981811E-1,-4.987321195E-1,6.408302247E-1
1.875945917E0,3.866705239E-2,-3.568178567E-1,-5.396132201E-1,6.480714090E-1
1.885969917E0,3.057684481E-2,-3.611854345E-1,-5.085919869E-1,6.245443704E-1
1.895992917E0,2.630896211E-2,-4.538044533E-1,-4.419436687E-1,6.339912063E-1
1.906016917E0,2.646098971E-2,-5.559006393E-1,-3.988672310E-1,6.847048800E-1
1.916040917E0,-7.506304622E-2,-6.430377473E-1,-4.090255988E-1,7.657897530E-1
1.926064917E0,-2.263205749E-1,-7.210493982E-1,-4.005702326E-1,8.553301985E-1
1.936087917E0,-3.895765901E-1,-8.244104831E-1,-4.382102215E-1,1.011657433E0
1.946111917E0,-4.835974789E-1,-9.154530926E-1,-4.467331231E-1,1.127604261E0
1.956135917E0,-4.478458482E-1,-9.504394689E-1,-4.539637899E-1,1.144545416E0
1.966159917E0,-2.617710739E-1,-1.166801212E0,-5.018963403E-1,1.296861250E0
1.976183000E0,8.051206648E-2,-1.454545618E0,-5.126195490E-1,1.544332850E0
1.986207000E0,4.481382090E-1,-1.693518106E0,-5.128370655E-1,1.825331007E0
1.996231000E0,5.031780499E-1,-1.793178927E0,-5.184272960E-1,1.933247442E0
2.006255000E0,4.333839297E-1,-1.508163855E0,-5.538105521E-1,1.664057082E0
2.016278000E0,6.208871788E-1,-1.257137478E0,-4.295844090E-1,1.466437279E0
2.026302000E0,7.012045330E-1,-1.052075040E0,-2.817089099E-1,1.295341499E0
2.036326000E0,8.535566604E-1,-9.214605220E-1,-2.571280923E-1,1.282093336E0
2.046350000E0,9.198687637E-1,-9.237223712E-1,-3.281808257E-2,1.304031667E0
2.056373000E0,7.444113636E-1,-9.871762092E-1,4.400023931E-1,1.312351802E0
2.066397000E0,5.443009329E-1,-1.119578660E0,8.124796781E-1,1.486554106E0
2.076421000E0,3.405909562E-1,-1.130963920E0,8.152556437E-1,1.435173631E0
2.086445000E0,2.497404277E-1,-1.109992004E0,6.184290093E-1,1.294954428E0
2.096468000E0,1.227470899E-1,-1.212183938E0,4.114980939E-1,1.285996668E0
2.106492000E0,1.336667651E-1,-1.288645054E0,3.216787219E-1,1.334897029E0
2.116516000E0,2.086052656E-1,-1.257169492E0,9.819287717E-2,1.278136585E0
2.126540000E0,2.996557689E-1,-1.131782092E0,-1.210063738E-1,1.177016068E0
2.136563000E0,6.239563823E-3,-1.027235922E0,-4.624869838E-1,1.126564149E0
2.146587000E0,-4.815076840E-1,-8.223980176E-1,-7.155468759E-1,1.191719548E0
2.156611000E0,-8.164572465E-1,-5.683853218E-1,-7.679551774E-1,1.256749563E0
2.166634000E0,-1.139221796E0,-4.899303058E-1,-8.363868964E-1,1.495794453E0
2.176658000E0,-1.287938125E0,-4.393972063E-1,-8.412593812E-1,1.599866202E0
2.186682000E0,-1.172243362E0,-4.108572391E-1,-8.525249192E-1,1.506571242E0
2.196706000E0,-9.923081642E-1,-8.261583620E-1,-6.600918826E-1,1.450149794E0
2.206729000E0,-7.397692591E-1,-1.088010712E0,-4.501464352E-1,1.390560204E0
2.216753000E0,-2.851996976E-1,-1.115833811E0,-4.330825058E-1,1.230440741E0
2.226777000E0,9.968742549E-2,-1.254530059E0,-2.992227826E-1,1.293567750E0
2.236801000E0,4.286365753E-1,-1.434016483E0,-7.698151767E-3,1.496727045E0
2.246824000E0,6.026245701E-1,-1.434873100E0,2.628177255E-1,1.578318834E0
2.256848000E0,4.311391836E-1,-1.304992699E0,3.676863688E-1,1.422701728E0
2.266872000E0,2.362327749E-1,-1.029446170E0,3.131935349E-1,1.101660352E0
2.276896000E0,3.769407570E-2,-8.294366035E-1,1.762689936E-1,8.487971964E-1
2.286919000E0,-2.808066845E-2,-6.836017826E-1,-2.357845858E-2,6.845844468E-1
2.296943000E0,-1.053346664E-1,-5.115597412E-1,-2.264790344E-1,5.692815769E-1
2.306967000E0,-4.653758007E-1,-4.499154702E-1,-4.395834401E-1,7.824526612E-1
2.316991000E0,-5.927071077E-1,-3.041981784E-1,-4.400025393E-1,7.983986985E-1
2.327014000E0,-5.934748471E-1,-1.292357451E-1,-3.558340627E-1,7.039404464E-1
2.337038000E0,-8.313220382E-1,-1.170802608E-1,-5.407592744E-1,9.986113916E-1
2.347062000E0,-1.041989617E0,4.584977210E-2,-5.468206443E-1,1.177649090E0
2.357085000E0,-1.008399117E0,4.083733419E-1,-2.936576951E-1,1.126886155E0
2.367109000E0,-1.243126819E0,3.543974018E-1,-5.410570438E-1,1.401322422E0
2.377133000E0,-1.013727100E0,-9.270087987E-2,4.220754147E-2,1.018831469E0
2.387157000E0,-2.314883441E-1,3.027065536E-1,2.342960308E-1,4.473396262E-1
2.397180000E0,-9.626212656E-1,4.731414878E-1,-2.939784148E-1,1.112171694E0
2.407204000E0,-1.059114357E0,6.350026497E-1,-9.820004001E-2,1.238787647E0
2.417228000E0,-6.588373625E-1,6.485369074E-1,-3.280996956E-1,9.809771663E-1
2.427252000E0,-5.366416651E-1,4.547984800E-1,-2.581686044E-1,7.493176645E-1
2.437275000E0,-1.262244290E-1,4.907918930E-1,-5.331871301E-2,5.095607656E-1
2.447299000E0,-2.843764096E-1,6.113608950E-1,-1.402235404E-1,6.886905892E-1
2.457323000E0,-7.046573138E-1,7.849711597E-1,-1.016327941E-1,1.059740948E0
2.467346000E0,-8.542296749E-1,9.343432537E-1,-2.455520672E-1,1.289574143E0
2.477370000E0,-7.989793342E-1,1.001087174E0,-3.488530719E-1,1.327494622E0
2.487394000E0,-8.257379472E-1,8.598713610E-1,-3.613734224E-1,1.245717731E0
2.497418000E0,-7.270802164E-1,8.951139915E-1,-2.703021616E-1,1.184456820E0
2.507441000E0,-6.659803212E-1,9.002516475E-1,-3.140621388E-1,1.163020999E0
2.517465000E0,-6.666650301E-1,5.454487413E-1,-3.724009788E-1,9.384237214E-1
2.527489000E0,-5.710922903E-1,1.219473662E0,-4.189848688E-1,1.410252012E0
2.537513000E0,-6.832430559E-1,1.501165030E0,-4.185132909E-1,1.701608326E0
2.547536000E0,-5.861593956E-1,1.210761603E0,-4.145408387E-1,1.407611666E0
2.557560000E0,-4.092986637E-1,1.113704547E0,-2.714482158E-1,1.217188296E0
2.567584000E0,-4.563324970E-1,1.326465429E0,-2.727904442E-1,1.429043214E0
2.577608000E0,-4.567739618E-1,1.425117605E0,-2.577062358E-1,1.518556928E0
2.587631000E0,-4.937295341E-1,1.376814634E0,-1.638818134E-1,1.471816781E0
2.597655000E0,-5.031102222E-1,1.431099307E0,-1.817516354E-1,1.527808489E0
2.607679000E0,-4.029269528E-1,1.465635301E0,-2.418560421E-1,1.539133298E0
2.617702000E0,-3.874189675E-2,1.274245408E0,-2.742086864E-1,1.303991065E0
2.627726000E0,1.674256647E-1,1.165273189E0,-1.944029635E-1,1.193182915E0
2.637750000E0,1.369833058E-1,1.223476081E0,-1.928090125E-1,1.246127386E0
2.647774000E0,1.770542747E-1,1.216790082E0,-2.114160222E-1,1.247647007E0
2.657797000E0,4.536784458E-1,1.113706594E0,-5.160372466E-2,1.203673317E0
2.667821000E0,8.221395707E-1,9.756050080E-1,8.404992431E-2,1.278586327E0
2.677845000E0,1.204400709E0,7.789473581E-1,2.036708003E-1,1.448731117E0
2.687869000E0,1.511457299E0,6.581476834E-1,3.077439299E-1,1.677011588E0
2.697892000E0,1.502984099E0,6.605637529E-1,3.439411184E-1,1.677379255E0
2.707916000E0,1.404857880E0,6.570601013E-1,4.564897871E-1,1.616705466E0
2.717940000E0,1.491492566E0,6.264513892E-1,5.558266720E-1,1.710536380E0
2.727963000E0,1.584767935E0,6.465421298E-1,5.493865487E-1,1.797590530E0
2.737987000E0,1.480975764E0,6.517093143E-1,4.645338017E-1,1.683391189E0
2.748011000E0,1.465020466E0,6.050613973E-1,3.365943843E-1,1.620395026E0
2.758035000E0,1.689877483E0,4.540304482E-1,3.224789134E-1,1.779275753E0
2.768058000E0,1.870610826E0,3.087081358E-1,2.654425406E-1,1.914404690E0
2.778082000E0,1.959197313E0,1.511546177E-1,2.421197516E-1,1.979879744E0
2.788106000E0,1.986313775E0,-1.602751046E-2,3.256785098E-1,2.012899845E0
2.798130000E0,1.844631647E0,-1.025864750E-2,3.508662683E-1,1.877732220E0
2.808153000E0,1.548018769E0,1.415713236E-1,2.833660108E-1,1.580095201E0
2.818177000E0,1.208095565E0,3.051167759E-1,2.114829728E-1,1.263849749E0
2.828201000E0,7.909616321E-1,5.203758806E-1,1.811847478E-2,9.469633782E-1
2.838224000E0,3.073243922E-1,7.083279034E-1,-1.971634340E-1,7.969003203E-1
2.848248000E0,-4.909965456E-2,7.627885777E-1,-3.522289619E-1,8.416189351E-1
2.858272000E0,-2.061213684E-1,6.642279106E-1,-5.531664813E-1,8.886382232E-1
2.868296000E0,-1.705790681E-1,4.355620176E-1,-6.534824824E-1,8.036484583E-1
2.878319000E0,4.935225427E-2,1.654618773E-1,-6.859965098E-1,7.073927405E-1
2.888343000E0,4.075193560E-1,-1.351048878E-1,-6.628587851E-1,7.897513059E-1
2.898367000E0,6.428230083E-1,-4.163457280E-1,-4.995314339E-1,9.143833106E-1
2.908391000E0,6.373821741E-1,-4.459282538E-1,-2.576943952E-1,8.194598494E-1
2.918414000E0,4.685701346E-1,-4.037014166E-1,-1.462365246E-1,6.355453768E-1
2.928438000E0,3.668379378E-1,-3.264705151E-1,8.972727835E-2,4.992034198E-1
2.938462000E0,1.303016925E-1,-2.484218806E-1,2.216308156E-1,3.575082939E-1
2.948485000E0,5.099590659E-2,-1.938746676E-1,2.176798519E-1,2.959264895E-1
2.958509000E0,1.191843814E-1,-2.535376096E-1,2.041160658E-1,3.466260298E-1
2.968533000E0,2.884203440E-1,-3.693767989E-1,1.908829397E-1,5.060255043E-1
2.978557500E0,3.487589318E-1,-4.931161612E-1,1.763426685E-1,6.292003478E-1
2.988580500E0,3.365867829E-1,-5.998044580E-1,2.119598132E-1,7.197103673E-1
2.998604500E0,2.965567446E-1,-6.943422407E-1,2.719519535E-1,8.025053987E-1
3.008628500E0,2.293213660E-1,-6.954111117E-1,2.862089270E-1,7.861936486E-1
3.018652500E0,5.433875978E-2,-6.422584596E-1,2.515539417E-1,6.919017382E-1
3.028675500E0,-1.058205700E-1,-6.024602634E-1,1.600909173E-1,6.322859035E-1
3.038699500E0,-1.817320472E-1,-5.820809627E-1,5.093977332E-2,6.119147364E-1
3.048723500E0,-3.576507926E-1,-5.113758463E-1,-9.068125159E-2,6.305889588E-1
3.058746500E0,-4.309976810E-1,-4.342639357E-1,-2.678781983E-1,6.679093472E-1
3.068770500E0,-3.948320675E-1,-4.091589153E-1,-3.632462856E-1,6.747230865E-1
3.078794500E0,-3.913746089E-1,-3.482610413E-1,-3.896640059E-1,6.529149063E-1
3.088818500E0,-4.827350146E-1,-2.286734945E-1,-3.637643489E-1,6.462578146E-1
3.098841500E0,-6.292019194E-1,-1.508300972E-1,-3.216755059E-1,7.225786495E-1
3.108865500E0,-7.954803604E-1,-3.596943945E-2,-2.442241645E-1,8.329035039E-1
3.118889500E0,-1.001909877E0,1.014038756E-1,-2.595093709E-1,1.039928489E0
3.128912500E0,-1.210081279E0,1.653610128E-1,-3.741972435E-1,1.277366253E0
3.138936500E0,-1.327308598E0,1.552105388E-1,-4.817719781E-1,1.420543088E0
3.148960500E0,-1.351417252E0,1.309694445E-1,-5.350757807E-1,1.459379209E0
3.158984500E0,-1.318845338E0,7.096648693E-2,-5.863634634E-1,1.445064489E0
3.169007500E0,-1.312810426E0,1.245076865E-2,-5.916674727E-1,1.440033554E0
3.179031500E0,-1.285189934E0,-1.714374393E-2,-5.513997450E-1,1.398588128E0
3.189055500E0,-1.240217244E0,5.768278241E-3,-4.920338416E-1,1.334267360E0
3.199079500E0,-1.194891382E0,5.671740711E-2,-4.596145391E-1,1.281494364E0
3.209102500E0,-1.112725139E0,1.656267688E-1,-3.994145304E-1,1.193784498E0
3.219126500E0,-9.986886460E-1,2.809423399E-1,-3.627548271E-1,1.099044437E0
3.229150500E0,-8.728928179E-1,4.017273965E-1,-2.758119929E-1,9.996994688E-1
3.239173500E0,-7.476401961E-1,4.505159792E-1,-1.535914448E-1,8.862961369E-1
3.249197500E0,-5.611830139E-1,4.796228340E-1,-7.709670782E-2,7.422319990E-1
3.259221500E0,-4.020142025E-1,5.359423381E-1,-2.840518892E-2,6.705642874E-1
3.269245500E0,-2.262048000E-1,5.763726184E-1,8.947701752E-3,6.192366818E-1
3.279268500E0,-1.033974838E-1,5.997214276E-1,6.591566205E-2,6.121288303E-1
3.289292500E0,4.890143394E-2,5.849118921E-1,1.345672363E-1,6.021807145E-1
3.299316500E0,2.268070632E-1,5.706601810E-1,2.158765706E-1,6.509202562E-1
3.309339500E0,3.571730751E-1,5.624524444E-1,3.352515712E-1,7.458679332E-1
3.319363500E0,3.766980976E-1,5.389960465E-1,4.431832784E-1,7.929877762E-1
3.329387500E0,4.078690195E-1,5.183606377E-1,5.072073662E-1,8.320542051E-1
3.339411500E0,4.437142056E-1,4.983222297E-1,4.265707541E-1,7.919406222E-1
3.349434500E0,4.534170753E-1,5.027240136E-1,2.879128057E-1,7.356713000E-1
3.359458500E0,4.423816252E-1,5.116249377E-1,1.844480789E-1,7.010582522E-1
3.369482500E0,4.046243995E-1,6.017255607E-1,3.540079772E-2,7.259805587E-1
3.379506500E0,4.131016928E-1,6.987425628E-1,-5.458580464E-2,8.135562597E-1
3.389529500E0,4.750646371E-1,6.823244584E-1,-1.065953261E-1,8.382217126E-1
3.399553500E0,4.982020694E-1,6.459506840E-1,-1.197495148E-1,8.244983531E-1
3.409577500E0,5.015051615E-1,5.913730654E-1,-9.614372045E-2,7.813278086E-1
3.419600500E0,6.265262336E-1,4.491819370E-1,3.649071872E-2,7.717714081E-1
3.429624500E0,8.386105925E-1,1.954157013E-1,2.507262683E-1,8.968381592E-1
3.439648500E0,1.079684862E0,-1.782111463E-1,5.244765329E-1,1.213488462E0
3.449672500E0,1.308870572E0,-4.927597734E-1,8.058147293E-1,1.614091617E0
3.459695500E0,1.405950724E0,-4.819672751E-1,9.668759921E-1,1.773087442E0
3.469719500E0,1.351599101E0,-2.693718696E-1,8.109918541E-1,1.599090092E0
3.479743500E0,1.413055092E0,-1.340231529E-1,6.158442476E-1,1.547239812E0
3.489766500E0,1.610808510E0,-1.358930925E-1,4.828560519E-1,1.687104310E0
3.499790500E0,1.572250800E0,-2.450810739E-1,5.297416583E-1,1.677099739E0
3.509814500E0,1.240052353E0,-2.919125935E-1,6.269068873E-1,1.419843317E0
3.519838500E0,9.889185333E-1,-2.666157845E-1,2.661921537E-1,1.058254272E0
3.529861500E0,8.973523057E-1,-3.994583845E-1,-1.343304241E-1,9.913893404E-1
3.539885500E0,7.448241770E-1,-6.496399847E-1,-5.660201231E-1,1.138935443E0
3.549909500E0,4.791956949E-1,-8.223456851E-1,-1.023470900E0,1.397631433E0
3.559932500E0,1.549517995E-1,-1.055553695E0,-1.135995010E0,1.558424951E0
3.569956500E0,1.775916338E-2,-1.175744382E0,-1.114489536E0,1.620116405E0
3.579980500E0,2.212276500E-1,-1.225278777E0,-9.936424989E-1,1.592976827E0
3.590004500E0,3.734055305E-1,-1.350370893E0,-6.284458745E-1,1.535538165E0
3.600027500E0,5.069214374E-1,-1.407581805E0,-2.594731182E-1,1.518414364E0
3.610051500E0,6.490596485E-1,-1.370784400E0,1.817680076E-1,1.527536549E0
3.620075500E0,6.436837184E-1,-1.316785071E0,4.652901390E-1,1.537773249E0
3.630098500E0,6.303158140E-1,-1.163358810E0,6.072538108E-1,1.455836164E0
3.640122500E0,5.188731462E-1,-9.055337298E-1,7.216472760E-1,1.268855968E0
3.650146500E0,2.871316177E-1,-5.817397776E-1,7.590720874E-1,9.985269994E-1
3.660170500E0,-2.235565960E-2,-3.160174477E-1,7.240209532E-1,7.902994011E-1
3.670193500E0,-3.300642139E-1,-2.842100564E-1,6.400017267E-1,7.741575755E-1
3.680217500E0,-5.011315244E-1,-3.877203915E-1,5.411662406E-1,8.332591474E-1
3.690241500E0,-5.607456422E-1,-6.286204138E-1,2.569588155E-1,8.806969585E-1
3.700265500E0,-4.779385436E-1,-8.729635692E-1,2.265182108E-2,9.954917124E-1
3.710288500E0,-2.044572508E-1,-1.253327286E0,-1.987743419E-1,1.285357263E0
3.720312500E0,3.684213638E-2,-1.590306710E0,-2.754225683E-1,1.614400931E0
3.730336500E0,9.438283145E-2,-1.811067752E0,-2.595093709E-1,1.831998809E0
3.740359500E0,4.176315308E-2,-1.826650582E0,-1.365213758E-1,1.832221219E0
3.750383500E0,-1.540753019E-1,-1.676382402E0,-1.328905472E-1,1.688685007E0
3.760407500E0,-3.946934885E-1,-1.558240871E0,-8.223056316E-2,1.609552555E0
3.770431500E0,-5.607403797E-1,-1.394275589E0,-8.748516351E-2,1.505353063E0
3.780454500E0,-6.738951123E-1,-1.247491473E0,-2.035521019E-1,1.432411622E0
3.790478500E0,-7.909487683E-1,-1.093408862E0,-3.797892281E-1,1.401921093E0
3.800502500E0,-9.821065271E-1,-8.956642145E-1,-6.321787369E-1,1.471868734E0
3.810525500E0,-1.212326610E0,-6.926117572E-1,-8.667041248E-1,1.643357203E0
3.820549500E0,-1.493596394E0,-4.911289850E-1,-9.800816363E-1,1.852727147E0
3.830573500E0,-1.711162518E0,-3.095062807E-1,-9.788423190E-1,1.995495824E0
3.840596500E0,-1.850725030E0,-2.001148161E-1,-9.328764796E-1,2.082183374E0
3.850620500E0,-1.971289939E0,-1.087991416E-1,-8.991061780E-1,2.169380833E0
3.860644500E0,-1.984084817E0,-5.270884842E-2,-8.082959953E-1,2.143061641E0
3.870668500E0,-1.864714494E0,-4.681163907E-2,-7.055636322E-1,1.994284712E0
3.880691500E0,-1.719539239E0,-2.739976019E-2,-6.036434475E-1,1.822622109E0
3.890715500E0,-1.612056890E0,2.749214619E-2,-5.093594339E-1,1.690837150E0
3.900739500E0,-1.486318365E0,1.248330840E-1,-4.476318401E-1,1.557273208E0
3.910762500E0,-1.222857445E0,2.095580694E-1,-4.217199039E-1,1.310397876E0
3.920786500E0,-9.440698045E-1,2.607975125E-1,-3.632951099E-1,1.044637006E0
3.930810500E0,-7.442195749E-1,3.365157393E-1,-2.768235612E-1,8.624018220E-1
3.940834500E0,-5.840409493E-1,4.311616954E-1,-1.594839764E-1,7.432626567E-1
3.950857500E0,-4.865292728E-1,5.090913391E-1,-5.998263851E-2,7.067408590E-1
3.960881500E0,-5.020460290E-1,5.837781170E-1,-1.744516790E-2,7.701632548E-1
3.970905500E0,-5.695188046E-1,6.397798249E-1,-1.138599068E-2,8.566209978E-1
3.980927750E0,-6.041085935E-1,6.873641735E-1,-8.363418728E-2,9.189185911E-1
3.990951750E0,-5.619507533E-1,7.152703026E-1,-2.304966563E-1,9.383650481E-1
4.000975750E0,-4.154703999E-1,7.491402993E-1,-3.748337129E-1,9.350546259E-1
4.010999750E0,-2.541831422E-1,8.244015661E-1,-5.206321348E-1,1.007623358E0
4.021022750E0,-1.347204334E-1,9.700557080E-1,-6.030306593E-1,1.150132013E0
4.031046750E0,-4.840734422E-2,1.146528769E0,-5.744374824E-1,1.283296502E0
4.041070750E0,1.251397705E-1,1.349859847E0,-4.678516580E-1,1.434108344E0
4.051093750E0,1.790306336E-1,1.597095912E0,-3.903001830E-1,1.653814244E0
4.061117750E0,1.860905617E-1,1.807539834E0,-1.667283842E-1,1.824726912E0
4.071141750E0,2.214773262E-1,1.964689602E0,-3.806318119E-2,1.977499999E0
4.081165750E0,2.197787100E-1,2.035774495E0,1.055627078E-2,2.047630805E0
4.091188750E0,2.448223346E-1,2.034472905E0,9.350604147E-2,2.051282856E0
4.101212750E0,2.839115560E-1,1.974311488E0,1.059093015E-1,1.997430450E0
4.111236750E0,3.994133610E-1,1.859811019E0,1.093112116E-1,1.905354822E0
4.121259750E0,5.706315297E-1,1.638960514E0,1.995431046E-1,1.746891342E0
4.131283750E0,7.546170938E-1,1.503121508E0,2.722625868E-1,1.703804021E0
4.141307750E0,8.772525018E-1,1.450774310E0,3.636628997E-1,1.733946007E0
4.151330750E0,1.008397363E0,1.489808568E0,4.300945786E-1,1.849696234E0
4.161354750E0,1.035709707E0,1.629641222E0,3.955325639E-1,1.971007640E0
4.171378750E0,9.427623671E-1,1.767139083E0,2.659696671E-1,2.020475509E0
4.181402750E0,7.804804981E-1,1.862829644E0,1.188844192E-1,2.023219611E0
4.191425750E0,6.901047635E-1,1.772337550E0,8.133184612E-3,1.901970327E0
4.201449750E0,6.882371628E-1,1.569799940E0,-1.181748596E-1,1.718111620E0
4.211473750E0,7.429793805E-1,1.375684659E0,-2.335047564E-1,1.580838737E0
4.221496750E0,7.956265408E-1,1.174995939E0,-3.987704596E-1,1.473992852E0
4.231520750E0,7.938618511E-1,9.636807811E-1,-5.403148860E-1,1.360454873E0
4.241544750E0,1.001646752E0,6.297509730E-1,-5.188547274E-1,1.291933718E0
4.251568750E0,1.285145495E0,2.517749664E-1,-4.443904361E-1,1.382921703E0
4.261591750E0,1.311793011E0,-1.151018554E-1,-3.827473345E-1,1.371329597E0
4.271615750E0,1.248392821E0,-4.476593220E-1,-2.569471210E-1,1.350890568E0
4.281639750E0,1.113430898E0,-6.313048705E-1,-1.774735200E-1,1.292196213E0
4.291662750E0,8.993625784E-1,-7.123045948E-1,-1.629952294E-1,1.158791754E0
4.301686750E0,7.929789215E-1,-9.378521678E-1,-2.004790977E-1,1.244417184E0
4.311710750E0,7.739316165E-1,-1.048089432E0,-2.174155578E-1,1.320882708E0
4.321734750E0,7.731849271E-1,-1.191866618E0,-2.079971552E-1,1.435835570E0
4.331757750E0,8.845504117E-1,-1.297358574E0,-1.782304421E-1,1.580295792E0
4.341781750E0,1.031620165E0,-1.384651949E0,-1.895971370E-1,1.737080383E0
4.351805750E0,1.083979642E0,-1.324069240E0,-1.138113749E-1,1.714970625E0
4.361828750E0,1.068209701E0,-1.253105677E0,3.393139243E-2,1.646966042E0
4.371852750E0,1.069942231E0,-1.153465321E0,3.171228638E-1,1.604937861E0
4.381876750E0,8.883049089E-1,-1.014812051E0,6.129042676E-1,1.481411742E0
4.391900750E0,6.847662556E-1,-9.058500642E-1,8.760701948E-1,1.434213425E0
4.401923750E0,5.756501949E-1,-9.198173082E-1,1.024034572E0,1.492006646E0
4.411947750E0,4.523061043E-1,-1.020419823E0,9.593304527E-1,1.471785427E0
4.421971750E0,3.010000437E-1,-1.104965883E0,9.562820068E-1,1.491987234E0
4.431994750E0,2.022294617E-1,-1.194812737E0,7.962796748E-1,1.450012260E0
4.442018750E0,6.513330460E-2,-1.170785359E0,5.958268896E-1,1.315290989E0
4.452042750E0,-1.654943293E-1,-1.083266574E0,3.205472857E-1,1.141755405E0
4.462065750E0,-4.662827039E-1,-8.996911919E-1,3.440092385E-2,1.013926637E0
4.472089750E0,-7.389167351E-1,-7.126630291E-1,-1.614334381E-1,1.039205124E0
4.482113750E0,-9.794021899E-1,-4.783598354E-1,-2.805526230E-1,1.125507244E0
4.492137750E0,-1.152133033E0,-2.616874588E-1,-2.939819232E-1,1.217504096E0
4.502160750E0,-1.243851873E0,-1.104173586E-1,-2.682106125E-1,1.277222145E0
4.512184750E0,-1.223122324E0,-1.452974617E-2,-2.279636425E-1,1.244269567E0
4.522208750E0,-1.086538383E0,-9.094759226E-3,-1.882958391E-1,1.102770917E0
4.532231750E0,-9.282758904E-1,2.048659712E-2,-1.066836190E-1,9.346107339E-1
4.542255750E0,-8.564258891E-1,8.033051044E-2,-1.837195158E-3,8.601869970E-1
4.552279750E0,-9.020411879E-1,2.180292231E-1,7.181871861E-2,9.307915852E-1
4.562302750E0,-1.073569259E0,3.861053905E-1,5.163676143E-2,1.142057215E0
4.572326750E0,-1.290386939E0,4.850736085E-1,3.921347469E-2,1.379105708E0
4.582350750E0,-1.394990119E0,4.951606402E-1,-9.473366439E-3,1.480294307E0
4.592374750E0,-1.459783115E0,4.270926180E-1,-1.046122429E-1,1.524571602E0
4.602397750E0,-1.470056089E0,3.173228386E-1,-1.816832229E-1,1.514848996E0
4.612421750E0,-1.413826339E0,2.196795997E-1,-2.621385714E-1,1.454606708E0
4.622445750E0,-1.292518249E0,1.126609352E-1,-3.396650496E-1,1.341144383E0
4.632468750E0,-1.106877338E0,-1.496594846E-3,-3.365645635E-1,1.156916327E0
4.642492750E0,-9.557297373E-1,-1.097031212E-1,-2.638535598E-1,9.975333611E-1
4.652516750E0,-8.565194446E-1,-1.712988603E-1,-6.533357173E-2,8.759208492E-1
4.662540750E0,-8.050651163E-1,-1.720794636E-1,8.376838088E-2,8.275012537E-1
4.672563750E0,-8.214653867E-1,-1.067374134E-1,2.110388768E-1,8.548307812E-1
4.682587750E0,-8.577596390E-1,-7.408919245E-2,3.382658109E-1,9.250213866E-1
4.692611750E0,-8.317406988E-1,-6.294206053E-2,4.027372107E-1,9.262567430E-1
4.702634750E0,-7.469835538E-1,-6.019913167E-2,4.137250060E-1,8.560237997E-1
4.712658750E0,-5.991729587E-1,-6.249357909E-2,4.427046838E-1,7.475968961E-1
4.722682750E0,-4.819240057E-1,-6.598992169E-2,4.914403492E-1,6.914615202E-1
4.732705750E0,-4.302387124E-1,-3.021256328E-3,5.034651482E-1,6.622625107E-1
4.742729750E0,-3.825803965E-1,6.994877905E-2,5.785433972E-1,6.971176758E-1
4.752753750E0,-2.809148580E-1,1.048540252E-1,6.553170463E-1,7.206580016E-1
4.762777750E0,-1.794492942E-1,1.831239769E-1,6.244209436E-1,6.750095961E-1
4.772800750E0,-1.967833650E-1,2.989201891E-1,5.111086285E-1,6.239463137E-1
4.782824750E0,-2.586352122E-1,3.971928808E-1,4.088355643E-1,6.259399940E-1
4.792848750E0,-2.552104980E-1,5.148254111E-1,3.163747126E-1,6.559501208E-1
4.802871750E0,-2.601987576E-1,5.928778464E-1,2.092563531E-1,6.804379145E-1
4.812895750E0,-2.252692455E-1,5.908190417E-1,1.619129097E-1,6.527090955E-1
4.822919750E0,-1.863443309E-1,5.279220048E-1,1.755413076E-1,5.867202088E-1
4.832942750E0,-8.452150226E-2,3.742098150E-1,1.901935530E-1,4.281944156E-1
4.842966750E0,1.098405308E-1,1.664825088E-1,1.868954310E-1,2.733336241E-1
4.852990750E0,2.997382146E-1,-9.374840856E-3,1.988424620E-1,3.598183009E-1
4.863014750E0,4.709142834E-1,-2.048700643E-1,2.412148950E-1,5.673769744E-1
4.873037750E0,6.290229946E-1,-3.356790027E-1,2.630445975E-1,7.599623549E-1
4.883061750E0,7.981624782E-1,-3.841474503E-1,2.574523205E-1,9.224501626E-1
4.893085750E0,9.569863039E-1,-3.594745392E-1,2.712795237E-1,1.057656518E0
4.903108750E0,1.077355916E0,-2.724214849E-1,2.420718044E-1,1.137324929E0
4.913132750E0,1.262426723E0,-2.019473335E-1,2.497521222E-1,1.302643497E0
4.923156750E0,1.510593665E0,-2.102112034E-1,3.129073137E-1,1.556917775E0
4.933179750E0,1.736128959E0,-3.907205978E-1,4.683850703E-1,1.840160570E0
4.943203750E0,1.912801411E0,-6.122949877E-1,7.321561843E-1,2.137701351E0
4.953227750E0,2.088883878E0,-7.631934974E-1,1.001290072E0,2.438951000E0
4.963251750E0,2.169415240E0,-1.005633969E0,1.174375842E0,2.663985882E0
4.973274750E0,2.163111357E0,-1.229398433E0,1.349788511E0,2.830618355E0
4.983302667E0,2.032479882E0,-1.173063726E0,1.272045978E0,2.669298399E0
4.993326667E0,1.724343896E0,-1.327202178E0,1.238601658E0,2.503789440E0
5.003349667E0,1.362058015E0,-1.308487872E0,1.209768453E0,2.242962831E0
5.013373667E0,9.415894157E-1,-1.177772782E0,1.008304100E0,1.813950526E0
5.023397667E0,5.438296473E-1,-1.164149354E0,7.734995073E-1,1.499765279E0
5.033420667E0,2.317204785E-1,-1.055142344E0,5.245522544E-1,1.200905830E0
5.043444667E0,-3.350513041E-2,-8.989257914E-1,2.373121709E-1,9.303264151E-1
5.053468667E0,-2.829303932E-1,-6.313408309E-1,-3.706988543E-2,6.928311689E-1
5.063492667E0,-5.383332646E-1,-3.113937619E-1,-2.794074458E-1,6.817897766E-1
5.073515667E0,-7.580599344E-1,2.699279398E-2,-3.791863802E-1,8.480364296E-1
5.083539667E0,-8.752738041E-1,2.647440907E-1,-5.053450280E-1,1.044780964E0
5.093563667E0,-8.702212250E-1,3.807712680E-1,-5.214681405E-1,1.083605445E0
5.103586667E0,-7.503579819E-1,3.701626647E-1,-4.778134131E-1,9.635160388E-1
5.113610667E0,-4.879331893E-1,2.540220514E-1,-4.435472676E-1,7.066400628E-1
5.123634667E0,-8.912443042E-2,-3.232282341E-2,-3.341859162E-1,3.473732223E-1
5.133657667E0,2.061318934E-1,-3.535483861E-1,-1.615600303E-1,4.399868886E-1
5.143681667E0,3.587296039E-1,-5.809422174E-1,-1.815268099E-2,6.830155990E-1
5.153705667E0,4.166275638E-1,-7.699084398E-1,4.177016973E-2,8.764030350E-1
5.163728667E0,3.775991535E-1,-8.642190582E-1,3.520900905E-2,9.437665895E-1
5.173752667E0,2.731386459E-1,-9.166943103E-1,-3.903542697E-2,9.573175769E-1
5.183776667E0,1.386176026E-1,-9.580414340E-1,-9.545988858E-2,9.727131228E-1
5.193800667E0,5.097017884E-3,-1.014089920E0,-2.785701245E-1,1.051668036E0
5.203823667E0,-1.941831082E-1,-9.769668245E-1,-6.011759225E-1,1.163436180E0
5.213847667E0,-4.198850477E-1,-8.992792556E-1,-8.913223645E-1,1.333964838E0
5.223871667E0,-5.660508209E-1,-8.198840073E-1,-1.125102232E0,1.502823460E0
5.233894667E0,-7.469098788E-1,-7.583639896E-1,-1.288906716E0,1.671607260E0
5.243918667E0,-9.309667790E-1,-6.238420692E-1,-1.353787129E0,1.757446347E0
5.253942667E0,-1.074092585E0,-4.496073219E-1,-1.298383884E0,1.744024751E0
5.263965667E0,-1.196514570E0,-3.135323811E-1,-1.160127054E0,1.695831492E0
5.273989667E0,-1.240109655E0,-1.898795575E-1,-9.883104229E-1,1.597086001E0
5.284013667E0,-1.180299656E0,-6.828524619E-2,-7.942123917E-1,1.424269453E0
5.294037667E0,-1.076439072E0,2.794442832E-2,-6.489959139E-1,1.257257994E0
5.304060667E0,-1.029140360E0,1.480143705E-1,-6.237894443E-1,1.212498002E0
5.314084667E0,-1.067762974E0,2.408471051E-1,-7.148370239E-1,1.307332042E0
5.324108667E0,-1.109937771E0,3.633994827E-1,-7.751168472E-1,1.401722928E0
5.334131667E0,-1.076541983E0,5.185310841E-1,-8.112789524E-1,1.444295907E0
5.344155667E0,-1.017125502E0,5.600425145E-1,-8.163446876E-1,1.419369773E0
5.354179667E0,-9.636807811E-1,5.250214934E-1,-7.443929449E-1,1.326065260E0
5.364202667E0,-9.284828818E-1,4.600954726E-1,-6.651254582E-1,1.231324564E0
5.374226667E0,-8.808222270E-1,3.847374344E-1,-5.063697526E-1,1.086407389E0
5.384250667E0,-8.985381210E-1,3.297300455E-1,-3.582463315E-1,1.021975094E0
5.394273667E0,-9.876988041E-1,3.255943099E-1,-2.952440447E-1,1.081077994E0
5.404297667E0,-9.973437864E-1,3.320186457E-1,-2.840907732E-1,1.088870321E0
5.414321667E0,-9.550181311E-1,2.779444724E-1,-1.791697973E-1,1.010650571E0
5.424345667E0,-9.258101195E-1,2.558346882E-1,-1.434085187E-1,9.711548632E-1
5.434368667E0,-9.250067121E-1,2.709093949E-1,-2.578569478E-1,9.977572466E-1
5.444392667E0,-9.102483398E-1,2.481932545E-1,-3.124807593E-1,9.938793471E-1
5.454416667E0,-8.264647561E-1,2.615313381E-1,-3.135236102E-1,9.218132610E-1
5.464439667E0,-7.567589289E-1,2.976984134E-1,-3.423419049E-1,8.823300979E-1
5.474463667E0,-6.613423097E-1,3.764969534E-1,-3.404132009E-1,8.336694512E-1
5.484487667E0,-5.211558992E-1,5.329754609E-1,-3.520655322E-1,8.243885323E-1
5.494510667E0,-4.537111902E-1,7.146504977E-1,-3.366271287E-1,9.109868286E-1
5.504534667E0,-4.095986259E-1,8.483725190E-1,-3.026267391E-1,9.894897213E-1
5.514558667E0,-3.207028216E-1,9.666540903E-1,-2.133976436E-1,1.040581080E0
5.524581667E0,-2.227145970E-1,1.022617207E0,-8.603476167E-2,1.050118909E0
5.534605667E0,-1.405810976E-1,1.049782493E0,1.315886647E-2,1.059235330E0
5.544629667E0,-2.183876574E-2,1.098273745E0,4.338137001E-2,1.099347122E0
5.554653667E0,8.411278188E-2,1.082787395E0,-4.071094662E-2,1.086812257E0
5.564676667E0,2.011471421E-1,1.065630202E0,-1.162023014E-1,1.090656167E0
5.574700667E0,3.502721912E-1,1.025044678E0,-1.041479740E-1,1.088234350E0
5.584724667E0,5.165015155E-1,9.413479257E-1,-4.927594811E-2,1.074866434E0
5.594747667E0,6.762784374E-1,8.275751424E-1,3.115308791E-2,1.069207022E0
5.604771667E0,7.908978975E-1,6.248977840E-1,1.871261036E-1,1.025198958E0
5.614795667E0,8.601815557E-1,4.431493646E-1,3.063806516E-1,1.014969345E0
5.624818667E0,8.727489763E-1,2.374481186E-1,4.444050542E-1,1.007754056E0
5.634842667E0,8.753071332E-1,5.816225410E-3,5.532962894E-1,1.035535219E0
5.644866667E0,9.181233698E-1,-1.513575161E-1,4.656377560E-1,1.040518207E0
5.654889667E0,8.260484344E-1,-2.853438315E-1,3.527329919E-1,9.424424023E-1
5.664913667E0,5.136591840E-1,-3.454347897E-1,2.431611407E-1,6.650551041E-1
5.674937667E0,1.553663671E-1,-4.027807724E-1,1.170679817E-1,4.472985256E-1
5.684960667E0,2.787893951E-2,-5.351324987E-1,6.950351357E-2,5.403468931E-1
5.694984667E0,2.227631289E-1,-7.654312268E-1,5.208056509E-2,7.988872009E-1
5.705008667E0,5.366972136E-1,-9.457201812E-1,-1.413242787E-2,1.087488062E0
5.715031667E0,7.617764246E-1,-1.040078747E0,-9.706114858E-2,1.292860390E0
5.725055667E0,8.973815417E-1,-9.921985289E-1,-2.016131651E-1,1.352922548E0
5.735079667E0,9.922455990E-1,-7.098806316E-1,-3.997507453E-1,1.283854547E0
5.745103667E0,1.005388386E0,-4.301197216E-1,-5.011768404E-1,1.202907730E0
5.755126667E0,9.459298038E-1,-3.017502415E-1,-4.606459880E-1,1.094546083E0
5.765150667E0,9.611460131E-1,-1.722344148E-1,-4.123436013E-1,1.059949809E0
5.775174667E0,1.120076258E0,-1.941480249E-2,-3.613210899E-1,1.177072933E0
5.785197667E0,1.282796084E0,1.001973027E-1,-2.837414020E-1,1.317616968E0
5.795221667E0,1.233078378E0,2.595959097E-1,-2.065569860E-1,1.276925257E0
5.805245667E0,8.805029690E-1,4.501315248E-1,-2.211680084E-2,9.891375137E-1
5.815268667E0,4.674234957E-1,5.259190410E-1,2.037050065E-1,7.325102673E-1
5.825292667E0,2.439557773E-1,4.379579142E-1,3.292619759E-1,5.997791299E-1
5.835316667E0,2.563243926E-1,7.994781017E-2,4.002769947E-1,4.819912023E-1
5.845339667E0,4.500987804E-1,-4.299846509E-1,3.103403860E-1,6.955478900E-1
5.855363667E0,7.349113923E-1,-8.716777664E-1,1.336205721E-1,1.147942220E0
5.865387667E0,9.097729611E-1,-1.260031411E0,1.781646609E-2,1.554246900E0
5.875410667E0,8.975663137E-1,-1.515253604E0,1.712327868E-2,1.761224568E0
5.885434667E0,7.699461544E-1,-1.647192224E0,6.233131886E-2,1.819325286E0
5.895458667E0,5.245887995E-1,-1.653147029E0,1.613480687E-1,1.741873045E0
5.905481667E0,2.266848564E-1,-1.606295629E0,2.252826941E-1,1.637780194E0
5.915505667E0,-9.601128101E-3,-1.532788526E0,1.807973698E-1,1.543444375E0
5.925529667E0,-1.754316723E-1,-1.521158707E0,3.901379228E-2,1.531738280E0
5.935553667E0,-3.083499938E-1,-1.531424663E0,-1.133804351E-1,1.566268285E0
5.945576667E0,-4.650547886E-1,-1.513565513E0,-2.576748070E-1,1.604229667E0
5.955600667E0,-7.518051678E-1,-1.449226552E0,-3.310974169E-1,1.665861372E0
5.965624667E0,-1.043749044E0,-1.399169708E0,-3.365265566E-1,1.777733969E0
5.975647667E0,-1.210449069E0,-1.302558503E0,-3.582045239E-1,1.813878740E0
5.985671542E0,-1.359996872E0,-1.061384539E0,-3.707245821E-1,1.764529781E0
5.995695542E0,-1.504713705E0,-8.308443207E-1,-4.366583705E-1,1.773453172E0
6.005718542E0,-1.593290836E0,-5.433352652E-1,-5.697050384E-1,1.777175492E0
6.015742542E0,-1.671497346E0,-2.947806528E-1,-7.126750159E-1,1.840843472E0
6.025766542E0,-1.701136882E0,-1.103205872E-1,-8.094081357E-1,1.887108596E0
6.035789542E0,-1.627709886E0,5.065793753E-2,-9.324613273E-1,1.876563302E0
6.045813542E0,-1.590115213E0,1.597567490E-1,-9.987073570E-1,1.884517178E0
6.055837542E0,-1.569655221E0,2.574622607E-1,-1.080753441E0,1.923052867E0
6.065860542E0,-1.418166727E0,4.504911286E-1,-1.023013940E0,1.805739916E0
6.075884542E0,-1.266461302E0,5.226434308E-1,-1.086514117E0,1.748597527E0
6.085908542E0,-1.149541547E0,5.943150920E-1,-8.869863617E-1,1.568885274E0
6.095931542E0,-9.405094349E-1,7.164099249E-1,-8.604116437E-1,1.462227538E0
6.105955542E0,-7.089544326E-1,8.627832744E-1,-5.905117705E-1,1.263216338E0
6.115979542E0,-6.022222817E-1,8.236192086E-1,-2.843232000E-1,1.059178908E0
6.126002542E0,-5.650106013E-1,8.276426777E-1,-4.563459456E-2,1.003150985E0
6.136026542E0,-4.381961882E-1,7.983642071E-1,1.448475185E-1,9.221616508E-1
6.146050542E0,-2.396633363E-1,7.692114517E-1,2.582492959E-1,8.460599689E-1
6.156074542E0,-1.388766342E-1,7.934990314E-1,2.460137048E-1,8.422886532E-1
6.166097542E0,-4.941949725E-2,7.456033185E-1,1.716938397E-1,7.667107472E-1
6.176121542E0,7.282356262E-2,6.534675720E-1,2.579010943E-1,7.062833096E-1
6.186145542E0,1.125951540E-1,6.420467904E-1,3.409564072E-1,7.356310362E-1
6.196168542E0,1.667444640E-1,7.302847829E-1,3.444238061E-1,8.244679125E-1
6.206192542E0,2.666616851E-1,8.074642289E-1,3.512267491E-1,9.200365017E-1
6.216216542E0,3.380509257E-1,1.020799600E0,3.115773645E-1,1.119549331E0
6.226239542E0,4.109657049E-1,1.225163880E0,2.798263988E-1,1.322203523E0
6.236263542E0,5.225019282E-1,1.340548156E0,3.253782552E-1,1.475109702E0
6.246287542E0,6.641285080E-1,1.408351299E0,3.660897866E-1,1.599544244E0
6.256310542E0,8.254900253E-1,1.422326437E0,4.797622901E-1,1.713072716E0
6.266334542E0,9.310293442E-1,1.394672615E0,4.698685089E-1,1.741465980E0
6.276358542E0,1.016693392E0,1.440084431E0,3.962520638E-1,1.806799469E0
6.286381542E0,1.059614879E0,1.478003039E0,3.982585359E-1,1.861689162E0
6.296405542E0,1.043790559E0,1.469785070E0,4.504583842E-1,1.858138757E0
6.306429542E0,9.909609658E-1,1.471000999E0,5.042808348E-1,1.843948680E0
6.316452542E0,9.519483429E-1,1.433062802E0,5.084487301E-1,1.793988504E0
6.326476542E0,1.005106550E0,1.320193998E0,5.017013356E-1,1.733451932E0
6.336500542E0,1.055328870E0,1.147464616E0,5.186158687E-1,1.642971846E0
6.346523542E0,1.049158888E0,9.786943844E-1,4.458624727E-1,1.502454796E0
6.356547542E0,1.130697725E0,8.242305350E-1,3.888337013E-1,1.452248246E0
6.366571542E0,1.101618937E0,6.311747700E-1,2.619412279E-1,1.296363792E0
6.376594542E0,9.864966166E-1,5.100894588E-1,1.685199711E-1,1.123283495E0
6.386618542E0,8.741195637E-1,3.884758517E-1,1.572275358E-1,9.693910444E-1
6.396642542E0,6.518376607E-1,3.260501003E-1,1.497261429E-1,7.440557248E-1
6.406665542E0,5.190737057E-1,2.941181633E-1,1.129848710E-1,6.072137902E-1
6.416689542E0,4.202504987E-1,2.278537148E-1,8.032554030E-2,4.847473459E-1
6.426713542E0,3.521216655E-1,1.961255533E-1,3.350016028E-2,4.044467340E-1
6.436736542E0,3.599329609E-1,1.129801932E-1,-9.367122531E-2,3.887036903E-1
6.446760542E0,5.312633961E-1,-1.081866458E-1,-7.977151662E-2,5.480042347E-1
6.456784542E0,7.880315924E-1,-3.330664667E-1,8.014544606E-2,8.592731547E-1
6.466807542E0,9.369964278E-1,-4.200063774E-1,2.349282610E-1,1.053356042E0
6.476831542E0,9.710780936E-1,-4.323711920E-1,3.871785007E-1,1.131302216E0
6.486855542E0,9.060827833E-1,-4.169839516E-1,5.418882255E-1,1.135123110E0
6.496878542E0,8.240410852E-1,-4.246148604E-1,6.374722213E-1,1.125038809E0
6.506902542E0,8.546799105E-1,-5.738352191E-1,8.004978561E-1,1.304055760E0
6.516926542E0,1.001837956E0,-7.494487399E-1,9.550222242E-1,1.573982259E0
6.526950542E0,1.184886796E0,-8.434608579E-1,9.288313758E-1,1.725720332E0
6.536973542E0,1.373241400E0,-9.343821377E-1,9.248160928E-1,1.901090931E0
6.546997542E0,1.410602769E0,-9.336871961E-1,1.018315995E0,1.974471934E0
6.557020542E0,1.294057821E0,-7.113240167E-1,1.037897735E0,1.804937453E0
6.567044542E0,1.049215021E0,-4.417802390E-1,9.562653422E-1,1.486763379E0
6.577068542E0,5.869622183E-1,-1.806821796E-1,8.024379623E-1,1.010483735E0
6.587092542E0,6.088998020E-2,-2.247991294E-2,5.226285204E-1,5.266436238E-1
6.597115542E0,-4.621025294E-1,2.401539177E-2,1.941538721E-1,5.018079441E-1
6.607139542E0,-7.877784079E-1,-1.049180523E-1,-4.236424685E-2,7.958626434E-1
6.617163542E0,-8.851561832E-1,-4.065835091E-1,-1.195895934E-1,9.813833550E-1
6.627186542E0,-9.481336194E-1,-7.425744608E-1,-1.547798914E-1,1.214220328E0
6.637210542E0,-9.744764954E-1,-1.033172600E0,-1.222205481E-1,1.425478139E0
6.647234542E0,-9.441078115E-1,-1.366110721E0,1.540741324E-2,1.660673192E0
6.657257542E0,-8.581215817E-1,-1.675896498E0,1.530342051E-1,1.889026519E0
6.667281542E0,-7.587920058E-1,-1.908661874E0,1.899479699E-1,2.062725306E0
6.677305542E0,-7.290086281E-1,-2.100130705E0,1.237805852E-1,2.226504927E0
6.687328542E0,-7.580306983E-1,-2.177995152E0,-2.677586228E-3,2.306139760E0
6.697352542E0,-7.079650837E-1,-2.188048855E0,-2.110564184E-1,2.309397576E0
6.707376542E0,-7.178269976E-1,-2.195219588E0,-5.242446908E-1,2.368353253E0
6.717399542E0,-7.964773107E-1,-2.080110716E0,-8.715280777E-1,2.391818949E0
6.727423542E0,-8.242568475E-1,-1.919749657E0,-1.134208394E0,2.377239318E0
6.737447542E0,-8.548190743E-1,-1.724884763E0,-1.350903282E0,2.351782893E0
6.747470542E0,-1.072086405E0,-1.520226953E0,-1.359058101E0,2.303800810E0
6.757494542E0,-1.332038995E0,-1.335761040E0,-1.355639088E0,2.323002966E0
6.767518542E0,-1.475103405E0,-1.211907072E0,-1.414902519E0,2.376257130E0
6.777541542E0,-1.623738458E0,-1.082252667E0,-1.402695726E0,2.403196353E0
6.787565542E0,-1.687925683E0,-8.518115589E-1,-1.393151754E0,2.348520354E0
6.797589542E0,-1.704554579E0,-6.364434037E-1,-1.409077523E0,2.301318315E0
6.807612542E0,-1.697961844E0,-4.407645777E-1,-1.398040319E0,2.243181796E0
6.817636542E0,-1.589541017E0,-2.320300886E-1,-1.298294860E0,2.065441393E0
6.827660542E0,-1.387538427E0,-2.864901781E-2,-1.106392166E0,1.774876693E0
6.837683542E0,-1.198400881E0,1.240565738E-1,-8.240019089E-1,1.459634835E0
6.847707542E0,-9.176532537E-1,1.660433829E-1,-5.110869938E-1,1.063422688E0
6.857731542E0,-6.076882589E-1,1.784005961E-1,-2.194800635E-1,6.702859770E-1
6.867754542E0,-4.247873533E-1,1.664623359E-1,1.585297108E-2,4.565143168E-1
6.877778542E0,-4.839939201E-1,1.917837033E-1,5.581167340E-2,5.235895782E-1
6.887802542E0,-6.068293029E-1,2.827345115E-1,-2.056538835E-2,6.697787262E-1
6.897825542E0,-7.618202788E-1,3.776471007E-1,-1.428406079E-1,8.622011999E-1
6.907849542E0,-8.957577699E-1,5.151858920E-1,-3.241439080E-1,1.082990193E0
6.917873542E0,-9.732327926E-1,6.604465163E-1,-5.210812010E-1,1.286428112E0
6.927896542E0,-9.945646048E-1,6.977002966E-1,-6.167952973E-1,1.362490696E0
6.937920542E0,-9.833285952E-1,6.809848613E-1,-6.894681479E-1,1.380594739E0
6.947944542E0,-9.683234704E-1,6.632680902E-1,-7.411930561E-1,1.388143382E0
6.957967542E0,-9.445907915E-1,6.219452325E-1,-7.830493261E-1,1.375584924E0
6.967991542E0,-9.041426772E-1,5.971925068E-1,-8.072825266E-1,1.351228311E0
6.978015542E0,-7.927345079E-1,6.072824621E-1,-7.431366706E-1,1.244777932E0
6.988034542E0,-5.286450130E-1,6.443356830E-1,-6.456173927E-1,1.054256060E0
6.998058542E0,-2.238413554E-1,7.335606855E-1,-5.090663423E-1,9.205241836E-1
7.008082542E0,-3.469796240E-2,9.124366602E-1,-4.181047167E-1,1.004268969E0
7.018105542E0,1.279242146E-1,1.084066473E0,-3.107988077E-1,1.134971639E0
7.028129542E0,3.215559304E-1,1.172886263E0,-1.289311051E-1,1.222981453E0
7.038153542E0,7.032972515E-1,1.154512265E0,1.072999156E-1,1.356111672E0
7.048176542E0,1.218572606E0,9.884063172E-1,4.300972098E-1,1.626914212E0
7.058200542E0,1.700994210E0,8.237691897E-1,7.149571842E-1,2.020678291E0
7.068224542E0,2.051709035E0,9.427837095E-1,7.781544757E-1,2.388278768E0
7.078247542E0,2.135320126E0,1.490939419E0,5.183800797E-1,2.655411512E0
7.088271542E0,2.052959170E0,2.242632321E0,1.501442188E-1,3.044106497E0
7.098295542E0,1.701098875E0,2.886144131E0,3.588611662E-2,3.350351196E0
7.108318542E0,1.537097340E0,3.210457900E0,1.656796861E-1,3.563307161E0
7.118342542E0,1.653253448E0,3.235460010E0,2.100360793E-1,3.639445506E0
7.128366542E0,1.508071761E0,3.172457431E0,4.099892199E-1,3.536503605E0
7.138389542E0,1.081146666E0,2.976432742E0,7.813300985E-1,3.261672378E0
7.148413542E0,8.378066003E-1,2.683534892E0,7.809544149E-1,2.917733575E0
7.158437542E0,8.371131206E-1,2.411243508E0,5.941475692E-1,2.620661170E0
7.168460542E0,8.096154195E-1,1.958170249E0,4.810140328E-1,2.172851203E0
7.178484542E0,6.319214594E-1,1.372594406E0,2.910387272E-1,1.538844916E0
7.188508542E0,3.676887077E-1,8.574292713E-1,-2.061318934E-2,9.331692476E-1
7.198531542E0,2.223035377E-1,1.778354627E-1,-2.190457615E-1,3.592010027E-1
7.208555542E0,2.003881735E-1,-3.524090561E-1,-1.744814998E-1,4.413517380E-1
7.218579542E0,3.339567053E-1,-6.715027240E-1,-3.647272392E-1,8.339478091E-1
7.228602542E0,5.150595921E-1,-8.752773124E-1,-1.804978462E-1,1.031492234E0
7.238626542E0,5.814459550E-1,-8.871389741E-1,-3.657988876E-2,1.061335501E0
7.248649542E0,6.459781659E-1,-6.687159410E-1,1.473362397E-1,9.413696235E-1
7.258673542E0,7.482091302E-1,-6.713015798E-1,5.260201979E-1,1.134530723E0
7.268697542E0,8.003937757E-1,-8.061585456E-1,9.185595721E-1,1.460915290E0
7.278721542E0,9.645221955E-1,-9.533198074E-1,1.164309568E0,1.787383140E0
7.288744542E0,1.193087516E0,-1.189720690E0,1.119218179E0,2.022756158E0
7.298768542E0,1.411303850E0,-1.324329441E0,8.633143477E-1,2.119183496E0
7.308791542E0,1.455146273E0,-1.461109264E0,6.617393357E-1,2.165684628E0
7.318815542E0,1.246510602E0,-1.606642953E0,4.021568745E-1,2.072877327E0
7.328839542E0,1.084248614E0,-1.742227020E0,2.015748659E-1,2.061936583E0
7.338862542E0,9.834361839E-1,-1.881560322E0,1.526094049E-1,2.128545420E0
7.348886542E0,7.451691628E-1,-1.941581698E0,1.070686582E-1,2.082421732E0
7.358910542E0,5.144742858E-1,-1.915590532E0,1.510341650E-1,1.989216478E0
7.368933542E0,3.865097255E-1,-1.919918641E0,7.512970448E-2,1.959878014E0
7.378957542E0,2.175637847E-1,-1.863157673E0,-1.171746933E-1,1.879473443E0
7.388981542E0,-7.594948411E-3,-1.712092517E0,-3.512960386E-1,1.747777840E0
7.399004542E0,-1.961471879E-1,-1.519143464E0,-5.685431966E-1,1.633864116E0
7.409028542E0,-4.064668572E-1,-1.368479135E0,-8.087105629E-1,1.640720337E0
7.419052542E0,-5.264324266E-1,-1.274687750E0,-9.694306406E-1,1.685750790E0
7.429075542E0,-6.281365567E-1,-1.194209597E0,-9.787221587E-1,1.666910063E0
7.439099542E0,-8.555827206E-1,-1.009848642E0,-9.534715426E-1,1.631233905E0
7.449123542E0,-1.059618972E0,-8.817171434E-1,-8.412471020E-1,1.614903766E0
7.459146542E0,-1.113342605E0,-7.589530966E-1,-6.727341476E-1,1.506025495E0
7.469170542E0,-1.072913201E0,-5.855012915E-1,-5.152203906E-1,1.326426233E0
7.479194542E0,-9.890050721E-1,-3.991470203E-1,-4.104371166E-1,1.142763319E0
7.489217542E0,-8.004773909E-1,-2.232347068E-1,-2.997817764E-1,8.834403778E-1
7.499241542E0,-7.033837903E-1,-1.608101249E-2,-2.281846672E-1,7.396455893E-1
7.509265542E0,-7.654572469E-1,2.607855257E-1,-2.460941041E-1,8.452787678E-1
7.519288542E0,-8.458979774E-1,5.159550932E-1,-2.633495298E-1,1.025234618E0
7.529312542E0,-8.980814534E-1,6.787553179E-1,-4.257986292E-1,1.203562857E0
7.539336542E0,-8.715701777E-1,7.520621529E-1,-5.482545277E-1,1.275074540E0
7.549359542E0,-9.114856106E-1,6.858254787E-1,-6.176565921E-1,1.297174727E0
7.559383542E0,-1.056954396E0,6.161740306E-1,-6.646027172E-1,1.392307366E0
7.569407542E0,-1.054477515E0,5.259482771E-1,-6.130086404E-1,1.328278590E0
7.579430542E0,-9.132321739E-1,3.737502238E-1,-5.305026734E-1,1.120319294E0
7.589454542E0,-8.907367659E-1,3.393209410E-1,-4.782531238E-1,1.066431778E0
7.599478542E0,-1.034668903E0,2.814960712E-1,-3.487212172E-1,1.127557654E0
7.609501542E0,-1.074082060E0,2.289775497E-1,-1.873482978E-1,1.114083648E0
7.619525542E0,-1.131412255E0,2.074890321E-1,-9.113499552E-2,1.153885166E0
7.629549542E0,-1.262767031E0,2.416145521E-1,-6.014387548E-2,1.287080204E0
7.639572542E0,-1.279678348E0,3.138960779E-1,-9.147881180E-2,1.320786052E0
7.649596542E0,-1.183964106E0,3.853326809E-1,-1.595950735E-1,1.255278004E0
7.659619542E0,-1.095806805E0,4.371767262E-1,-1.742774320E-1,1.192597445E0
7.669643542E0,-9.565161878E-1,3.697364026E-1,-1.178518009E-1,1.032238961E0
7.679667542E0,-7.031504864E-1,2.616652393E-1,-3.519877642E-2,7.510847208E-1
7.689690542E0,-3.883744025E-1,1.898117298E-1,8.511938006E-2,4.405774372E-1
7.699714542E0,-2.129257733E-1,2.500848287E-1,1.677788365E-1,3.688218329E-1
7.709738542E0,-1.443513823E-1,3.165586075E-1,2.399296769E-1,4.226262219E-1
7.719761542E0,-5.812015414E-2,3.766431338E-1,3.439130518E-1,5.133363320E-1
7.729785542E0,-8.857537687E-2,4.178978714E-1,4.461691591E-1,6.176982652E-1
7.739809542E0,-9.356012821E-2,4.456610361E-1,4.706274775E-1,6.548721091E-1
7.749832542E0,-3.811273634E-2,4.988975957E-1,4.427146241E-1,6.680925311E-1
7.759856542E0,8.519744039E-2,5.536962390E-1,3.060087687E-1,6.383412061E-1
7.769880542E0,1.672607732E-1,5.807124218E-1,1.824763978E-1,6.312691335E-1
7.779903542E0,1.056901771E-1,6.284283328E-1,1.491399595E-1,6.544733077E-1
7.789927542E0,-4.028497696E-2,6.595624173E-1,1.280069527E-1,6.730759553E-1
7.799951542E0,-1.820273316E-1,6.585756996E-1,1.829242945E-1,7.073310393E-1
7.809974542E0,-2.294353867E-1,5.859354472E-1,2.953162578E-1,6.951062056E-1
7.819998542E0,-1.276148969E-1,4.439723602E-1,3.265029672E-1,5.656864910E-1
7.830022542E0,4.637719095E-2,1.470288223E-1,3.043665782E-1,3.411851877E-1
7.840045542E0,2.798003787E-1,-2.582925653E-1,2.592646649E-1,4.606750131E-1
7.850069542E0,5.585020655E-1,-6.444625676E-1,2.366499737E-1,8.850196429E-1
7.860093542E0,7.893185645E-1,-9.142294165E-1,1.188452429E-1,1.213657041E0
7.870116542E0,9.802015042E-1,-1.077007714E0,-8.392888695E-2,1.458692793E0
7.880140542E0,9.605870193E-1,-1.099252861E0,-2.044250911E-1,1.474067126E0
7.890164542E0,7.970556003E-1,-1.135981562E0,-2.680930835E-1,1.413373850E0
7.900187542E0,7.628815484E-1,-1.274641849E0,-1.785877070E-1,1.496193059E0
7.910211542E0,8.023058152E-1,-1.485209148E0,1.044838965E-2,1.688090638E0
7.920234542E0,7.359065884E-1,-1.660323024E0,4.023410618E-2,1.816548880E0
7.930258542E0,8.338837034E-1,-1.828029647E0,1.274470818E-1,2.013280204E0
7.940282542E0,1.224519809E0,-1.935033109E0,3.003381389E-1,2.309546469E0
7.950305542E0,1.459652138E0,-1.968217227E0,3.894809881E-1,2.481160788E0
7.960329542E0,1.372967166E0,-1.836985243E0,4.106897163E-1,2.329854001E0
7.970353542E0,1.079948571E0,-1.568064194E0,4.345188743E-1,1.952926236E0
7.980376250E0,8.939954191E-1,-1.288245104E0,3.929951647E-1,1.616554502E0
7.990400250E0,7.440698862E-1,-1.032681727E0,4.198783234E-1,1.340287040E0
8.000424250E0,7.107495278E-1,-9.685319236E-1,4.915417984E-1,1.298010908E0
8.010447250E0,8.382480651E-1,-9.597862431E-1,4.994976662E-1,1.368702805E0
8.020471250E0,9.313000703E-1,-9.536378959E-1,4.431346004E-1,1.404675525E0
8.030495250E0,8.377528059E-1,-7.796241733E-1,3.599854396E-1,1.199680429E0
8.040518250E0,6.459500992E-1,-5.079344675E-1,2.549175525E-1,8.603673126E-1
8.050542250E0,3.116495776E-1,-2.308281934E-1,7.169037223E-2,3.943939954E-1
8.060565250E0,-5.305763483E-3,1.621023595E-2,-1.846370901E-1,1.854232400E-1
8.070589250E0,-2.066253984E-1,2.315725440E-1,-4.641756597E-1,5.583716876E-1
8.080613250E0,-2.132730979E-1,3.039967418E-1,-6.185535550E-1,7.214623578E-1
8.090636250E0,-1.112111181E-1,1.734488815E-1,-6.597205845E-1,6.911466392E-1
8.100660250E0,1.943614483E-2,-2.995236218E-2,-6.675510295E-1,6.685052615E-1
8.110684250E0,2.166159511E-1,-2.397206390E-1,-5.254243666E-1,6.168137645E-1
8.120707250E0,4.366004831E-1,-4.821728048E-1,-2.810774106E-1,7.086008088E-1
8.130731250E0,6.329751277E-1,-6.596089026E-1,5.238038108E-2,9.156883318E-1
8.140755250E0,7.368263555E-1,-6.787173110E-1,3.487843671E-1,1.060764253E0
8.150778250E0,6.082636249E-1,-6.682700908E-1,4.565428506E-1,1.012423294E0
8.160802250E0,4.326968819E-1,-6.984300292E-1,4.524815208E-1,9.379608861E-1
8.170826250E0,2.391832799E-1,-7.326327324E-1,3.034956354E-1,8.282928001E-1
8.180849250E0,3.416878939E-2,-7.155793279E-1,3.040961444E-2,7.170397656E-1
8.190873250E0,-2.349364471E-1,-6.311627832E-1,-2.709617275E-1,7.259351561E-1
8.200897250E0,-5.575559860E-1,-4.875849876E-1,-5.875880165E-1,9.454456488E-1
8.210920250E0,-8.450670880E-1,-2.752070984E-1,-8.275576007E-1,1.214384170E0
8.220944250E0,-1.062904522E0,-8.047873735E-2,-1.004847811E0,1.464910227E0
8.230967250E0,-1.290661758E0,6.224361062E-2,-1.020131701E0,1.646314286E0
8.240991250E0,-1.524189611E0,2.246900788E-1,-1.028669367E0,1.852511881E0
8.251015250E0,-1.686127664E0,3.959488857E-1,-9.364938596E-1,1.968964898E0
8.261038250E0,-1.732682610E0,5.650296047E-1,-9.057005216E-1,2.035126757E0
8.271062250E0,-1.734325678E0,7.173171204E-1,-9.392174926E-1,2.098704102E0
8.281086250E0,-1.797351061E0,8.109985784E-1,-8.260838100E-1,2.137897096E0
8.291109250E0,-1.719208286E0,8.316643927E-1,-9.402080110E-1,2.128693002E0
8.301133250E0,-1.562357311E0,8.942605904E-1,-9.109812883E-1,2.017560229E0
8.311157250E0,-1.406937734E0,8.614898703E-1,-8.472176939E-1,1.854566366E0
8.321180250E0,-1.182116386E0,9.602373558E-1,-8.945620143E-1,1.766266154E0
8.331204250E0,-8.923014808E-1,1.054231932E0,-9.067069736E-1,1.652187772E0
8.341228250E0,-6.424756837E-1,1.169381735E0,-9.008249670E-1,1.609880203E0
8.351251250E0,-4.701418662E-1,1.261686758E0,-8.417213112E-1,1.587885895E0
8.361275250E0,-3.565076619E-1,1.187618323E0,-8.443958277E-1,1.500179759E0
8.371299250E0,-4.081531942E-1,1.218383741E0,-8.725185961E-1,1.553169878E0
8.381322250E0,-4.009213579E-1,1.266341726E0,-1.010165122E0,1.668769870E0
8.391346250E0,-2.305200452E-1,1.166326857E0,-1.192117171E0,1.683627387E0
8.401369250E0,-1.348777235E-1,1.078920923E0,-1.171680860E0,1.598467515E0
8.411393250E0,-2.482365239E-1,1.074896869E0,-1.187360753E0,1.620756061E0
8.421417250E0,-3.075734836E-1,1.065490161E0,-1.091350934E0,1.555929816E0
8.431440250E0,-2.657243764E-1,1.005909665E0,-8.068876934E-1,1.316636415E0
8.441464250E0,-2.980594790E-1,9.874421114E-1,-4.456844249E-1,1.123617365E0
8.451488250E0,-3.729079324E-1,1.021110379E0,-1.156212343E-1,1.093204008E0
8.461511250E0,-4.170386231E-1,1.023555685E0,2.163896638E-1,1.126237959E0
8.471535250E0,-4.730970490E-1,1.014721711E0,2.893015194E-1,1.156363411E0
8.481559250E0,-5.411522073E-1,1.037261851E0,9.309205860E-2,1.173637077E0
8.491582250E0,-5.749035054E-1,1.053544884E0,5.278223097E-2,1.201356245E0
8.501606250E0,-4.950615299E-1,9.963430354E-1,7.929862306E-2,1.115380489E0
8.511630250E0,-3.193942147E-1,9.212574774E-1,1.804351348E-1,9.916072014E-1
8.521653250E0,-6.861824512E-2,7.590393430E-1,4.219906300E-1,8.711631762E-1
8.531677250E0,1.417312449E-1,5.973547670E-1,6.896785015E-1,9.233509078E-1
8.541701250E0,4.031164026E-1,4.375065091E-1,9.377312766E-1,1.110520025E0
8.551724250E0,6.960665846E-1,2.216185364E-1,1.140530403E0,1.354412443E0
8.561748250E0,9.452877796E-1,-5.316025347E-2,1.249437134E0,1.567637761E0
8.571771250E0,1.185974379E0,-3.101863119E-1,1.339191894E0,1.815540058E0
8.581795250E0,1.433991632E0,-4.935523635E-1,1.467197385E0,2.110117082E0
8.591819250E0,1.512643114E0,-6.058551568E-1,1.496476148E0,2.212372148E0
8.601842250E0,1.418252681E0,-6.313460934E-1,1.454288487E0,2.127203225E0
8.611866250E0,1.167599503E0,-5.933704743E-1,1.210606213E0,1.783520262E0
8.621890250E0,9.484101927E-1,-5.522587010E-1,9.058436322E-1,1.423033469E0
8.631913250E0,8.792078108E-1,-5.455142301E-1,6.578064984E-1,1.226091978E0
8.641937250E0,8.414932698E-1,-5.419532758E-1,4.492453793E-1,1.097107874E0
8.651961250E0,9.106213921E-1,-4.927685443E-1,3.689680785E-1,1.099176783E0
8.661984250E0,9.643432707E-1,-3.957299075E-1,3.209051353E-1,1.090660446E0
8.672008250E0,9.192834574E-1,-2.906852630E-1,3.112617610E-1,1.013145538E0
8.682031250E0,8.031834823E-1,-1.227742794E-1,4.107569593E-1,9.104386358E-1
8.692055250E0,6.433188522E-1,2.157154799E-2,4.828379256E-1,8.046470901E-1
8.702079250E0,5.542388606E-1,1.642555967E-1,5.875981030E-1,8.242767413E-1
8.712102250E0,5.123710424E-1,3.100886634E-1,5.848829484E-1,8.371183474E-1
8.722126250E0,6.064650214E-1,3.988605067E-1,4.286710739E-1,8.429996534E-1
8.732150250E0,8.322774732E-1,4.434931809E-1,3.069320440E-1,9.917556521E-1
8.742173250E0,1.080608722E0,4.301536354E-1,3.002754276E-1,1.201213009E0
8.752197250E0,1.303914472E0,3.953977856E-1,3.814296645E-1,1.414927895E0
8.762221250E0,1.413197764E0,4.008737031E-1,3.743381613E-1,1.515901284E0
8.772244250E0,1.432967784E0,3.779812691E-1,4.108844286E-1,1.537885732E0
8.782268250E0,1.449269822E0,3.236208746E-1,4.928454351E-1,1.564611808E0
8.792292250E0,1.411952891E0,2.685155448E-1,5.039012043E-1,1.523032498E0
8.802315250E0,1.273386160E0,1.977510792E-1,5.668077430E-1,1.407795730E0
8.812339250E0,1.140493566E0,7.075394064E-2,5.704963128E-1,1.277183517E0
8.822362250E0,1.050699044E0,-5.396307617E-2,4.779372279E-1,1.155553759E0
8.832386250E0,8.998046279E-1,-1.588182709E-1,3.499451856E-1,9.784340777E-1
8.842410250E0,6.507664508E-1,-2.247222385E-1,1.839186135E-1,7.126170881E-1
8.852433250E0,3.769378334E-1,-2.587237975E-1,3.313909471E-2,4.583866635E-1
8.862457250E0,1.068403244E-1,-2.880744812E-1,-1.636904633E-1,3.481326319E-1
8.872481250E0,-1.726179922E-1,-3.187726557E-1,-3.983862975E-1,5.386321744E-1
8.882504250E0,-4.750868565E-1,-3.738873410E-1,-4.802594496E-1,7.721064719E-1
8.892528250E0,-7.432401663E-1,-3.760858941E-1,-4.849524249E-1,9.638596366E-1
8.902551250E0,-9.673119020E-1,-2.992335999E-1,-5.298954400E-1,1.142813301E0
8.912575250E0,-1.154188914E0,-1.932797134E-1,-5.608926997E-1,1.297732529E0
8.922599250E0,-1.357776099E0,-5.851074815E-2,-5.622141704E-1,1.470735944E0
8.932622250E0,-1.493063128E0,6.512161016E-2,-4.786302692E-1,1.569256277E0
8.942646250E0,-1.562418707E0,1.810853451E-1,-3.973884702E-1,1.622301364E0
8.952670250E0,-1.646642001E0,2.724355182E-1,-4.396632546E-1,1.725964881E0
8.962693250E0,-1.677125875E0,2.795191276E-1,-4.698787415E-1,1.763992113E0
8.972717250E0,-1.610378739E0,2.245947692E-1,-5.336426282E-1,1.711296862E0
8.982741750E0,-1.518750531E0,2.000540051E-1,-5.742202583E-1,1.635956505E0
8.992764750E0,-1.375398438E0,1.822734994E-1,-5.801907040E-1,1.503850307E0
9.002788750E0,-1.199442270E0,2.074773377E-1,-6.283675218E-1,1.369873844E0
9.012811750E0,-1.050066960E0,2.806868166E-1,-5.244686392E-1,1.206852544E0
9.022835750E0,-9.404158795E-1,3.483136663E-1,-4.104087576E-1,1.083577309E0
9.032859750E0,-8.392298126E-1,4.395141506E-1,-2.894260651E-1,9.905790297E-1
9.042882750E0,-6.654961717E-1,4.329222921E-1,-1.445153967E-2,7.940501952E-1
9.052906750E0,-4.927115339E-1,4.082543510E-1,2.232715443E-1,6.777067605E-1
9.062930750E0,-4.206463552E-1,3.658556056E-1,2.928455168E-1,6.297238895E-1
9.072953750E0,-4.088186073E-1,2.245842442E-1,2.414438134E-1,5.252293323E-1
9.082977750E0,-4.359970504E-1,6.406355649E-2,2.088637125E-1,4.876695784E-1
9.093001750E0,-4.746079695E-1,-1.995654702E-2,2.413189754E-1,5.328093809E-1
9.103024750E0,-4.967911363E-1,-8.846281797E-2,2.323256654E-1,5.555198628E-1
9.113048750E0,-4.771298736E-1,-7.968322366E-2,2.007980633E-1,5.237577633E-1
9.123071750E0,-4.022247022E-1,-7.675055265E-3,1.614387006E-1,4.334813394E-1
9.133095750E0,-3.209940130E-1,4.518026590E-2,2.505695629E-1,4.097115066E-1
9.143119750E0,-2.489206481E-1,1.029595274E-1,3.219862854E-1,4.198062903E-1
9.153142750E0,-1.410880512E-1,1.617336926E-1,3.244450396E-1,3.890092663E-1
9.163166750E0,-3.992595792E-2,1.838683274E-1,2.893722707E-1,3.451636641E-1
9.173190750E0,2.628206491E-2,2.455301401E-1,1.642488724E-1,2.965695344E-1
9.183213750E0,-4.793488920E-2,3.306503972E-1,2.360520959E-3,3.341152658E-1
9.193237750E0,-1.508996791E-1,3.485282591E-1,-5.981292307E-2,3.844739865E-1
9.203260750E0,-2.392037451E-1,3.749155739E-1,-1.319617170E-1,4.638900883E-1
9.213284750E0,-3.040230542E-1,3.153377089E-1,-2.988618632E-1,5.302700269E-1
9.223308750E0,-3.324434459E-1,1.228809911E-1,-4.215506271E-1,5.507479586E-1
9.233331750E0,-3.282884145E-1,-8.059451222E-2,-4.468614694E-1,5.603159210E-1
9.243355750E0,-2.538527745E-1,-2.601119265E-1,-4.395135659E-1,5.703258893E-1
9.253379750E0,-8.727261722E-2,-4.296335256E-1,-4.283168788E-1,6.129084962E-1
9.263402750E0,1.036062294E-1,-5.735943139E-1,-3.604419610E-1,6.853197027E-1
9.273426750E0,2.865527433E-1,-5.975424626E-1,-2.823699376E-1,7.203487010E-1
9.283450750E0,4.061873603E-1,-5.457434410E-1,-1.035582823E-1,6.881485253E-1
9.293473750E0,4.557805198E-1,-4.499949923E-1,1.138186839E-1,6.505275307E-1
9.303497750E0,4.068580359E-1,-2.989988342E-1,1.343479657E-1,5.224778848E-1
9.313520750E0,2.771989524E-1,-1.498275921E-1,6.277804613E-2,3.212921562E-1
9.323544750E0,2.191115427E-1,-6.142003030E-2,-5.641978383E-3,2.276271517E-1
9.333568750E0,2.152208054E-1,-6.029911906E-2,-7.182909742E-2,2.347666886E-1
9.343591750E0,3.582454544E-1,-2.048180240E-1,-9.857586980E-2,4.242728258E-1
9.353615750E0,6.816555369E-1,-4.575317609E-1,-3.812443078E-2,8.218534270E-1
9.363639750E0,9.833818048E-1,-5.964885020E-1,4.269315273E-2,1.150939187E0
9.373662750E0,9.960392725E-1,-5.482828867E-1,2.199487178E-1,1.158052587E0
9.383686750E0,9.255563504E-1,-3.808551756E-1,3.499106871E-1,1.060255965E0
9.393709750E0,1.040092195E0,-3.165404812E-1,4.316870677E-1,1.169762102E0
9.403733750E0,1.223438074E0,-4.319399598E-1,6.213935477E-1,1.438576654E0
9.413757750E0,1.252974114E0,-5.365121493E-1,9.275945435E-1,1.648702840E0
9.423780750E0,1.270174869E0,-7.174679786E-1,1.105956402E0,1.830640342E0
9.433804750E0,1.372008222E0,-8.726595140E-1,1.192728936E0,2.016567258E0
9.443828750E0,1.452296925E0,-1.056942117E0,1.312858081E0,2.224834677E0
9.453851750E0,1.327784561E0,-1.214208829E0,1.292331431E0,2.215273222E0
9.463875750E0,1.039577056E0,-1.267719038E0,1.152658990E0,2.004109469E0
9.473898750E0,7.072289193E-1,-1.339316147E0,9.502813017E-1,1.788008680E0
9.483922750E0,3.541453868E-1,-1.427112090E0,6.793470562E-1,1.619746985E0
9.493946750E0,-2.541141450E-2,-1.554962338E0,4.806241697E-1,1.627744821E0
9.503969750E0,-2.779555821E-1,-1.687269040E0,1.992327636E-1,1.721577711E0
9.513993750E0,-2.631387377E-1,-1.862021266E0,-3.285258114E-3,1.880525454E0
9.524017750E0,-4.018966734E-2,-2.084942855E0,-1.012790376E-1,2.087788150E0
9.534040750E0,1.883288759E-1,-2.188241228E0,-1.698812029E-1,2.202890615E0
9.544064750E0,2.946669245E-1,-2.175062189E0,-1.931687625E-1,2.203415143E0
9.554087750E0,3.666356242E-1,-1.905564019E0,-1.303244966E-1,1.944885700E0
9.564111750E0,3.184639227E-1,-1.941312142E0,-1.381010011E-1,1.972101414E0
9.574135750E0,1.912700254E-1,-1.687804645E0,-2.748483717E-2,1.698830233E0
9.584158750E0,2.707670152E-2,-1.138762498E0,-1.935880078E-1,1.155417453E0
9.594182750E0,-3.083868313E-1,-9.623596027E-1,-1.823256858E-1,1.026879301E0
9.604206750E0,-5.189503294E-1,-6.227968794E-1,-1.708810768E-1,8.284840009E-1
9.614229750E0,-7.053274047E-1,-3.504245111E-1,-3.569219372E-1,8.646833843E-1
9.624253750E0,-1.009246963E0,-7.744900256E-2,-4.365148214E-1,1.102326163E0
9.634276750E0,-1.345911514E0,9.842471927E-2,-5.921079142E-1,1.473688234E0
9.644300750E0,-1.623913289E0,1.813388219E-1,-7.702186346E-1,1.806437069E0
9.654324750E0,-1.740924261E0,1.653110191E-1,-8.945088047E-1,1.964253297E0
9.664347750E0,-1.866935266E0,5.985531539E-2,-1.009872908E0,2.123410756E0
9.674371750E0,-2.051553499E0,2.181625396E-2,-1.152205539E0,2.353067214E0
9.684395750E0,-2.180854733E0,2.873058647E-2,-1.215007120E0,2.496636761E0
9.694418750E0,-2.283097976E0,3.611795872E-2,-1.243966479E0,2.600248734E0
9.704442750E0,-2.242438193E0,5.632125825E-2,-1.232105402E0,2.559254746E0
9.714465750E0,-2.145752143E0,1.035471725E-1,-1.133149609E0,2.428786181E0
9.724489750E0,-1.957071850E0,8.815788567E-2,-9.695633724E-1,2.185853419E0
9.734513750E0,-1.730371791E0,5.683347434E-2,-7.324964923E-1,1.879885020E0
9.744536750E0,-1.574097936E0,1.299137297E-1,-3.505493492E-1,1.617883412E0
9.754560750E0,-1.263259951E0,-8.332399249E-2,-5.378169554E-1,1.375505605E0
9.764584750E0,-9.188776606E-1,-2.035538560E-1,-7.740444678E-1,1.218570952E0
9.774607750E0,-9.667558318E-1,-2.506853378E-1,-3.049422365E-1,1.044246017E0
9.784631750E0,-9.619114137E-1,-2.580706635E-1,-5.971944071E-1,1.161255870E0
9.794654750E0,-7.952283454E-1,-5.239251405E-2,-4.214512244E-1,9.015288300E-1
9.804678750E0,-6.559763199E-1,-3.669800252E-2,-3.923458314E-1,7.652365171E-1
9.814702750E0,-5.326807612E-1,2.428041682E-1,-3.969437894E-1,7.072955743E-1
9.824725750E0,-4.552484232E-1,3.966262856E-1,-3.457733434E-1,6.957892945E-1
9.834749750E0,-3.722004193E-1,5.101754129E-1,-2.651200667E-1,6.849093034E-1
9.844773750E0,-3.562667567E-1,6.498899531E-1,-2.796992218E-1,7.921581962E-1
9.854796750E0,-3.708111209E-1,6.912318143E-1,-3.014377078E-1,8.403374323E-1
9.864820750E0,-3.773155636E-1,7.045582035E-1,-3.066209722E-1,8.560290399E-1
9.874843750E0,-3.493407297E-1,7.188660479E-1,-3.084330243E-1,8.567019731E-1
9.884867750E0,-2.860580689E-1,7.283037463E-1,-2.847161329E-1,8.326576979E-1
9.894891750E0,-2.010044700E-1,7.745499596E-1,-1.948802425E-1,8.235950132E-1
9.904914750E0,-1.098867238E-1,8.304370621E-1,-1.154544425E-1,8.455947815E-1
9.914938750E0,3.915821850E-2,9.487832451E-1,-4.073228896E-2,9.504641664E-1
9.924962750E0,1.833727759E-1,1.133786517E0,-2.801401019E-3,1.148523090E0
9.934985750E0,2.661787051E-1,1.303190002E0,7.116646171E-3,1.330115007E0
9.945009750E0,3.804596114E-1,1.408260667E0,-6.495759577E-2,1.460194203E0
9.955032750E0,5.026360130E-1,1.409848771E0,-1.500373609E-1,1.504269832E0
9.965056750E0,6.434094840E-1,1.368810380E0,-8.904271558E-2,1.515106011E0
9.975080750E0,8.309279358E-1,1.281197747E0,-2.265796065E-4,1.527058923E0
9.985107125E0,9.794226551E-1,1.188195736E0,3.183545798E-2,1.540159518E0
9.995131125E0,1.053615636E0,1.159761896E0,5.382566661E-2,1.567817197E0
1.000515413E1,1.049651223E0,1.148669435E0,1.054830395E-1,1.559594766E0
1.001517812E1,1.037115378E0,1.097357486E0,1.568214467E-1,1.518023296E0
1.002520212E1,1.130456820E0,9.895810229E-1,2.196398386E-1,1.518369152E0
1.003522512E1,1.421011983E0,7.544299829E-1,3.229452288E-1,1.640954989E0
1.004524912E1,1.704138842E0,4.450766069E-1,4.188307947E-1,1.810414763E0
1.005527312E1,1.889566330E0,1.948932526E-1,5.218540567E-1,1.969968515E0
1.006529612E1,2.015878467E0,-3.324229807E-2,6.058583727E-1,2.105216239E0
1.007532012E1,2.149233575E0,-3.314424026E-1,6.396263355E-1,2.266755584E0
1.008534312E1,2.235857152E0,-6.157053763E-1,7.118488044E-1,2.425876962E0
1.009536712E1,2.238065060E0,-7.411769763E-1,7.542194831E-1,2.475303124E0
1.010539113E1,2.124320344E0,-7.553830791E-1,6.992527324E-1,2.360570885E0
1.011541412E1,1.856358238E0,-8.927239421E-1,8.284241581E-1,2.220204614E0
1.012543813E1,1.618316919E0,-4.675249448E-1,7.332311949E-1,1.837160094E0
1.013546213E1,1.311761436E0,-3.573794818E-1,6.410682589E-1,1.503132287E0
1.014548513E1,1.162915884E0,-2.461157387E-1,7.016038978E-1,1.380287774E0
1.015550913E1,1.162356305E0,-1.873348492E-1,5.834894107E-1,1.314011575E0
1.016553213E1,1.172152146E0,-2.811627799E-1,5.600097701E-1,1.329136601E0
1.017555613E1,1.140491227E0,-3.684982547E-1,6.052862227E-1,1.342714643E0
1.018558013E1,1.176522939E0,-4.638160560E-1,6.170923358E-1,1.407172524E0
1.019560313E1,1.197180567E0,-5.251071551E-1,5.422479755E-1,1.415277959E0
1.020562713E1,1.032252833E0,-5.167669791E-1,4.391257493E-1,1.235081150E0
1.021565013E1,7.896764141E-1,-5.007298207E-1,3.177184027E-1,9.875546445E-1
1.022567413E1,5.699251860E-1,-4.832805598E-1,1.213490206E-1,7.570339503E-1
1.023569813E1,4.041928750E-1,-4.999354765E-1,-9.826830626E-2,6.503568412E-1
1.024572113E1,2.361105680E-1,-5.388063043E-1,-2.228002587E-1,6.290472075E-1
1.025574513E1,6.809959710E-2,-5.931988585E-1,-3.404968160E-1,6.873576380E-1
1.026576912E1,-1.780266666E-1,-6.059218150E-1,-5.202104044E-1,8.182014451E-1
1.027579213E1,-4.016189307E-1,-5.476496333E-1,-6.292539597E-1,9.258393122E-1
1.028581612E1,-5.778627813E-1,-4.318864578E-1,-7.513118090E-1,1.041595286E0
1.029583913E1,-8.913273346E-1,-2.585299623E-1,-9.626633656E-1,1.337169740E0
1.030586312E1,-1.170817226E0,-1.176711220E-1,-1.090922333E0,1.604609301E0
1.031588712E1,-1.230301536E0,-3.664683938E-2,-1.084472854E0,1.640446961E0
1.032591012E1,-1.247690570E0,5.459252894E-3,-1.085749009E0,1.653968704E0
1.033593412E1,-1.344488887E0,8.129325449E-2,-1.075804650E0,1.723837174E0
1.034595812E1,-1.417825250E0,2.117098448E-1,-9.751679286E-1,1.733782566E0
1.035598112E1,-1.362942699E0,3.238109091E-1,-8.643278164E-1,1.646064665E0
1.036600512E1,-1.299139636E0,4.653889570E-1,-7.189315367E-1,1.556024817E0
1.037602812E1,-1.329565623E0,5.447008824E-1,-5.314499223E-1,1.531953921E0
1.038605212E1,-1.463327698E0,5.989528111E-1,-3.856072077E-1,1.627502792E0
1.039607613E1,-1.586567708E0,6.153960586E-1,-3.703357422E-1,1.741567674E0
1.040609912E1,-1.661509132E0,5.707233310E-1,-4.779593012E-1,1.820654500E0
1.041612313E1,-1.650577177E0,4.794342613E-1,-6.105074939E-1,1.824001543E0
1.042614612E1,-1.581720951E0,3.522754472E-1,-6.971556285E-1,1.764076281E0
1.043617012E1,-1.506611711E0,2.443355539E-1,-7.379080904E-1,1.695313264E0
1.044619413E1,-1.457279922E0,1.797884327E-1,-6.973386464E-1,1.625506026E0
1.045621712E1,-1.394668522E0,1.416031909E-1,-5.719199637E-1,1.514015916E0
1.046624113E1,-1.264521781E0,1.182523352E-1,-3.576689190E-1,1.319441550E0
1.047626412E1,-1.110334212E0,1.801866281E-1,-1.572830844E-1,1.135802471E0
1.048628813E1,-9.693420553E-1,2.494445586E-1,-3.565135092E-2,1.001557600E0
1.049631213E1,-8.244778723E-1,3.091072083E-1,1.004829392E-1,8.862323900E-1
1.050633513E1,-6.856643879E-1,3.714113376E-1,1.572246122E-1,7.954882861E-1
1.051635913E1,-4.515506440E-1,3.861492446E-1,1.492664056E-1,6.126089153E-1
1.052638313E1,-2.246728295E-1,3.231367251E-1,1.514007854E-1,4.216840301E-1
1.053640613E1,-1.305876213E-1,2.554385394E-1,1.914236610E-1,3.448840272E-1
1.054643013E1,-4.797640443E-2,1.912694407E-1,2.582497345E-1,3.249286994E-1
1.055645313E1,3.042247832E-2,9.062774956E-2,2.908118552E-1,3.061216283E-1
1.056647713E1,1.009662116E-1,-2.939395308E-3,3.230509172E-1,3.384740921E-1
1.057650112E1,2.846336871E-1,-8.782897979E-2,3.679272741E-1,4.733928016E-1
1.058652413E1,4.027532905E-1,-1.197825515E-1,2.637977189E-1,4.961323505E-1
1.059654813E1,5.193023318E-1,-3.351711720E-2,1.746066302E-1,5.488950576E-1
1.060657113E1,6.103171670E-1,6.811392277E-2,8.748837948E-2,6.203069945E-1
1.061659513E1,5.878071409E-1,2.648601580E-1,1.373978734E-2,6.448696922E-1
1.062661912E1,2.705547613E-1,4.482156846E-1,-4.026977420E-2,5.250893576E-1
1.063664213E1,-7.485956311E-2,5.715287849E-1,3.277364373E-3,5.764198533E-1
1.064666612E1,-1.422955012E-1,5.916239110E-1,8.202298701E-2,6.139988861E-1
1.065668913E1,1.937825739E-2,5.323454234E-1,1.994419478E-1,5.688095087E-1
1.066671312E1,2.434347904E-1,4.191099992E-1,2.548378842E-1,5.475911210E-1
1.067673712E1,4.542058647E-1,3.120974743E-1,2.637361769E-1,6.109538215E-1
1.068676012E1,5.791994548E-1,2.204371065E-1,1.777664655E-1,6.447212131E-1
1.069678412E1,8.388058895E-1,1.959384423E-1,1.288299483E-1,8.709674787E-1
1.070680712E1,9.994189632E-1,9.957925200E-2,9.256668627E-2,1.008624253E0
1.071683112E1,1.498866490E0,1.228777751E-1,1.021251297E-1,1.507358366E0
1.072685512E1,1.599311714E0,1.456044406E-1,6.523212254E-2,1.607250398E0
1.073687812E1,1.280622674E0,1.089920998E-1,1.450219117E-1,1.293408313E0
1.074690212E1,1.216683955E0,1.893474609E-2,4.080021898E-1,1.283411142E0
1.075692613E1,1.418245665E0,-1.404898810E-1,6.617741266E-1,1.571338018E0
1.076694912E1,1.613653765E0,-3.425301853E-1,8.661617956E-1,1.863180522E0
1.077697313E1,1.727695520E0,-4.254758629E-1,1.029320455E0,2.055592887E0
1.078699612E1,1.926614288E0,-5.043363833E-1,1.111198138E0,2.280561138E0
1.079702013E1,2.127089585E0,-6.835009181E-1,1.140108527E0,2.508292459E0
1.080704413E1,2.082123912E0,-9.363970882E-1,1.169175913E0,2.564966239E0
1.081706712E1,1.870454121E0,-1.163151234E0,1.247691155E0,2.531452672E0
1.082709113E1,1.505717087E0,-1.393012006E0,1.256271359E0,2.405386481E0
1.083711412E1,1.079242812E0,-1.649725823E0,1.134540369E0,2.274542193E0
1.084713813E1,7.095286292E-1,-1.804397248E0,8.221541888E-1,2.105995683E0
1.085716213E1,3.761724329E-1,-1.892729381E0,4.111025298E-1,1.973052331E0
1.086718513E1,1.041389108E-3,-1.781026220E0,-5.468023717E-3,1.781034918E0
1.087720913E1,-5.967720920E-1,-1.663653890E0,-3.888386714E-1,1.809717301E0
1.088723213E1,-1.136104061E0,-1.508425518E0,-3.477754301E-1,1.920163464E0
1.089725613E1,-1.336746588E0,-1.348888624E0,-5.207530260E-3,1.899057419E0
1.090728013E1,-1.392532534E0,-1.310432364E0,2.925777143E-1,1.934420212E0
1.091730313E1,-1.403097868E0,-1.362890074E0,2.811528397E-1,1.976157863E0
1.092732713E1,-1.366189658E0,-1.459389598E0,9.270760417E-2,2.001221347E0
1.093735112E1,-1.254836453E0,-1.591740739E0,-1.138979137E-1,2.030080254E0
1.094737413E1,-1.084343923E0,-1.794031597E0,-3.597426340E-1,2.126914638E0
1.095739812E1,-8.916869384E-1,-2.032729850E0,-5.105070962E-1,2.277655315E0
1.096742113E1,-5.323077089E-1,-2.214943416E0,-5.376178578E-1,2.340589411E0
1.097744513E1,-1.854795277E-1,-2.236437780E0,-5.172483511E-1,2.302955157E0
1.098746550E1,-1.390526354E-2,-2.120376397E0,-4.364205350E-1,2.164867734E0
1.099748850E1,1.514767992E-1,-1.946944765E0,-2.535048652E-1,1.969214019E0
1.100751250E1,2.943178457E-1,-1.740397719E0,-1.603816701E-1,1.772379613E0
1.101753550E1,3.575502205E-1,-1.474713688E0,-2.478571858E-1,1.537548636E0
1.102755950E1,2.561589164E-1,-1.246693328E0,-3.311029717E-1,1.315101069E0
1.103758350E1,-8.243229210E-2,-9.322981900E-1,-3.697168145E-1,1.006312834E0
1.104760650E1,-5.718302089E-1,-5.803200737E-1,-5.731353074E-1,9.961150819E-1
1.105763050E1,-1.060032955E0,-2.163238826E-1,-9.454288436E-1,1.436767756E0
1.106765350E1,-1.507309869E0,1.684460038E-1,-1.248095198E0,1.964204348E0
1.107767750E1,-1.879303297E0,4.691884777E-1,-1.441931566E0,2.414764036E0
1.108770150E1,-2.173494843E0,7.008311883E-1,-1.591850228E0,2.783744122E0
1.109772450E1,-2.362882649E0,8.707211620E-1,-1.709688142E0,3.043748232E0
1.110774850E1,-2.463720807E0,9.601034546E-1,-1.715908703E0,3.152151889E0
1.111777150E1,-2.520846350E0,9.818925190E-1,-1.714965108E0,3.203105456E0
1.112779550E1,-2.496640631E0,9.855628163E-1,-1.649784880E0,3.150609251E0
1.113781950E1,-2.353203169E0,9.043803665E-1,-1.577485081E0,2.973874271E0
1.114784250E1,-2.133675889E0,8.078010285E-1,-1.455893255E0,2.706425774E0
1.115786650E1,-1.977176916E0,6.787415770E-1,-1.265043352E0,2.443410192E0
1.116788950E1,-1.861124303E0,5.745520878E-1,-1.116074424E0,2.244886610E0
1.117791350E1,-1.686655083E0,4.425579187E-1,-9.770872772E-1,1.998840270E0
1.118793750E1,-1.429960561E0,3.395311484E-1,-8.194858119E-1,1.682743475E0
1.119796050E1,-1.212722467E0,2.923099118E-1,-7.218247390E-1,1.441239681E0
1.120798450E1,-9.775989085E-1,2.956986657E-1,-6.301803048E-1,1.200110221E0
1.121800750E1,-7.595913202E-1,3.524230894E-1,-5.507647374E-1,1.002258851E0
1.122803150E1,-6.495502299E-1,4.270917410E-1,-5.026741661E-1,9.257451991E-1
1.123805550E1,-6.056195140E-1,5.337011003E-1,-4.621963772E-1,9.301813540E-1
1.124807850E1,-5.461293572E-1,6.552138430E-1,-4.357532215E-1,9.578326184E-1
1.125810250E1,-4.369495618E-1,7.012153503E-1,-2.655200163E-1,8.678299178E-1
1.126812550E1,-2.524126053E-1,6.670053381E-1,-7.051742077E-2,7.166456244E-1
1.127814950E1,-8.396952510E-2,6.556865904E-1,1.510920525E-2,6.612140909E-1
1.128817350E1,7.035720706E-2,6.767046994E-1,3.412595853E-2,6.812077274E-1
1.129819650E1,1.977376306E-1,7.237168980E-1,-1.071022797E-1,7.578503924E-1
1.130822050E1,2.984623522E-1,8.795954812E-1,6.371243119E-2,9.310355847E-1
1.131824350E1,4.496508837E-1,9.655287936E-1,1.082994971E-1,1.070588880E0
1.132826750E1,6.707820547E-1,1.200783622E0,-5.298220575E-2,1.376458131E0
1.133829150E1,9.070060587E-1,1.255250143E0,2.458337568E-1,1.568039269E0
1.134831450E1,1.154204117E0,1.237830703E0,5.567420536E-1,1.781677217E0
1.135833850E1,1.416108508E0,1.333656335E0,7.857318825E-1,2.097945928E0
1.136836150E1,1.632353160E0,1.312460763E0,1.120619757E0,2.375482842E0
1.137838550E1,1.851239585E0,1.186606463E0,1.424850680E0,2.620176017E0
1.138840950E1,1.898983855E0,1.083943681E0,1.526779781E0,2.666857718E0
1.139843250E1,2.068218648E0,9.553926453E-1,1.415495427E0,2.682150404E0
1.140845650E1,2.291022123E0,8.247927448E-1,1.159968010E0,2.697145014E0
1.141847950E1,2.571287940E0,7.718988320E-1,1.206926706E0,2.943471004E0
1.142850350E1,2.336625727E0,6.889402905E-1,8.238984132E-1,2.571627327E0
1.143852750E1,1.750565150E0,7.856278020E-1,5.082451008E-1,1.984943946E0
1.144855050E1,1.389108989E0,5.942007789E-1,2.549570212E-1,1.532221078E0
1.145857450E1,1.415947124E0,3.254513454E-1,1.351307617E-1,1.459138499E0
1.146859750E1,1.658976703E0,9.815340847E-2,1.200184867E-2,1.661921128E0
1.147862150E1,1.842133132E0,-4.527820677E-2,-1.603572580E-1,1.849653762E0
1.148864550E1,1.889673334E0,3.185738504E-2,-2.885672553E-1,1.911844989E0
1.149866850E1,1.763008025E0,2.053042200E-1,-2.838467981E-1,1.797474930E0
1.150869250E1,1.475707422E0,3.314146283E-1,1.608949095E-2,1.512549809E0
1.151871550E1,1.187675918E0,4.397878003E-1,3.568965018E-1,1.315812490E0
1.152873950E1,9.445305651E-1,6.071602553E-1,4.278094867E-1,1.201583339E0
1.153876350E1,7.367234445E-1,8.082927793E-1,2.927300343E-1,1.132161439E0
1.154878650E1,5.649375111E-1,9.545790052E-1,6.869542837E-2,1.111348069E0
1.155881050E1,3.339584595E-1,1.076452521E0,-2.092291635E-1,1.146322435E0
1.156883350E1,2.137835598E-1,1.080818637E0,-4.139276120E-1,1.176948769E0
1.157885750E1,2.310632515E-1,9.748255742E-1,-4.885760906E-1,1.114621785E0
1.158888150E1,3.430415243E-1,7.361173806E-1,-4.300080398E-1,9.189413472E-1
1.159890450E1,5.723506111E-1,3.035859749E-1,-2.961474395E-1,7.123573345E-1
1.160892850E1,7.546083230E-1,-1.064146471E-1,-1.494045460E-1,7.765819445E-1
1.161895150E1,8.384141260E-1,-4.601080441E-1,-3.678454131E-2,9.570740627E-1
1.162897550E1,8.548991811E-1,-7.034419701E-1,4.840208173E-2,1.108163335E0
1.163899950E1,8.890925288E-1,-8.294848430E-1,1.241021821E-1,1.222265103E0
1.164902250E1,8.887533903E-1,-8.254640052E-1,1.285837805E-1,1.219757025E0
1.165904650E1,8.038190746E-1,-7.228073636E-1,1.092970321E-1,1.086518031E0
1.166906950E1,5.960072762E-1,-5.418179128E-1,7.601000279E-2,8.090542901E-1
1.167909350E1,2.742893779E-1,-3.405128959E-1,6.662317514E-3,4.372963315E-1
1.168911750E1,-6.703774273E-2,-2.454576346E-1,-7.285338342E-2,2.646717303E-1
1.169914050E1,-4.050956851E-1,-3.612924385E-1,-1.499085760E-1,5.631228298E-1
1.170916450E1,-7.072119623E-1,-5.060706675E-1,-2.364198858E-1,9.011940094E-1
1.171918750E1,-1.048768294E0,-5.911116949E-1,-2.904361716E-1,1.238418806E0
1.172921150E1,-1.381728634E0,-6.046193478E-1,-4.316651407E-1,1.568780854E0
1.173923450E1,-1.471177585E0,-5.745035559E-1,-5.373053241E-1,1.668267015E0
1.174925850E1,-1.378336079E0,-5.769833601E-1,-4.908445179E-1,1.572783674E0
1.175928250E1,-1.042674326E0,-5.164024052E-1,-4.767729011E-1,1.257439300E0
1.176930550E1,-9.579218584E-1,-3.300224063E-1,-4.159732604E-1,1.095245556E0
1.177932950E1,-1.198027829E0,-5.516175538E-2,-3.250490570E-1,1.242566050E0
1.178935250E1,-1.313588106E0,2.427831182E-1,-3.004501131E-1,1.369206933E0
1.179937650E1,-1.278378512E0,5.262871233E-1,-2.637711141E-1,1.407410728E0
1.180940050E1,-1.281110916E0,7.737763730E-1,-9.779380471E-2,1.499846220E0
1.181942350E1,-1.173585883E0,9.540372607E-1,1.723893660E-1,1.522238159E0
1.182944750E1,-9.008009934E-1,1.024580994E0,3.877154213E-1,1.418284841E0
1.183947050E1,-6.775636554E-1,1.025200506E0,4.795196307E-1,1.319116243E0
1.184949450E1,-6.169391388E-1,1.035873429E0,5.426414931E-1,1.322160146E0
1.185951850E1,-6.371652424E-1,9.687491477E-1,6.196130705E-1,1.314676696E0
1.186954150E1,-7.606099051E-1,9.450720173E-1,6.201176852E-1,1.362436967E0
1.187956550E1,-8.864560193E-1,9.041274744E-1,4.506080729E-1,1.343986012E0
1.188958850E1,-9.874701780E-1,8.173413455E-1,3.721501333E-1,1.334780862E0
1.189961250E1,-1.176718821E0,6.731206486E-1,1.235937667E-1,1.361261918E0
1.190963650E1,-1.247001768E0,5.384540096E-1,-1.266582924E-1,1.364180506E0
1.191965950E1,-1.153439301E0,3.613918412E-1,-3.992905694E-1,1.272972601E0
1.192968350E1,-1.083924093E0,2.870386469E-1,-7.248886800E-1,1.335195200E0
1.193970650E1,-1.002335554E0,3.356000653E-1,-1.017247708E0,1.467002682E0
1.194973050E1,-8.695540577E-1,4.080529144E-1,-1.147749668E0,1.496649839E0
1.195975450E1,-7.220387471E-1,4.625492567E-1,-1.022735905E0,1.334646207E0
1.196977750E1,-5.107846928E-1,5.197309327E-1,-7.647485644E-1,1.056343510E0
1.197980150E1,-2.563752633E-1,6.005882773E-1,-4.440150449E-1,7.896732961E-1
1.198982463E1,7.393687248E-2,6.466351005E-1,-7.967503756E-2,6.557070428E-1
1.199984862E1,3.957155818E-1,6.927243161E-1,3.065110445E-1,8.546384149E-1
1.200987262E1,6.770607948E-1,6.739679101E-1,6.501981014E-1,1.155595792E0
1.201989562E1,1.017161170E0,7.261350140E-1,9.072569042E-1,1.544345814E0
1.202991962E1,1.253878679E0,7.526462898E-1,1.013095308E0,1.779058819E0
1.203994262E1,1.252801622E0,7.076873410E-1,1.031172560E0,1.770211887E0
1.204996662E1,1.180370992E0,5.793500206E-1,1.041254329E0,1.677239608E0
1.205998962E1,1.122719200E0,4.008666864E-1,9.904467031E-1,1.549895859E0
1.207001362E1,1.073630655E0,1.723943362E-1,7.703496122E-1,1.332606887E0
1.208003762E1,1.024555559E0,-7.928210467E-2,5.397918525E-1,1.160764829E0
1.209006062E1,1.012457085E0,-3.580878720E-1,4.474213403E-1,1.163392508E0
1.210008462E1,1.034290003E0,-5.444608542E-1,2.543360469E-1,1.196194072E0
1.211010762E1,1.019086658E0,-6.146824059E-1,1.991503179E-2,1.190280927E0
1.212013162E1,8.756714147E-1,-7.285879210E-1,-1.268524200E-1,1.146181627E0
1.213015563E1,8.107006627E-1,-9.205166352E-1,-2.017754254E-1,1.243100866E0
1.214017862E1,9.366163588E-1,-1.063939772E0,-1.863346830E-1,1.429663826E0
1.215020263E1,1.083028885E0,-1.050000887E0,-1.348388395E-1,1.514475137E0
1.216022562E1,1.303302269E0,-1.014878124E0,-1.240659294E-1,1.656492308E0
1.217024962E1,1.626098979E0,-9.663652378E-1,-1.614907408E-1,1.898456984E0
1.218027363E1,1.867459762E0,-9.569708088E-1,-1.734284163E-3,2.098380828E0
1.219029662E1,1.837539559E0,-9.484528774E-1,3.479613715E-1,2.096948165E0
1.220032063E1,1.567315750E0,-8.709667450E-1,5.766582549E-1,1.883506431E0
1.221034362E1,1.115072796E0,-7.695236930E-1,5.723342389E-1,1.470755090E0
1.222036763E1,8.098902386E-1,-7.068763322E-1,4.419509777E-1,1.162289557E0
1.223039062E1,6.345141149E-1,-7.594527411E-1,2.966681340E-1,1.033145009E0
1.224041463E1,4.077333641E-1,-7.479229090E-1,2.318561339E-1,8.828320570E-1
1.225043863E1,8.022438347E-2,-7.002184001E-1,1.199787256E-1,7.149382170E-1
1.226046163E1,-2.397440279E-1,-7.045006084E-1,-4.189822376E-2,7.453547929E-1
1.227048563E1,-5.533126616E-1,-7.830813396E-1,-2.317181396E-1,9.864403592E-1
1.228050863E1,-8.180827725E-1,-9.704278833E-1,-2.540325764E-1,1.294419657E0
1.229053263E1,-8.542787915E-1,-1.215175081E0,-2.319903275E-1,1.503416856E0
1.230055663E1,-7.547907561E-1,-1.465401997E0,-3.220620069E-1,1.679534470E0
1.231057963E1,-5.601503956E-1,-1.791319658E0,-3.657582495E-1,1.912164658E0
1.232060363E1,-2.744893527E-1,-2.074339514E0,-3.755906349E-1,2.125863859E0
1.233062663E1,-4.318285704E-2,-2.256497823E0,-3.650980988E-1,2.286251037E0
1.234065063E1,5.845695376E-2,-2.376746398E0,-2.342055452E-1,2.388973188E0
1.235067463E1,2.418291450E-2,-2.466249728E0,-4.750599593E-2,2.466825764E0
1.236069763E1,-1.761912256E-1,-2.485129802E0,7.882485241E-2,2.492614459E0
1.237072163E1,-3.979141349E-1,-2.441614531E0,1.706694075E-1,2.479706681E0
1.238074463E1,-5.624565375E-1,-2.419734542E0,1.613232180E-1,2.489477414E0
1.239076863E1,-7.387167603E-1,-2.249502799E0,-6.263215810E-2,2.368520230E0
1.240079163E1,-9.476038617E-1,-2.026142085E0,-3.906562784E-1,2.270642454E0
1.241081563E1,-1.226245907E0,-1.749175851E0,-7.715965310E-1,2.271267573E0
1.242083962E1,-1.476403826E0,-1.377472153E0,-1.152326868E0,2.324877416E0
1.243086263E1,-1.655149700E0,-1.105914302E0,-1.521385579E0,2.505430313E0
1.244088662E1,-1.924682368E0,-8.513081136E-1,-1.698031133E0,2.704151891E0
1.245090963E1,-2.186704288E0,-6.625754875E-1,-1.610613213E0,2.795488658E0
1.246093362E1,-2.335018913E0,-5.072389412E-1,-1.476246536E0,2.808720082E0
1.247095762E1,-2.420904570E0,-3.869745791E-1,-1.341389278E0,2.794611504E0
1.248098063E1,-2.369818617E0,-3.615456229E-1,-1.134147583E0,2.651989112E0
1.249100462E1,-2.161181776E0,-3.918350771E-1,-9.593462402E-1,2.396786725E0
1.250102763E1,-1.834653373E0,-3.870751512E-1,-8.679083589E-1,2.066166763E0
1.251105162E1,-1.518892034E0,-4.135224000E-1,-7.682703424E-1,1.751648682E0
1.252107463E1,-1.386556680E0,-4.233696958E-1,-6.117397946E-1,1.573533254E0
1.253109862E1,-1.389719439E0,-3.668195191E-1,-5.844736433E-1,1.551607591E0
1.254112262E1,-1.323099187E0,-2.849938756E-1,-6.065603310E-1,1.483148139E0
1.255114562E1,-1.216574028E0,-1.652458227E-1,-5.524735862E-1,1.346322996E0
1.256116962E1,-1.193358243E0,-2.595695972E-2,-5.075643387E-1,1.297073327E0
1.257119262E1,-1.312832646E0,1.059986177E-1,-5.037151167E-1,1.410139774E0
1.258121662E1,-1.389705990E0,2.562422392E-1,-4.857428223E-1,1.494285419E0
1.259123962E1,-1.339473145E0,3.050375462E-1,-5.126514164E-1,1.466304090E0
1.260126362E1,-1.184010884E0,2.941585091E-1,-5.671410343E-1,1.345384686E0
1.261128762E1,-1.036748173E0,2.444159532E-1,-6.326567468E-1,1.238886795E0
1.262131062E1,-8.567860776E-1,2.471834403E-1,-7.093239766E-1,1.139439573E0
1.263133462E1,-6.573545086E-1,3.140402117E-1,-7.626447362E-1,1.054686303E0
1.264135762E1,-5.103192544E-1,4.152312487E-1,-8.053843743E-1,1.039945538E0
1.265138162E1,-5.007239735E-1,6.027894616E-1,-8.275140390E-1,1.139675005E0
1.266140563E1,-5.291098666E-1,7.926456302E-1,-7.608610430E-1,1.219489185E0
1.267142862E1,-5.679032189E-1,8.854008892E-1,-5.549840882E-1,1.189309101E0
1.268145263E1,-5.352067584E-1,9.019078714E-1,-4.722033021E-1,1.150156529E0
1.269147562E1,-3.332725811E-1,8.925318611E-1,-4.265298235E-1,1.043844541E0
1.270149962E1,2.597274721E-2,7.916100883E-1,-3.215211394E-1,8.548081414E-1
1.271152363E1,4.359660602E-1,6.583561367E-1,-2.119805709E-1,8.175787245E-1
1.272154662E1,9.372016650E-1,5.567683661E-1,-5.801636606E-2,1.091651901E0
1.273157063E1,1.316297121E0,4.810016075E-1,4.689028412E-2,1.402212308E0
1.274159362E1,1.583053531E0,4.724620414E-1,2.025066197E-1,1.664418155E0
1.275161763E1,1.772698030E0,4.731400260E-1,3.808127832E-1,1.873856496E0
1.276164062E1,1.867365621E0,5.294864273E-1,3.732920945E-1,1.976551853E0
1.277166463E1,1.962018009E0,6.363209045E-1,2.948768395E-1,2.083595765E0
1.278168863E1,2.072174875E0,7.006306288E-1,2.677637391E-1,2.203744406E0
1.279171163E1,2.135116058E0,7.096087360E-1,2.587743759E-1,2.264780192E0
1.280173563E1,2.191998357E0,6.218329659E-1,3.306967364E-1,2.302366905E0
1.281175863E1,2.387687123E0,4.303088790E-1,4.881419349E-1,2.474772328E0
1.282178263E1,2.591773660E0,2.689280659E-1,6.077098936E-1,2.675616625E0
1.283180563E1,2.735366074E0,1.795577601E-1,6.600173306E-1,2.819590648E0
1.284182963E1,2.712591169E0,2.297543523E-1,6.256776564E-1,2.793279514E0
1.285185363E1,2.354170298E0,4.745623612E-1,5.028742871E-1,2.453611578E0
1.286187663E1,1.884885049E0,6.246308586E-1,4.867400649E-1,2.044473342E0
1.287190063E1,1.615190998E0,6.894375962E-1,6.458913347E-1,1.871187263E0
1.288192363E1,1.596805598E0,7.914644927E-1,7.883719003E-1,1.948777671E0
1.289194763E1,1.743419852E0,9.308378479E-1,8.874693418E-1,2.166465719E0
1.290197163E1,1.788548078E0,1.001658739E0,1.060952722E0,2.308212541E0
1.291199463E1,1.700389608E0,7.277204865E-1,1.433082390E0,2.339792098E0
1.292201863E1,1.463332375E0,3.558033648E-1,1.879167641E0,2.408154625E0
1.293204163E1,1.079184925E0,2.768641993E-1,1.933045348E0,2.231133839E0
1.294206563E1,7.949962109E-1,4.498429647E-1,1.644220377E0,1.880914223E0
1.295208863E1,7.611975503E-1,4.835504088E-1,1.309942806E0,1.590343630E0
1.296211263E1,9.984892559E-1,5.056131229E-1,6.792049688E-1,1.309177151E0
1.297213662E1,6.372126049E-1,6.998894942E-1,8.373212814E-3,9.465491633E-1
1.298215963E1,2.245067686E-1,7.884303725E-1,2.311372188E-1,8.517336176E-1
1.299218417E1,1.011591697E-1,6.272021717E-1,7.463122934E-1,9.801009035E-1
1.300220717E1,5.723137736E-2,4.724371907E-1,6.999602455E-1,8.464140092E-1
1.301223117E1,1.038044500E-1,2.568442100E-1,2.860393578E-1,3.981994805E-1
1.302225417E1,1.263752872E-1,4.531913728E-2,-6.487310350E-2,1.491075349E-1
1.303227817E1,6.326687336E-3,-1.553213435E-1,-4.222730505E-1,4.499769727E-1
1.304230217E1,-2.307246977E-1,-3.311833709E-1,-8.065544021E-1,9.019125872E-1
1.305232517E1,-5.007040930E-1,-4.678684688E-1,-1.133653201E0,1.324679234E0
1.306234917E1,-7.836397487E-1,-6.515289277E-1,-1.353745906E0,1.694464274E0
1.307237217E1,-9.355521655E-1,-8.749785197E-1,-1.419566258E0,1.912070508E0
1.308239617E1,-1.049122635E0,-1.148293167E0,-1.417625568E0,2.104494654E0
1.309241917E1,-1.052373102E0,-1.351163776E0,-1.418259991E0,2.223644328E0
1.310244317E1,-1.102885444E0,-1.505776729E0,-1.285515039E0,2.266333774E0
1.311246717E1,-1.131304082E0,-1.525411094E0,-1.082260268E0,2.185867155E0
1.312249017E1,-1.279429842E0,-1.379402611E0,-9.316985580E-1,2.099465286E0
1.313251417E1,-1.414249678E0,-1.181392500E0,-8.500462845E-1,2.029376524E0
1.314253717E1,-1.562364913E0,-8.850415778E-1,-8.680194560E-1,1.994427359E0
1.315256117E1,-1.899821761E0,-5.035572419E-1,-1.014168565E0,2.211657862E0
1.316258517E1,-2.212305152E0,-1.738789442E-1,-1.115877957E0,2.483890414E0
1.317260817E1,-2.257210599E0,1.680168182E-2,-1.146562099E0,2.531775391E0
1.318263217E1,-2.262732709E0,7.525892794E-2,-1.202086381E0,2.563324967E0
1.319265517E1,-2.110672942E0,1.334018862E-1,-1.173375675E0,2.418583637E0
1.320267917E1,-1.901372443E0,1.660398746E-1,-9.326098466E-1,2.124275767E0
1.321270217E1,-1.700926382E0,8.653499097E-2,-3.663122731E-1,1.742074494E0
1.322272617E1,-1.507596967E0,1.543249780E-1,1.747381926E-1,1.525515733E0
1.323275017E1,-1.382031519E0,2.501883245E-1,2.923052341E-1,1.434589721E0
1.324277317E1,-1.159937312E0,3.383912337E-1,1.415157750E-1,1.216548359E0
1.325279717E1,-1.080916286E0,4.460016364E-1,-1.555365211E-1,1.179613956E0
1.326282017E1,-1.185354574E0,5.288201371E-1,-4.324314183E-1,1.368105674E0
1.327284417E1,-1.260708227E0,6.252714211E-1,-5.760185695E-1,1.520574554E0
1.328286717E1,-1.008336552E0,6.339866960E-1,-5.026991630E-1,1.292821790E0
1.329289117E1,-6.889078385E-1,6.750306416E-1,-1.228856689E-1,9.722969014E-1
1.330291517E1,-3.554352826E-1,6.012510592E-1,5.006374347E-1,8.593456332E-1
1.331293817E1,-5.524215460E-2,6.590578026E-1,9.185402763E-1,1.131867979E0
1.332296217E1,3.774202287E-1,8.012515622E-1,8.630680338E-1,1.236663465E0
1.333298517E1,8.641143930E-1,8.836987647E-1,7.824477938E-1,1.462819791E0
1.334300917E1,1.043365467E0,9.611512756E-1,8.128293416E-1,1.634966302E0
1.335303217E1,1.200279592E0,1.239349517E0,6.251641247E-1,1.835071799E0
1.336305617E1,1.255484324E0,1.452979880E0,5.204270437E-1,1.989531535E0
1.337308017E1,1.213869690E0,1.459907661E0,6.421596417E-1,2.004290151E0
1.338310317E1,9.959960032E-1,1.438815585E0,6.050064334E-1,1.851548301E0
1.339312717E1,7.892828965E-1,1.272126377E0,4.478668982E-1,1.562644479E0
1.340315017E1,8.042435825E-1,1.040211186E0,2.472208625E-1,1.337895813E0
1.341317417E1,8.742259830E-1,7.740003213E-1,4.820152223E-2,1.168619251E0
1.342319717E1,8.238539743E-1,4.865278110E-1,-6.908953071E-2,9.592799618E-1
1.343322117E1,7.337945741E-1,2.079129553E-1,1.643067598E-4,7.626809956E-1
1.344324517E1,7.166762656E-1,-7.215464115E-2,1.400048545E-1,7.337796135E-1
1.345326817E1,7.637954682E-1,-2.996101606E-1,2.793489736E-1,8.667096484E-1
1.346329217E1,8.079764450E-1,-5.343434170E-1,4.535784584E-1,1.069617801E0
1.347331517E1,7.759874976E-1,-6.915624744E-1,4.643763654E-1,1.138446600E0
1.348333917E1,6.808117837E-1,-6.969462982E-1,2.916038606E-1,1.016991464E0
1.349336217E1,6.175139201E-1,-6.433691382E-1,1.234141110E-1,9.002657010E-1
1.350338617E1,5.778966951E-1,-5.974585551E-1,4.917610690E-2,8.326701657E-1
1.351341017E1,6.694471353E-1,-7.558260056E-1,1.575742757E-1,1.021891418E0
1.352343317E1,9.113780218E-1,-9.252271521E-1,3.433134198E-1,1.343323969E0
1.353345717E1,1.032487891E0,-9.194846016E-1,4.635450375E-1,1.458203408E0
1.354348017E1,9.689140391E-1,-8.310594982E-1,4.328611887E-1,1.347895810E0
1.355350417E1,8.045546544E-1,-7.519811690E-1,3.916783717E-1,1.168843795E0
1.356352717E1,7.607385439E-1,-8.238416952E-1,4.130671942E-1,1.195015807E0
1.357355117E1,1.030355996E0,-1.066944948E0,4.616473237E-1,1.553423076E0
1.358357517E1,1.272501476E0,-1.279910190E0,4.500689596E-1,1.860105419E0
1.359359817E1,1.162197846E0,-1.380017738E0,4.078982556E-1,1.849738840E0
1.360362217E1,8.568398720E-1,-1.524201013E0,3.167460108E-1,1.776989401E0
1.361364517E1,5.359306437E-1,-1.686203970E0,2.894200717E-1,1.792838381E0
1.362366917E1,1.696750885E-1,-1.834737281E0,3.276971148E-1,1.871479608E0
1.363369217E1,-7.883274615E-2,-1.871720335E0,2.686544162E-1,1.892545062E0
1.364371617E1,-3.368083924E-1,-1.735705036E0,2.412055394E-1,1.784458455E0
1.365373917E1,-5.309733742E-1,-1.553028371E0,6.805808187E-2,1.642699531E0
1.366376317E1,-7.682984090E-1,-1.305007902E0,-1.537156981E-1,1.522155243E0
1.367378717E1,-9.027001691E-1,-1.113304598E0,-2.471547890E-1,1.454441547E0
1.368381017E1,-8.651166058E-1,-9.933290881E-1,-1.958783622E-1,1.331727356E0
1.369383417E1,-7.175849229E-1,-1.010600009E0,6.110778898E-3,1.239466757E0
1.370385717E1,-5.040679961E-1,-1.133906970E0,1.015594116E-1,1.245047740E0
1.371388117E1,-2.429284215E-1,-1.280399602E0,1.178933161E-1,1.308562644E0
1.372390417E1,-1.279370785E-2,-1.460604064E0,2.218759601E-1,1.477415600E0
1.373392817E1,1.597090942E-1,-1.590910727E0,3.651258731E-1,1.640067328E0
1.374395217E1,2.694227403E-1,-1.650143314E0,4.367642051E-1,1.728098533E0
1.375397517E1,2.013997418E-1,-1.638053319E0,4.565149301E-1,1.712362815E0
1.376399917E1,3.515696883E-2,-1.599603783E0,4.446544379E-1,1.660628147E0
1.377402217E1,-2.328992772E-1,-1.546002064E0,3.244324681E-1,1.596753232E0
1.378404617E1,-5.653123176E-1,-1.475888979E0,7.033528000E-2,1.582015596E0
1.379406917E1,-9.374566036E-1,-1.315330869E0,-2.270089383E-1,1.631089585E0
1.380409317E1,-1.264429979E0,-1.164906276E0,-4.838167495E-1,1.786020283E0
1.381411717E1,-1.555061156E0,-9.891845816E-1,-7.385384202E-1,1.985482393E0
1.382414017E1,-1.878320380E0,-6.802419725E-1,-1.035109490E0,2.249948499E0
1.383416417E1,-2.115802705E0,-4.156651121E-1,-1.141560244E0,2.439786540E0
1.384418717E1,-2.224120036E0,-2.488940433E-1,-1.033353864E0,2.465051396E0
1.385421117E1,-2.228895457E0,-9.495848984E-2,-9.718858865E-1,2.433424387E0
1.386423417E1,-2.120685714E0,-2.991991013E-2,-8.719297814E-1,2.293134240E0
1.387425817E1,-1.919966589E0,-8.141370714E-3,-7.035229540E-1,2.044818459E0
1.388428117E1,-1.645875431E0,5.916943699E-2,-6.338843697E-1,1.764714241E0
1.389430517E1,-1.388777452E0,9.735584825E-2,-6.217174834E-1,1.524701152E0
1.390432917E1,-1.171805990E0,6.046108693E-2,-6.051701555E-1,1.320233214E0
1.391435217E1,-9.587428075E-1,4.930021405E-2,-5.531167799E-1,1.107951467E0
1.392437617E1,-7.750168598E-1,6.292247236E-2,-4.279033345E-1,8.875312018E-1
1.393439917E1,-6.720737046E-1,1.506333384E-1,-3.902462424E-1,7.916221300E-1
1.394442317E1,-5.825908399E-1,2.703208727E-1,-3.837980792E-1,7.481887639E-1
1.395444617E1,-5.304097027E-1,3.860241142E-1,-3.127982631E-1,7.267680667E-1
1.396447017E1,-5.949863523E-1,5.344951522E-1,-2.585377099E-1,8.405567052E-1
1.397449417E1,-7.041661477E-1,6.677219144E-1,-3.048416644E-1,1.017168107E0
1.398451717E1,-7.656823647E-1,7.161011919E-1,-3.798602718E-1,1.115062432E0
1.399454087E1,-7.843683118E-1,6.935592985E-1,-5.259267886E-1,1.171689863E0
1.400456387E1,-7.835537946E-1,6.738576901E-1,-7.248226064E-1,1.262302874E0
1.401458787E1,-7.982741600E-1,6.363176885E-1,-9.609198721E-1,1.401966061E0
1.402461087E1,-7.313633019E-1,6.116342524E-1,-1.103132928E0,1.458043550E0
1.403463487E1,-5.429853094E-1,6.190970537E-1,-1.174788070E0,1.434657178E0
1.404465888E1,-4.065668446E-1,6.666471961E-1,-1.170935486E0,1.407410742E0
1.405468187E1,-3.805315322E-1,7.757503930E-1,-1.034663640E0,1.348006590E0
1.406470588E1,-3.338029236E-1,8.728325915E-1,-8.898892120E-1,1.290412312E0
1.407472887E1,-2.445948780E-1,9.860671386E-1,-7.777622737E-1,1.279480055E0
1.408475288E1,-1.703960502E-1,1.096485082E0,-6.292171222E-1,1.275628683E0
1.409477587E1,-5.307400703E-2,1.124134811E0,-4.337414870E-1,1.206079434E0
1.410479988E1,1.561335218E-1,1.131941428E0,-2.967923874E-1,1.180573926E0
1.411482287E1,4.035409105E-1,1.144972533E0,-1.735519387E-1,1.226347277E0
1.412484688E1,5.263260072E-1,1.201153458E0,-2.465610042E-2,1.311638906E0
1.413487088E1,6.982417488E-1,1.282638501E0,9.090724647E-2,1.463204426E0
1.414489387E1,9.769457746E-1,1.376763763E0,1.699241799E-1,1.696695533E0
1.415491788E1,1.194611886E0,1.481121652E0,2.232569262E-1,1.915897325E0
1.416494087E1,1.362818154E0,1.543806143E0,2.293307215E-1,2.072004659E0
1.417496488E1,1.508365876E0,1.595160776E0,1.601739478E-1,2.201218120E0
1.418498787E1,1.570814139E0,1.655521583E0,2.266468495E-2,2.282262575E0
1.419501188E1,1.661092225E0,1.656426732E0,-5.283544064E-2,2.346437402E0
1.420503487E1,1.812764906E0,1.576742339E0,-6.754820466E-2,2.403496571E0
1.421505888E1,1.888324381E0,1.451041528E0,-9.198021054E-2,2.383222785E0
1.422508288E1,1.998089483E0,1.230079926E0,-8.187739134E-2,2.347799419E0
1.423510588E1,2.235549003E0,8.947900558E-1,-1.006884688E-1,2.410076090E0
1.424512988E1,2.427767447E0,6.199785215E-1,-1.580438071E-1,2.510658477E0
1.425515288E1,2.442809409E0,3.985751626E-1,-1.531955883E-1,2.479848556E0
1.426517688E1,2.272346701E0,3.065870583E-1,1.950616524E-2,2.293018893E0
1.427519987E1,2.035656674E0,2.525038218E-1,1.755071014E-1,2.058751810E0
1.428522388E1,1.651788720E0,1.815949300E-1,2.851055574E-1,1.686021315E0
1.429524687E1,1.368014574E0,2.669137001E-2,5.084808898E-1,1.459701723E0
1.430527088E1,1.306700086E0,-1.981451815E-1,6.345344339E-1,1.466069772E0
1.431529488E1,1.339083720E0,-4.205095303E-1,6.352092026E-1,1.540605143E0
1.432531788E1,1.459601852E0,-6.902456814E-1,6.498535542E-1,1.740455776E0
1.433534188E1,1.391068976E0,-9.526716435E-1,6.916010660E-1,1.822352378E0
1.434536488E1,1.038530989E0,-1.149588325E0,7.761173058E-1,1.732760227E0
1.435538888E1,6.762152874E-1,-1.288228439E0,8.658630028E-1,1.693079551E0
1.436541188E1,3.957939345E-1,-1.448495650E0,7.887098694E-1,1.696129637E0
1.437543588E1,1.540747172E-1,-1.619394853E0,6.000786924E-1,1.733860763E0
1.438545888E1,-1.811408937E-2,-1.765373808E0,4.843953314E-1,1.830713424E0
1.439548288E1,-1.514346993E-1,-1.917948714E0,4.309485644E-1,1.971592353E0
1.440550688E1,-1.461634344E-1,-1.972920143E0,3.771316686E-1,2.013952814E0
1.441552988E1,-7.482623398E-2,-1.911893630E0,3.149152476E-1,1.939099748E0
1.442555388E1,-1.053206331E-1,-1.776667413E0,1.974610573E-1,1.790706676E0
1.443557688E1,-2.443563116E-1,-1.542079167E0,8.244837195E-2,1.563494771E0
1.444560088E1,-4.235986143E-1,-1.243820591E0,-3.294409007E-2,1.314386078E0
1.445562388E1,-5.851244384E-1,-1.007090510E0,-1.158114150E-1,1.170476052E0
1.446564788E1,-7.351025963E-1,-8.189589778E-1,-2.138882250E-1,1.121078859E0
1.447567088E1,-9.045344406E-1,-6.347713923E-1,-3.274212724E-1,1.152528509E0
1.448569488E1,-1.079922844E0,-5.008578748E-1,-4.461647737E-1,1.271280836E0
1.449571888E1,-1.187725035E0,-3.680529892E-1,-6.309619313E-1,1.394369650E0
1.450574188E1,-1.280502806E0,-2.751582742E-1,-6.977956063E-1,1.484020963E0
1.451576588E1,-1.357976659E0,-2.101267111E-1,-6.157102002E-1,1.505773187E0
1.452578888E1,-1.465247338E0,-2.261527598E-2,-5.076002991E-1,1.550844698E0
1.453581288E1,-1.552612342E0,1.835169098E-1,-4.155379352E-1,1.617700626E0
1.454583588E1,-1.518528337E0,3.478435501E-1,-4.268394336E-1,1.615275626E0
1.455585988E1,-1.423085990E0,4.524052146E-1,-4.264307132E-1,1.552960839E0
1.456588288E1,-1.277487981E0,5.276088864E-1,-4.516649571E-1,1.454079748E0
1.457590688E1,-1.157126555E0,5.560307398E-1,-4.465840191E-1,1.359245870E0
1.458593088E1,-1.055249348E0,4.930562273E-1,-2.824272403E-1,1.198507728E0
1.459595388E1,-9.558478510E-1,3.519357240E-1,-1.331177115E-1,1.027241059E0
1.460597788E1,-9.320543611E-1,2.359272578E-1,-4.293625072E-2,9.624087098E-1
1.461600088E1,-8.704451734E-1,9.704565346E-2,1.792700770E-1,8.939968788E-1
1.462602488E1,-7.580926788E-1,-9.245909750E-3,2.823882101E-1,8.090321982E-1
1.463604788E1,-7.293360722E-1,-6.261169285E-2,2.529599047E-1,7.744934110E-1
1.464607188E1,-7.687006974E-1,-3.309787184E-2,2.202007328E-1,8.003028140E-1
1.465609488E1,-8.063854176E-1,1.031545320E-1,1.210179220E-1,8.219146164E-1
1.466611888E1,-6.811257792E-1,2.508388272E-1,4.675594434E-2,7.273503713E-1
1.467614287E1,-5.643358326E-1,2.856952491E-1,8.996993780E-2,6.388985029E-1
1.468616588E1,-5.787550664E-1,2.455254623E-1,1.814186364E-1,6.543339371E-1
1.469618987E1,-4.994370013E-1,1.101752838E-1,2.099319988E-1,5.528538284E-1
1.470621288E1,-3.478976369E-1,1.794744372E-2,2.185917252E-1,4.112629558E-1
1.471623687E1,-2.255493271E-1,-6.735115349E-2,2.333413267E-1,3.314466044E-1
1.472625988E1,-1.588080382E-1,-8.282785624E-2,2.057258043E-1,2.727701474E-1
1.473628388E1,-8.017000437E-2,9.244477183E-2,1.904905915E-1,2.264065611E-1
1.474630688E1,-4.620586753E-2,2.736479384E-1,1.763080238E-1,3.287897438E-1
1.475633088E1,5.871773958E-3,4.390156755E-1,9.393698126E-2,4.489915339E-1
1.476635487E1,1.072654170E-1,6.327143419E-1,-1.046148741E-1,6.502134880E-1
1.477637788E1,1.227394885E-1,7.757281736E-1,-2.443484178E-1,8.225115990E-1
1.478640187E1,1.079635745E-1,8.420478782E-1,-3.120334473E-1,9.044698087E-1
1.479642488E1,1.574684411E-1,8.441786036E-1,-3.860907724E-1,9.415412414E-1
1.480644887E1,2.322005349E-1,8.251789534E-1,-4.198280373E-1,9.545119038E-1
1.481647188E1,1.938001156E-1,8.163239300E-1,-3.545286718E-1,9.108423698E-1
1.482649587E1,1.711602813E-1,7.734199852E-1,-1.839373246E-1,8.132080021E-1
1.483651888E1,2.566898435E-1,7.583929333E-1,-3.404921383E-2,8.013793521E-1
1.484654287E1,2.991599250E-1,7.929485160E-1,2.609700054E-2,8.479062821E-1
1.485656588E1,3.456376880E-1,8.225965306E-1,4.933266610E-2,8.936241802E-1
1.486658987E1,4.011710340E-1,7.744438326E-1,6.840569884E-2,8.748604392E-1
1.487661387E1,4.804861754E-1,6.658651310E-1,2.147770017E-2,8.214040596E-1
1.488663688E1,4.896166027E-1,5.330251622E-1,-3.373521835E-2,7.245538670E-1
1.489666087E1,4.363104612E-1,3.237954140E-1,-8.241241157E-2,5.495471720E-1
1.490668388E1,4.096646994E-1,1.540045506E-1,-2.199126112E-1,4.898000859E-1
1.491670787E1,4.049319631E-1,1.886311769E-2,-4.011447215E-1,5.703006221E-1
1.492673088E1,4.455356133E-1,-1.675627819E-1,-5.001588401E-1,6.904622611E-1
1.493675487E1,5.001462686E-1,-3.438630581E-1,-4.792632303E-1,7.733571857E-1
1.494677788E1,5.133223844E-1,-5.053497058E-1,-3.980880895E-1,8.230141691E-1
1.495680187E1,5.501358694E-1,-6.649044335E-1,-2.281713648E-1,8.926418947E-1
1.496682488E1,6.757434171E-1,-8.563080677E-1,3.654685199E-2,1.091434077E0
1.497684887E1,8.558692342E-1,-1.177187768E0,3.422884029E-1,1.495140307E0
1.498687287E1,1.144593633E0,-1.490043333E0,7.221048206E-1,2.012898183E0
1.499689538E1,1.239786889E0,-1.570581420E0,7.940086162E-1,2.152730176E0
1.500691937E1,9.920777839E-1,-1.372514299E0,6.329722041E-1,1.807945696E0
1.501694238E1,6.926038635E-1,-1.164485276E0,4.180905372E-1,1.417930100E0
1.502696638E1,5.500054765E-1,-1.131059376E0,2.291149592E-1,1.278395479E0
1.503698938E1,5.097374564E-1,-1.280718276E0,1.928780097E-1,1.391859728E0
1.504701338E1,5.567449772E-1,-1.624751488E0,4.269736272E-1,1.769770845E0
1.505703638E1,6.891136605E-1,-1.944159151E0,6.271669422E-1,2.155915308E0
1.506706038E1,8.652335501E-1,-2.202126904E0,8.112665270E-1,2.501228773E0
1.507708437E1,8.916378218E-1,-2.362159933E0,1.009054005E0,2.719008559E0
1.508710738E1,6.251480448E-1,-2.325225119E0,1.102232895E0,2.648093519E0
1.509713137E1,3.155414844E-1,-2.117530265E0,1.061024935E0,2.389408873E0
1.510715438E1,4.121468425E-2,-1.859951060E0,9.692373902E-1,2.097745865E0
1.511717837E1,-2.576423550E-1,-1.567926784E0,7.368010662E-1,1.751470752E0
1.512720138E1,-6.479615414E-1,-1.217605184E0,4.854965083E-1,1.462232335E0
1.513722537E1,-1.055846348E0,-9.379618031E-1,2.040143242E-1,1.426956797E0
1.514724838E1,-1.272175201E0,-7.412287241E-1,-1.045841762E-1,1.476071683E0
1.515727237E1,-1.285715014E0,-6.421789375E-1,-3.282077229E-1,1.474170002E0
1.516729538E1,-1.108655477E0,-5.654962125E-1,-4.944461104E-1,1.339171344E0
1.517731938E1,-9.711622936E-1,-5.263242531E-1,-4.918347439E-1,1.209162865E0
1.518734337E1,-8.796375811E-1,-5.658075768E-1,-2.730766654E-1,1.080958534E0
1.519736638E1,-7.415731251E-1,-6.494587210E-1,-1.421341181E-2,9.858647733E-1
1.520739037E1,-5.417176330E-1,-7.787140542E-1,1.678991430E-1,9.633502449E-1
1.521741338E1,-3.654866463E-1,-9.226301113E-1,3.242930120E-1,1.044027188E0
1.522743737E1,-2.089800721E-1,-1.045400298E0,4.172280729E-1,1.144820387E0
1.523746038E1,-1.614398700E-1,-1.124687372E0,3.366721523E-1,1.185045423E0
1.524748437E1,-2.386728179E-1,-1.069103156E0,2.652919748E-1,1.127087443E0
1.525750738E1,-3.306255466E-1,-9.542123848E-1,1.625949875E-1,1.022874214E0
1.526753137E1,-4.091273403E-1,-7.742748481E-1,8.305969834E-3,8.757600757E-1
1.527755438E1,-5.361727184E-1,-5.517973557E-1,-9.841507137E-2,7.756590952E-1
1.528757837E1,-7.130276030E-1,-3.219055939E-1,-1.378849465E-1,7.943826738E-1
1.529760237E1,-8.958150727E-1,-1.643386272E-1,-1.689541268E-1,9.263030421E-1
1.530762537E1,-1.094419845E0,-1.134812996E-1,-2.396857019E-1,1.126091488E0
1.531764937E1,-1.247115789E0,-1.389339370E-1,-2.839532174E-1,1.286557367E0
1.532767238E1,-1.337364639E0,-2.164864352E-1,-3.820466919E-1,1.407611533E0
1.533769637E1,-1.397732463E0,-1.903540590E-1,-5.668695773E-1,1.520273601E0
1.534771938E1,-1.431692507E0,-1.325598872E-1,-6.622954059E-1,1.583019508E0
1.535774337E1,-1.473981324E0,-1.429486352E-1,-6.298071063E-1,1.609258291E0
1.536776638E1,-1.463600178E0,-4.491246343E-2,-6.122733530E-1,1.587142485E0
1.537779037E1,-1.453670436E0,8.947526336E-2,-5.822984791E-1,1.568513653E0
1.538781338E1,-1.400170752E0,2.249342000E-1,-4.603077266E-1,1.490958327E0
1.539783737E1,-1.214450319E0,3.208878860E-1,-3.412657249E-1,1.301660826E0
1.540786137E1,-1.017624269E0,3.520012128E-1,-2.689200260E-1,1.109856742E0
1.541788437E1,-8.524158686E-1,3.850104994E-1,-1.438037905E-1,9.463220529E-1
1.542790837E1,-7.278023475E-1,4.804309192E-1,-8.547050536E-2,8.762507247E-1
1.543793137E1,-6.400987905E-1,5.532150131E-1,-6.891294479E-2,8.488358536E-1
1.544795537E1,-5.831229365E-1,7.519577801E-1,-1.506833321E-1,9.634201206E-1
1.545797838E1,-4.625837553E-1,5.413200223E-1,1.352484369E-1,7.247780604E-1
1.546800237E1,-2.794495457E-1,7.919980511E-1,-1.160286391E-1,8.478299397E-1
1.547802538E1,-2.376173955E-1,7.945769656E-1,-2.683265336E-1,8.716729372E-1
1.548804937E1,-2.299411708E-1,7.800428340E-1,-2.330391718E-1,8.459592310E-1
1.549807238E1,-1.401864105E-1,8.303131011E-1,-3.207823437E-1,9.010956595E-1
1.550809637E1,-7.796677351E-2,8.349990597E-1,-4.024281853E-1,9.301885249E-1
1.551811938E1,-6.374342144E-2,9.062286714E-1,-3.722401804E-1,9.817720614E-1
1.552814337E1,-5.630400896E-2,1.023053701E0,-3.527995040E-1,1.083640396E0
1.553816737E1,-4.958965123E-2,1.168678899E0,-2.963573545E-1,1.206688520E0
1.554819037E1,-4.409151435E-2,1.294141144E0,-1.067780516E-1,1.299287079E0
1.555821437E1,-9.684333980E-2,1.407693779E0,-4.973758578E-2,1.411897389E0
1.556823737E1,-9.872263491E-2,1.499766084E0,-5.110612661E-2,1.503880414E0
1.557826137E1,-1.341234326E-2,1.484962688E0,2.243328139E-2,1.485192690E0
1.558828437E1,1.279762548E-1,1.433800428E0,-7.693766356E-3,1.439521026E0
1.559830837E1,2.738455743E-1,1.399465285E0,1.162835777E-2,1.426053892E0
1.560833138E1,4.050091463E-1,1.345134127E0,1.413418204E-2,1.404855154E0
1.561835537E1,6.135056537E-1,1.343465624E0,3.418136090E-2,1.477314264E0
1.562837838E1,7.436991727E-1,1.344582150E0,1.498808017E-1,1.543843862E0
1.563840237E1,8.115181035E-1,1.332803518E0,3.196759044E-1,1.592833806E0
1.564842538E1,9.191782075E-1,1.349047668E0,4.496573156E-1,1.693224702E0
1.565844937E1,9.560916799E-1,1.343172971E0,5.275654708E-1,1.731054666E0
1.566847337E1,9.481377125E-1,1.291988784E0,5.737872720E-1,1.702184471E0
1.567849637E1,9.335337067E-1,1.194930266E0,6.269168276E-1,1.640843756E0
1.568852037E1,8.709369242E-1,1.066010856E0,5.841947311E-1,1.495390837E0
1.569854337E1,8.077291077E-1,9.086479568E-1,5.045900063E-1,1.316312461E0
1.570856737E1,7.783889490E-1,7.660071775E-1,4.049071124E-1,1.164734357E0
1.571859037E1,7.961264777E-1,6.024856988E-1,2.991075924E-1,1.042243608E0
1.572861437E1,8.438584685E-1,4.133385050E-1,2.366471963E-1,9.689931528E-1
1.573863737E1,9.552759933E-1,1.736070487E-1,2.327408177E-1,9.984287251E-1
1.574866137E1,1.219418698E0,-1.832824364E-1,3.481590074E-1,1.281323186E0
1.575868438E1,1.544661883E0,-4.924276516E-1,4.647261751E-1,1.686545505E0
1.576870837E1,1.740567580E0,-6.283023253E-1,5.020363811E-1,1.917388808E0
1.577873237E1,1.573983330E0,-5.245844141E-1,5.152800322E-1,1.737275408E0
1.578875537E1,1.135546821E0,-3.025238281E-1,5.274691379E-1,1.288103622E0
1.579877937E1,7.760722822E-1,-2.306928304E-1,5.585429960E-1,9.836044162E-1
1.580880237E1,6.912034553E-1,-3.669949356E-1,5.435150671E-1,9.528148443E-1
1.581882637E1,7.708495492E-1,-5.970241070E-1,4.273517959E-1,1.064554540E0
1.582884937E1,8.947350919E-1,-7.343746179E-1,3.276218319E-1,1.202993362E0
1.583887337E1,8.965582538E-1,-8.300306806E-1,3.541863173E-1,1.272091027E0
1.584889637E1,8.491344112E-1,-8.748759010E-1,4.549297500E-1,1.301306331E0
1.585892037E1,7.780416244E-1,-8.671590382E-1,6.286838561E-1,1.323841742E0
1.586894337E1,7.658934492E-1,-8.572751972E-1,7.689281541E-1,1.383027131E0
1.587896737E1,7.168779945E-1,-8.267714426E-1,8.770582281E-1,1.402389465E0
1.588899037E1,5.385028338E-1,-7.898927611E-1,8.575973788E-1,1.284285459E0
1.589901437E1,2.445592099E-1,-7.010814491E-1,6.156094819E-1,9.645203158E-1
1.590903738E1,-3.389455497E-2,-6.666115281E-1,3.304612398E-1,7.447982286E-1
1.591906137E1,-2.217854744E-1,-7.124007815E-1,4.983464956E-2,7.477881802E-1
1.592908537E1,-2.654355240E-1,-7.515861896E-1,-1.768946457E-1,8.164738412E-1
1.593910837E1,-2.536112845E-1,-8.259984407E-1,-2.443773615E-1,8.979489977E-1
1.594913237E1,-1.977592653E-1,-9.143437296E-1,-2.127953804E-1,9.593826436E-1
1.595915537E1,-8.613942683E-2,-9.547786877E-1,-1.959144688E-1,9.784706548E-1
1.596917937E1,-2.530382574E-2,-9.959416240E-1,-1.261415447E-1,1.004216954E0
1.597920237E1,-6.022398233E-2,-9.841925213E-1,-2.591383651E-2,9.863738510E-1
1.598922763E1,-1.953472888E-1,-8.547380903E-1,6.320313871E-2,8.790519911E-1
1.599925063E1,-3.947683328E-1,-7.015161896E-1,1.602043533E-1,8.207511411E-1
1.600927463E1,-5.452329791E-1,-5.912306857E-1,2.081678939E-1,8.307626600E-1
1.601929763E1,-5.939660132E-1,-4.970832047E-1,1.745925969E-1,7.939583818E-1
1.602932163E1,-6.183658594E-1,-4.403263289E-1,1.635435520E-1,7.765372530E-1
1.603934463E1,-6.932055420E-1,-3.907679603E-1,1.207542126E-1,8.048696180E-1
1.604936863E1,-8.667362845E-1,-2.755538383E-1,1.195156261E-2,9.095628315E-1
1.605939162E1,-1.091940041E0,-9.712663740E-2,-2.104836836E-2,1.096453223E0
1.606941563E1,-1.256646751E0,6.567855746E-2,-1.011182392E-1,1.262418166E0
1.607943963E1,-1.436200125E0,2.882630539E-1,-2.694341424E-1,1.489416377E0
1.608946263E1,-1.633792160E0,4.623203382E-1,-4.706704545E-1,1.761972643E0
1.609948663E1,-1.802056900E0,5.671270010E-1,-7.042974177E-1,2.016203601E0
1.610950963E1,-1.926740588E0,6.028719074E-1,-8.754698320E-1,2.200507045E0
1.611953363E1,-1.925738960E0,5.396690610E-1,-9.754611665E-1,2.225137687E0
1.612955663E1,-1.847561687E0,4.851209709E-1,-1.026914910E0,2.168727916E0
1.613958063E1,-1.712630169E0,3.320318019E-1,-1.005234019E0,2.013415666E0
1.614960363E1,-1.550086929E0,1.807005984E-1,-8.757170230E-1,1.789497834E0
1.615962763E1,-1.174109793E0,1.171118358E-1,-6.612060696E-1,1.352568836E0
1.616965063E1,-7.718488383E-1,6.089992046E-2,-4.296686089E-1,8.854798377E-1
1.617967463E1,-5.666922605E-1,1.040512025E-1,-1.795921125E-1,6.035065018E-1
1.618969763E1,-4.268274468E-1,2.368300679E-1,6.731314659E-2,4.927486277E-1
1.619972163E1,-3.392490202E-1,2.906095415E-1,2.380699700E-1,5.061828859E-1
1.620974462E1,-2.801219755E-1,4.362011182E-1,3.122155881E-1,6.051597394E-1
