"Time (s)","Linear Acceleration x (m/s^2)","Linear Acceleration y (m/s^2)","Linear Acceleration z (m/s^2)","Absolute acceleration (m/s^2)"
8.575000000E-3,-5.286299564E-1,-9.525506061E-1,7.260961300E-1,1.309205056E0
1.859800000E-2,5.523966953E-2,-1.092855423E0,8.341158378E-1,1.375911926E0
2.862000000E-2,2.378484336E-1,-1.139883701E0,9.282829070E-1,1.489166171E0
3.864300000E-2,4.393406345E-1,-8.537063491E-1,9.114955509E-1,1.323880230E0
4.866500000E-2,5.496015070E-1,-8.990824968E-1,4.787898982E-1,1.157432900E0
5.868800000E-2,4.922502617E-1,-9.423837599E-1,-6.298094451E-2,1.065065289E0
6.871000000E-2,4.209540649E-1,-8.113520426E-1,-5.723991430E-1,1.078487478E0
7.873300000E-2,2.901088006E-1,-6.483591521E-1,-9.879519886E-1,1.216791617E0
8.875500000E-2,1.059223115E-1,-3.435598800E-1,-1.249923037E0,1.300600064E0
9.877800000E-2,-8.216518398E-2,-5.321872562E-2,-1.291507266E0,1.295212094E0
1.088000000E-1,-1.547244159E-1,1.655899313E-1,-1.211939524E0,1.232946504E0
1.188230000E-1,-9.442529686E-2,3.762528321E-1,-1.031211444E0,1.101761940E0
1.288450000E-1,-5.771918133E-2,4.373775780E-1,-8.525304741E-1,9.599160687E-1
1.388680000E-1,-4.474393571E-2,4.212193823E-1,-7.589528042E-1,8.691588732E-1
1.488900000E-1,-1.152018611E-1,4.568020284E-1,-7.251219839E-1,8.647204482E-1
1.589130000E-1,-3.324174258E-1,5.068436694E-1,-7.654607552E-1,9.763821066E-1
1.689350000E-1,-4.080595291E-1,4.531580436E-1,-6.772251016E-1,9.113169756E-1
1.789580000E-1,-5.073208388E-1,3.565944931E-1,-4.315800637E-1,7.555100379E-1
1.889800000E-1,-5.836961098E-1,5.079132713E-1,-1.785546702E-1,7.940773325E-1
1.990030000E-1,-8.362860319E-1,5.316215381E-1,3.188135862E-2,9.914697211E-1
2.090250000E-1,-7.372896742E-1,3.275531271E-1,9.743449330E-2,8.126380469E-1
2.190480000E-1,-5.958519961E-1,2.289174695E-1,-1.747089565E-2,6.385515181E-1
2.290700000E-1,-7.526519908E-1,1.355548310E-1,-5.803420007E-2,7.669602987E-1
2.390930000E-1,-6.061767171E-1,-2.295982316E-2,-9.805488288E-2,6.144852528E-1
2.491150000E-1,-6.068415821E-1,-1.178591099E-1,-6.632496715E-3,6.182163582E-1
2.591380000E-1,-7.243931285E-1,-1.848005198E-1,-3.309757948E-2,7.483261899E-1
2.691600000E-1,-7.468183699E-1,-4.016844195E-1,-2.219427645E-2,8.482809891E-1
2.791830000E-1,-4.171001650E-1,-5.426758455E-1,-1.497501165E-1,7.006387930E-1
2.892050000E-1,-6.026666701E-2,-6.011320683E-1,-3.018958372E-1,6.753761406E-1
2.992270000E-1,-7.251563363E-2,-6.485721369E-1,-6.772596002E-1,9.405237370E-1
3.092500000E-1,-2.486524802E-2,-7.918069933E-1,-1.291624210E0,1.515212756E0
3.192730000E-1,1.753408943E-1,-9.771111046E-1,-1.930665239E0,2.170935007E0
3.292950000E-1,3.007978032E-1,-1.168216677E0,-2.615063120E0,2.879889693E0
3.393170000E-1,3.244686478E-1,-1.370865676E0,-3.405417227E0,3.685297694E0
3.493400000E-1,3.754045473E-1,-1.496512108E0,-3.928606787E0,4.220714199E0
3.593620000E-1,4.695783408E-1,-1.395535810E0,-4.012792659E0,4.274403928E0
3.693850000E-1,5.274244067E-1,-1.427524611E0,-3.498046478E0,3.814751916E0
3.794070000E-1,5.956932807E-1,-1.514154473E0,-3.358003909E0,3.731448044E0
3.894300000E-1,7.009829235E-1,-1.508323922E0,-3.281918769E0,3.679321802E0
3.994520000E-1,6.608419342E-1,-1.624118673E0,-3.477220450E0,3.894295261E0
4.094750000E-1,6.054448284E-1,-1.840147856E0,-3.943770372E0,4.393863029E0
4.194970000E-1,6.327020627E-1,-1.876528501E0,-4.247899261E0,4.686824004E0
4.295200000E-1,6.425084281E-1,-1.977756375E0,-4.318006207E0,4.792652184E0
4.395420000E-1,7.056949022E-1,-2.355558866E0,-4.523756277E0,5.148886648E0
4.495650000E-1,7.205909765E-1,-2.468302100E0,-4.384592544E0,5.082953708E0
4.595870000E-1,7.999338922E-1,-2.510581563E0,-4.457481011E0,5.178035436E0
4.696100000E-1,1.189332142E0,-3.004357874E0,-4.405020962E0,5.463047396E0
4.796320000E-1,1.819901725E0,-3.623920951E0,-4.048182347E0,5.729976062E0
4.896550000E-1,2.852403650E0,-4.185845392E0,-4.113961769E0,6.525503020E0
4.996770000E-1,4.603979783E0,-4.397149148E0,-3.934348168E0,7.484026054E0
5.097000000E-1,5.368251507E0,-3.808419024E0,-3.310635030E0,7.367664760E0
5.197220000E-1,4.286532399E0,-3.719149290E0,-3.115753180E0,6.474129233E0
5.297450000E-1,2.868867947E0,-3.183682331E0,-2.974659866E0,5.216784239E0
5.397670000E-1,1.897927848E0,-2.429695128E0,-2.819421553E0,4.177880614E0
5.497900000E-1,1.326861870E-1,-3.288706802E0,-2.993918840E0,4.449353670E0
5.598120000E-1,-1.403586695E0,-5.877358049E0,-2.104286613E0,6.398547913E0
5.698350000E-1,-2.981902812E0,-9.417467058E0,-2.392932075E-1,9.881178644E0
5.798570000E-1,-3.455452436E0,-1.199859411E1,1.500458686E0,1.257608001E1
5.898800000E-1,-1.729381272E0,-1.092288535E1,3.407060294E0,1.157187296E1
5.999020000E-1,5.638089985E-1,-6.970138335E0,5.363625190E0,8.813012208E0
6.099250000E-1,1.294654822E0,-7.828475679E0,5.939495240E0,9.911547118E0
6.199470000E-1,2.116705515E0,-9.414256352E0,5.919674349E0,1.132038910E1
6.299700000E-1,3.048724208E0,-8.216339620E0,5.920710475E0,1.057628331E1
6.399920000E-1,2.267245005E0,-6.310877050E0,6.582750943E0,9.396817494E0
6.500150000E-1,1.113028024E0,-4.874077000E0,7.920367597E0,9.366305614E0
6.600370000E-1,1.368638472E0,-3.023903070E0,8.790181271E0,9.395980407E0
6.700600000E-1,2.105539087E0,-1.532504936E0,8.774372739E0,9.152676285E0
6.800820000E-1,2.627660362E0,-4.712966913E-1,9.260217302E0,9.637341129E0
6.901050000E-1,3.201789111E0,3.157145619E-1,9.448980042E0,9.981700908E0
7.001270000E-1,4.168919749E0,8.408980232E-1,8.922441196E0,9.884177166E0
7.101500000E-1,5.440081628E0,1.273480884E0,8.882232817E0,1.049334558E1
7.201720000E-1,6.234842196E0,1.445877267E0,8.528191511E0,1.066273270E1
7.301940000E-1,6.273083571E0,1.862931093E0,8.112973711E0,1.042316805E1
7.402170000E-1,6.116467069E0,2.471671851E0,7.965473603E0,1.034258676E1
7.502390000E-1,6.583318707E0,3.113162279E0,7.963437018E0,1.079111643E1
7.602620000E-1,7.099019739E0,3.479866900E0,7.753398600E0,1.107342516E1
7.702840000E-1,7.061354315E0,3.761874602E0,7.664232069E0,1.107948006E1
7.803068750E-1,7.245153353E0,4.136623238E0,7.800935878E0,1.142184309E1
7.903288750E-1,7.475323734E0,4.536554663E0,7.474052550E0,1.150314108E1
8.003518750E-1,7.398560902E0,4.404543829E0,6.532540902E0,1.080799706E1
8.103738750E-1,7.057160692E0,4.083952104E0,5.018335412E0,9.574229584E0
8.203968750E-1,6.360470794E0,3.844240236E0,4.648894293E0,8.766184453E0
8.304188750E-1,5.667050659E0,3.692971013E0,2.969483618E0,7.387241098E0
8.404418750E-1,5.940469971E0,3.464365346E0,1.663771127E0,7.075248766E0
8.504638750E-1,5.053256153E0,2.655833416E0,1.083674417E0,5.810610908E0
8.604868750E-1,5.343420721E0,3.706483344E0,-1.683263113E0,6.717405637E0
8.705088750E-1,4.834767339E0,3.630550817E0,4.961979362E-1,6.066472356E0
8.805318750E-1,3.311289041E0,2.753904086E0,-1.076013395E0,4.439192230E0
8.905538750E-1,2.752711839E0,2.161754218E0,-1.460690603E0,3.792653531E0
9.005768750E-1,3.328952895E0,1.912747616E0,-1.541758155E0,4.137335982E0
9.105988750E-1,3.560362302E0,7.482909912E-1,-4.206112719E-1,3.662380779E0
9.206218750E-1,3.361542644E0,-9.234648013E-1,-2.241697351E0,4.144630647E0
9.306438750E-1,3.443818523E0,-6.658896893E-1,-3.467645634E0,4.932328187E0
9.406668750E-1,2.922647129E0,-1.030072991E0,-3.298276355E0,4.525653933E0
9.506888750E-1,1.076972046E0,-2.178726346E0,-5.346889290E0,5.873324643E0
9.607118750E-1,1.054471083E0,-2.353330053E0,-6.058164482E0,6.584180169E0
9.707338750E-1,1.294893096E0,-2.859811195E0,-6.294294931E0,7.033734206E0
9.807568750E-1,1.337216120E0,-3.163253621E0,-5.757667884E0,6.704107687E0
9.907788750E-1,9.838764793E-1,-3.384378945E0,-4.896330918E0,6.032917224E0
1.000801875E0,4.978985989E-1,-3.137696026E0,-4.001713940E0,5.109476864E0
1.010823875E0,7.138242862E-1,-3.385567099E0,-2.228726472E0,4.115681156E0
1.020846875E0,1.078963900E0,-3.904572392E0,-1.225254804E-1,4.052759696E0
1.030868875E0,1.191792651E0,-3.928783373E0,2.057317100E0,4.592195789E0
1.040890875E0,1.378433728E0,-2.917731959E0,3.441399238E0,4.717676127E0
1.050913875E0,7.225588569E-1,-2.260036558E0,6.464462355E0,6.886154956E0
1.060935875E0,-6.165121458E-1,-7.796946323E-1,3.718637366E0,3.849191449E0
1.070958875E0,1.108756195E0,1.316042767E0,5.531279481E0,5.792785303E0
1.080980875E0,4.188255322E-1,2.019884394E0,2.810979343E0,3.486682185E0
1.091003875E0,4.956246167E-1,3.300501806E0,1.396765333E0,3.617997972E0
1.101025875E0,4.906218852E-1,5.165690508E0,-7.278438628E-1,5.239735199E0
1.111048875E0,8.609767771E-1,4.939897352E0,-2.469883772E0,5.589650500E0
1.121070875E0,8.552676288E-1,4.803098819E0,-4.115797795E0,6.382870237E0
1.131093875E0,9.486696629E-1,3.785364037E0,-4.975814459E0,6.323581624E0
1.141115875E0,1.244679400E0,2.472475258E0,-4.582776318E0,5.353895730E0
1.151138875E0,1.264692081E0,9.468261820E-1,-4.155515007E0,4.445698017E0
1.161160875E0,8.172866741E-1,5.281912690E-1,-2.735804615E0,2.903716656E0
1.171183875E0,1.036821628E0,3.130554237E0,-2.034531670E0,3.874879099E0
1.181205875E0,8.865192423E-1,3.211615942E0,-1.801279805E0,3.787479671E0
1.191228875E0,-1.377302511E-1,2.439350197E0,-2.356999766E0,3.394826490E0
1.201250875E0,-2.990049007E-1,1.137239006E0,-2.460579683E0,2.727117317E0
1.211273875E0,3.216443695E-2,1.060462140E0,-2.479725806E0,2.697156757E0
1.221295875E0,2.353253418E-1,1.225869931E0,-2.333218555E0,2.646137549E0
1.231318875E0,3.090067458E-1,1.030123277E0,-2.075987259E0,2.338025285E0
1.241340875E0,3.797749756E-1,1.081291092E0,-1.825572647E0,2.155489492E0
1.251363875E0,3.014296314E-1,1.332638335E0,-1.407627121E0,1.961682662E0
1.261385875E0,2.421992372E-1,2.094880198E0,-1.273832302E0,2.463702954E0
1.271408875E0,5.031862360E-1,3.337441006E0,-1.837509738E0,3.842935192E0
1.281430875E0,1.111561543E0,3.820176020E0,-2.069692147E0,4.484745196E0
1.291453875E0,1.551596242E0,4.478457313E0,-2.242727630E0,5.243458593E0
1.301475875E0,1.994724410E0,4.470631984E0,-2.112839921E0,5.331938516E0
1.311497875E0,1.862614028E0,3.771445325E0,-1.584691336E0,4.494927973E0
1.321520875E0,9.924632616E-1,3.243631201E0,-1.441147454E0,3.685516610E0
1.331542875E0,-6.814118542E-2,2.763635607E0,-1.498207508E0,3.144352196E0
1.341565875E0,-4.941279488E-1,2.467311582E0,-1.653201408E0,3.010791219E0
1.351587875E0,-5.955508645E-1,2.371429524E0,-1.853303652E0,3.068076474E0
1.361610875E0,-5.664152487E-1,2.026619802E0,-1.905163193E0,2.838601918E0
1.371632875E0,-1.846242262E-1,1.661802662E0,-1.966510425E0,2.581247265E0
1.381655875E0,-5.400265452E-1,1.375096137E0,-1.356861595E0,2.005889190E0
1.391677875E0,-1.160744812E0,1.312799317E0,-5.017367113E-1,1.822775437E0
1.401700875E0,-5.557391100E-1,1.513872199E0,5.185661674E-2,1.613488178E0
1.411722875E0,7.858194445E-1,1.167439290E0,9.556385207E-1,1.701079562E0
1.421745875E0,2.237699756E0,4.816293061E-2,1.668370839E0,2.791609056E0
1.431767875E0,2.033020895E0,1.490671617E-1,4.077431874E0,4.558601284E0
1.441790875E0,5.507068500E-1,9.342388809E-1,4.485487420E0,4.614724013E0
1.451812875E0,-9.187493142E-1,2.110212182E0,4.495020720E0,5.049980894E0
1.461835875E0,-1.815459596E0,3.228717878E0,4.842912510E0,6.097074238E0
1.471857875E0,-2.216767162E0,3.709553717E0,4.471243603E0,6.218268632E0
1.481880875E0,-3.121400128E0,2.688891234E0,4.249735871E0,5.918912890E0
1.491902875E0,-3.711955461E0,1.818641943E0,3.395421996E0,5.349295504E0
1.501925875E0,-1.826485690E0,1.805594466E0,1.938790530E0,3.217938792E0
1.511947875E0,1.246533991E0,4.338224709E-1,-5.660005349E-1,1.436107772E0
1.521970875E0,3.482642573E0,-2.118761981E0,9.839501542E-1,4.193579560E0
1.531992875E0,4.265492655E0,-2.092395131E0,1.996656915E0,5.153560305E0
1.542015875E0,2.717353141E0,-1.122135063E0,1.409038639E0,3.260151082E0
1.552037875E0,-3.078211132E-1,-9.645221955E-1,9.568810540E-1,1.393082286E0
1.562059875E0,-1.644001691E0,-2.437786067E0,4.763214961E-1,2.978661551E0
1.572082875E0,-6.837719366E-1,-3.471707695E0,2.151219875E-1,3.544936650E0
1.582104875E0,-2.364412281E-1,-4.373127324E0,-4.268993676E-2,4.379722534E0
1.592127875E0,2.677241242E-1,-5.470557316E0,-8.612814170E-1,5.544409728E0
1.602149875E0,2.598759913E-1,-5.300227924E0,-9.698531020E-1,5.394494102E0
1.612172875E0,6.851676670E-1,-4.380431666E0,-5.186562145E-1,4.463926588E0
1.622194875E0,1.825887812E0,-3.835223245E0,-3.135247797E-2,4.247797855E0
1.632217875E0,2.920222873E0,-3.432940071E0,-7.003704277E-1,4.561063242E0
1.642239875E0,3.292062812E0,-2.389115013E0,-1.102707689E0,4.214440929E0
1.652262875E0,2.240819976E0,-1.503382879E0,-5.894776905E-1,2.762049636E0
1.662284875E0,9.112449977E-1,-1.270407588E0,-1.392365304E-1,1.569614506E0
1.672307875E0,5.244376490E-1,-5.320761591E-1,3.669513738E-1,8.323419955E-1
1.682329875E0,1.018128591E0,1.016685791E0,1.298324242E0,1.938009717E0
1.692352875E0,2.568206750E0,2.255744117E0,2.033709843E0,3.977441786E0
1.702374875E0,3.988628456E0,2.678092597E0,2.331264123E0,5.340049562E0
1.712397875E0,4.096435325E0,2.461466705E0,3.006863991E0,5.646311342E0
1.722419875E0,3.930292540E0,1.855559508E0,2.234151811E0,4.886894193E0
1.732442875E0,4.084926251E0,1.081736065E0,1.812842382E0,4.598170602E0
1.742464875E0,4.284559256E0,1.072530794E0,1.221404705E0,4.582532027E0
1.752487875E0,4.153277278E0,7.255856681E-1,-8.136043900E-1,4.293965395E0
1.762509875E0,2.595956466E0,-2.792045474E-3,-1.128076419E0,2.830468897E0
1.772532875E0,9.214071661E-1,-8.358518761E-1,-2.610026913E0,2.891345710E0
1.782554750E0,3.173488587E-2,-3.334006351E-1,-5.366341807E0,5.376782260E0
1.792576750E0,-3.048700234E-1,2.502105439E-1,-9.080267487E0,9.088828785E0
1.802599750E0,-5.097072848E0,-7.940717661E-1,-1.050862533E1,1.170648999E1
1.812621750E0,-7.784111685E0,-6.670334047E-1,-6.530044726E0,1.018227933E1
1.822644750E0,-5.608862092E0,-6.168888527E-1,-1.133951262E0,5.755495747E0
1.832666750E0,-3.448697440E0,-8.402361184E-1,-1.549588162E-1,3.552959752E0
1.842689750E0,-2.229433401E0,-8.010398930E-1,-5.158118364E-1,2.424479336E0
1.852711750E0,-3.734774512E-1,-2.290254968E-1,-5.859412944E-1,7.316182647E-1
1.862734750E0,4.914103822E-1,6.519709772E-1,1.136815667E-2,8.165044726E-1
1.872756750E0,4.248611744E-1,1.259345241E0,4.796763361E-1,1.412992158E0
1.882779750E0,7.482754961E-2,1.415723761E0,2.929247466E-1,1.447645618E0
1.892801750E0,-2.093763672E-1,1.192819129E0,-4.244376898E-2,1.211799246E0
1.902824750E0,-2.354400386E-1,1.357264468E0,3.466638744E-2,1.377969741E0
1.912846750E0,-3.038188402E-1,1.944357079E0,7.922091356E-1,2.121420669E0
1.922869750E0,-6.803071690E-1,1.918741597E0,1.338958882E0,2.436636626E0
1.932891750E0,-5.173008299E-1,1.340196446E0,8.826304784E-1,1.686049591E0
1.942914750E0,-4.447925784E-1,2.402977592E-1,-2.202207595E-3,5.055574157E-1
1.952936750E0,-4.361596030E-1,5.105747777E-1,-5.730138315E-1,8.827608136E-1
1.962959750E0,-1.227692216E0,1.147572205E0,-7.735632420E-2,1.682300254E0
1.972981750E0,-2.492255219E0,1.004346412E0,-7.442993894E-2,2.688045314E0
1.983003750E0,-3.561883455E0,1.650183660E-1,-3.829103257E-1,3.586204836E0
1.993026750E0,-3.281813520E0,-7.074259704E-1,-6.852723321E-1,3.426419363E0
2.003048750E0,-2.819174216E0,-1.387837805E0,-9.852920902E-1,3.293119727E0
2.013071750E0,-2.367420089E0,-1.321196503E0,-1.047185745E0,2.906344106E0
2.023093750E0,-2.067867815E0,-1.144866114E0,-2.059316263E-1,2.372594267E0
2.033116750E0,-1.720748297E0,-6.142616987E-1,1.848882280E-1,1.836430176E0
2.043138750E0,-1.179034830E0,2.090964317E-1,4.014859065E-2,1.198105320E0
2.053161750E0,-8.118117799E-1,2.883139247E-1,-3.835627288E-2,8.623424429E-1
2.063183750E0,-3.763684608E-1,3.173050046E-1,-5.691299647E-2,4.955550155E-1
2.073206750E0,2.747877069E-2,2.726246756E-1,4.402257568E-1,5.185344863E-1
2.083228750E0,-2.911481797E-1,-2.775304896E-1,1.106080070E0,1.176946710E0
2.093251750E0,-5.351000832E-1,-3.404658258E-2,1.577399274E0,1.666037136E0
2.103273750E0,-4.691508728E-1,-5.643188757E-1,7.253389156E-1,1.031830838E0
2.113296750E0,2.063991842E-1,-5.835772651E-1,-4.985657662E-2,6.210062205E-1
2.123318750E0,1.766242997E0,1.187177736E0,2.817130029E-1,2.146710860E0
2.133341750E0,3.096961983E0,2.038760961E0,9.280232906E-1,3.822165225E0
2.143363750E0,3.886886319E0,1.308350170E0,1.856950268E0,4.501991751E0
2.153385750E0,4.280687815E0,1.037056321E-1,2.690698024E0,5.057163126E0
2.163408750E0,4.535705062E0,-8.439871073E-3,3.221831027E0,5.563531865E0
2.173430750E0,4.385948806E0,2.689906311E-1,2.743522940E0,5.180330203E0
2.183453750E0,3.625480696E0,4.043314540E-1,1.602099082E0,3.984258484E0
2.193475750E0,2.488503353E0,4.776040828E-1,4.422760829E-1,2.572229137E0
2.203498750E0,8.811336643E-1,4.744173503E-1,-8.383682254E-1,1.305499766E0
2.213520750E0,-6.951111495E-2,6.029409045E-1,-2.031696939E0,2.120415521E0
2.223543750E0,-3.396907043E-1,8.036237776E-1,-2.126298603E0,2.298335637E0
2.233565750E0,1.320780218E-1,9.073446125E-1,-1.599495463E0,1.843666072E0
2.243588750E0,6.549529110E-1,3.854110336E-1,-1.346258985E0,1.545936038E0
2.253610750E0,4.327875137E-1,-1.719210041E-1,-1.925982789E0,1.981482164E0
2.263633750E0,1.140499121E0,3.338450235E-1,-2.313579073E0,2.600930386E0
2.273655750E0,2.540601168E0,9.921280700E-1,-2.210550987E0,3.510770295E0
2.283678750E0,2.441745947E0,9.114885342E-1,-3.168413204E-1,2.625513862E0
2.293700750E0,1.661937879E0,1.185009588E0,2.124550139E0,2.946183723E0
2.303723750E0,1.737489021E0,1.835039290E0,4.545265552E0,5.200545763E0
2.313745750E0,9.206724635E-1,1.747321699E0,5.398731873E0,5.748658691E0
2.323767750E0,-3.867327236E-1,1.163673683E0,4.352429058E0,4.521873212E0
2.333790750E0,-1.744924341E0,4.643338269E-1,2.736316831E0,3.278383238E0
2.343812750E0,-2.503502339E0,-5.329608428E-1,1.047955531E0,2.765823930E0
2.353835750E0,-1.831791015E0,-1.824277489E0,1.012142943E0,2.776306903E0
2.363857750E0,-1.875441065E0,-2.633750237E0,1.057285933E0,3.401730889E0
2.373880750E0,-2.029978150E0,-1.946112998E0,7.914725326E-1,2.921403064E0
2.383902750E0,-1.833825846E0,-7.259441024E-1,1.056436917E0,2.237402743E0
2.393925750E0,-7.556209145E-1,6.015229547E-1,6.610959958E-1,1.170401960E0
2.403947750E0,-2.614325202E-1,1.898502629E0,3.396340594E-2,1.916719257E0
2.413970750E0,-4.028724276E-1,3.073467286E0,-3.430809930E-2,3.099949095E0
2.423992750E0,9.880244941E-2,4.857902432E0,-3.192772704E-1,4.869385581E0
2.434015750E0,-1.341244559E-1,5.356612040E0,-6.762492013E-1,5.400795765E0
2.444037750E0,2.103682011E-1,5.271033361E0,-7.542604136E-1,5.328879455E0
2.454060750E0,1.352914140E-2,4.222179113E0,-8.153820898E-1,4.300212489E0
2.464082750E0,-1.039441400E0,1.904521753E0,1.363861151E0,2.562763893E0
2.474105750E0,-2.522481231E0,-1.690953956E0,5.093806009E0,5.930353825E0
2.484127750E0,-3.507079257E0,-3.455858817E0,4.990259421E0,7.010367620E0
2.494149750E0,-2.066670306E0,-2.147431464E0,5.840659462E-1,3.037057963E0
2.504172750E0,6.592647940E-2,-9.855628163E-1,-1.766410081E0,2.023829276E0
2.514194750E0,3.308582658E-1,-1.600180026E0,-2.649027842E0,3.112457520E0
2.524217750E0,1.731687999E-1,-2.290612233E0,-7.704076459E-1,2.422894917E0
2.534239750E0,-7.136631954E-1,-5.936707288E0,1.541112476E0,6.174855160E0
2.544262750E0,-1.002684048E0,-6.961526556E0,3.720624543E0,7.956838209E0
2.554284750E0,9.195673397E-1,-5.236831242E0,3.800093466E0,6.535343595E0
2.564307750E0,4.790901819E0,-3.732351426E0,4.261828498E0,7.419324063E0
2.574329750E0,7.361810567E0,-2.636425338E0,3.814623504E0,8.700479635E0
2.584352750E0,6.574374806E0,-1.994217457E0,2.394600871E0,7.275535766E0
2.594374750E0,4.467007587E0,-1.075479544E0,-4.900533897E-1,4.620710482E0
2.604397750E0,2.112122467E0,-1.618082446E-1,-4.236766747E0,4.736817042E0
2.614419750E0,-5.353915304E-2,7.621120548E-1,-6.815054389E0,6.857743619E0
2.624442750E0,2.912463033E-1,1.445476148E0,-6.925585476E0,7.080816329E0
2.634464750E0,1.136526230E-1,1.045398543E0,-5.758138000E0,5.853368966E0
2.644487750E0,-1.210838201E0,8.014749259E-1,-3.884552695E0,4.147076181E0
2.654509750E0,2.848618747E-1,2.174749070E-1,-2.608400218E0,2.632905870E0
2.664531750E0,-9.658625235E-1,-7.658168507E-1,-1.130777540E0,1.672729419E0
2.674554750E0,-2.874004726E0,-7.077212548E-1,-3.017990658E-1,2.975206752E0
2.684576750E0,-2.198238213E0,-2.048250407E-1,5.616034287E-1,2.278070005E0
2.694599750E0,-1.765331708E0,-1.094804592E0,7.990992022E-1,2.225657806E0
2.704621750E0,-8.690109976E-1,-1.254962752E0,9.822895449E-1,1.815214691E0
2.714644750E0,-4.392807736E-1,-8.218390238E-1,1.516548470E0,1.779973663E0
2.724666750E0,-1.010628514E0,-9.123697096E-1,1.173015779E0,1.797151774E0
2.734689750E0,-1.095692126E0,-1.316980076E0,1.275839067E-1,1.717921829E0
2.744711750E0,-1.279552341E0,-1.823931334E0,-4.421363345E-1,2.271445408E0
2.754734750E0,-1.635880201E0,-2.337089996E0,-6.220729941E-1,2.919771993E0
2.764756750E0,-1.182219224E0,-2.206557339E0,-1.495109069E0,2.915799840E0
2.774779750E0,3.037994713E-1,-2.822059232E-1,-1.203170455E0,1.272616771E0
2.784801875E0,6.254042260E-1,1.315444012E0,-9.006749859E-1,1.712524109E0
2.794824875E0,5.551519033E-1,1.388632441E0,-1.100202449E0,1.856593419E0
2.804846875E0,6.810548817E-1,1.193065297E0,-6.532740292E-1,1.521186219E0
2.814868875E0,-3.406442390E-1,1.450361497E0,-2.221649587E-1,1.506301510E0
2.824891875E0,-4.351511776E-1,1.409372515E0,-4.987733424E-1,1.557068489E0
2.834913875E0,-6.184928901E-2,1.482822899E0,-9.685585284E-1,1.772200527E0
2.844936875E0,1.991942451E-1,1.656791013E0,-5.512216973E-1,1.757407229E0
2.854958875E0,-3.671512024E-1,1.393017268E0,-5.554270148E-1,1.543954754E0
2.864981875E0,-5.771193078E-1,2.199830117E0,-4.203016618E-1,2.312784626E0
2.875003875E0,-3.691207274E-1,3.060853087E0,-4.969320542E-1,3.122821353E0
2.885026875E0,3.780692697E-2,3.833738052E0,-6.370184773E-1,3.886485476E0
2.895048875E0,3.018288683E-1,4.523703652E0,-8.040243119E-1,4.604503284E0
2.905071875E0,2.521078009E-1,5.082654784E0,-7.600950578E-1,5.145355429E0
2.915093875E0,3.910646699E-1,5.616375765E0,-4.825435182E-1,5.650615591E0
2.925116875E0,8.224857259E-1,6.199710370E0,1.941263902E-1,6.257042153E0
2.935138875E0,1.141874240E0,6.546951365E0,1.083552795E0,6.733538120E0
2.945161875E0,1.057412671E0,6.499705278E0,1.148133245E0,6.684497005E0
2.955183875E0,1.035197710E0,6.405790223E0,7.741239899E-1,6.534910148E0
2.965205875E0,1.154038787E0,6.237253588E0,3.520354190E-1,6.352878621E0
2.975228875E0,1.174178060E0,5.925001747E0,-4.151552349E-2,6.040369472E0
2.985250875E0,9.819246787E-1,5.555642490E0,-2.395156941E-1,5.646831618E0
2.995273875E0,1.428108894E0,4.860924858E0,1.806994289E-1,5.069589507E0
3.005295875E0,1.667207097E0,4.260939721E0,7.053607339E-1,4.629548636E0
3.015318875E0,1.620653320E0,7.165113741E-1,2.408182783E0,2.989857865E0
3.025340875E0,1.043453613E0,-9.173411293E0,5.394479778E0,1.069302026E1
3.035363875E0,-6.303305782E-1,-1.853375339E1,7.028961909E0,1.983188435E1
3.045385875E0,-2.287308849E0,-2.136127743E1,6.535007842E0,2.245533974E1
3.055408875E0,-2.853473690E0,-1.641254728E1,3.739197638E0,1.707324278E1
3.065430875E0,-1.448900862E0,-8.648105040E0,1.299277923E0,8.864375760E0
3.075453875E0,-4.779078457E-1,-2.161602191E0,-2.665979505E-1,2.229796943E0
3.085475875E0,2.330991058E-1,2.146282486E0,-1.036934114E0,2.395014835E0
3.095498875E0,9.960642694E-1,4.002437240E0,-1.409956360E0,4.358855908E0
3.105520875E0,1.662501258E0,3.973348512E0,-1.055820036E0,4.434654979E0
3.115542875E0,2.097071003E0,3.223681671E0,1.565612456E-1,3.848940339E0
3.125565875E0,2.224360356E0,2.169132820E0,1.400465451E0,3.407964153E0
3.135587875E0,2.150870796E0,1.510748032E0,2.027298371E0,3.319419148E0
3.145610875E0,2.127781018E0,1.372916880E0,2.142610434E0,3.317096968E0
3.155632875E0,2.328723508E0,1.491272126E0,1.720730317E0,3.256955411E0
3.165655875E0,2.717645502E0,1.484531456E0,1.000115074E0,3.254175914E0
3.175677875E0,2.881278663E0,9.599987894E-1,3.907138735E-1,3.062029023E0
3.185700875E0,2.694923222E0,-1.243281770E-1,1.444162863E-1,2.701652223E0
3.195722875E0,2.238477728E0,-1.193799123E0,4.378599733E-1,2.574424254E0
3.205745875E0,1.271568991E0,-1.710899978E0,6.590946400E-1,2.231249017E0
3.215767875E0,8.945947587E-2,-1.997643925E0,8.455977228E-1,2.171087229E0
3.225789875E0,-1.005689810E0,-2.479641606E0,5.500996166E-1,2.731784046E0
3.235812875E0,-1.942372827E0,-3.207059206E0,1.305899602E-1,3.751678916E0
3.245834875E0,-2.512461150E0,-4.266481712E0,1.165098649E-1,4.952666128E0
3.255857875E0,-2.703297897E0,-5.239764206E0,3.594289309E-1,5.906956713E0
3.265879875E0,-2.857629307E0,-5.849762115E0,1.399191928E-1,6.511938224E0
3.275902875E0,-3.259467216E0,-5.480628560E0,-1.163933299E0,6.481987093E0
3.285924875E0,-3.283136160E0,-4.743340275E0,-1.124154106E0,5.877242760E0
3.295947875E0,-2.602979264E0,-3.316534871E0,5.858600181E-1,4.256540445E0
3.305969875E0,-2.938149852E-1,-1.926063480E0,1.107295999E-1,1.951488873E0
3.315992875E0,9.128518125E-1,-1.525119318E0,-8.720306459E-1,1.979829491E0
3.326014875E0,9.356311029E-1,-8.245766902E-1,-2.374207829E0,2.681826820E0
3.336037875E0,2.864472742E-1,-1.378451854E-1,-4.096333876E0,4.108649968E0
3.346059875E0,-4.996382917E-1,4.795956445E-1,-5.016913369E0,5.064491105E0
3.356082875E0,-1.336425430E0,5.309318590E-1,-4.430836419E0,4.658350882E0
3.366104875E0,-2.130822301E0,3.048632991E-1,-2.523142551E0,3.316563529E0
3.376126875E0,-2.923772425E0,3.499973720E-1,-7.323210758E-1,3.034343012E0
3.386149875E0,-3.699254431E0,5.411609781E-1,-1.354881728E-1,3.741082142E0
3.396171875E0,-4.039683127E0,8.326107645E-1,-2.800427458E-1,4.134090516E0
3.406194875E0,-3.702525071E0,1.294419179E0,-2.496223140E-1,3.930206637E0
3.416216875E0,-3.089138993E0,1.680239518E0,-2.937553436E-2,3.516652880E0
3.426239875E0,-2.441724897E0,1.721430228E0,-3.511252999E-3,2.987533236E0
3.436261875E0,-1.507902777E0,1.504531272E0,-1.839165670E-1,2.138038923E0
3.446284875E0,-1.061095248E0,1.234628475E0,-4.373278767E-1,1.685670866E0
3.456306875E0,-1.033975862E0,1.092322449E0,2.761210182E-1,1.529221119E0
3.466329875E0,-9.261312778E-1,1.289749593E0,1.084867834E0,1.923047418E0
3.476351875E0,-7.805920337E-1,1.650829777E0,1.500654568E0,2.363583510E0
3.486373875E0,-9.054780351E-1,1.828865799E0,1.427370537E0,2.490386965E0
3.496396875E0,-1.190551287E0,1.458860425E0,7.389544496E-1,2.022804930E0
3.506418875E0,-4.826839976E-1,1.429002787E0,1.157594040E0,1.901330263E0
3.516441875E0,-1.066825958E-1,1.504228386E0,4.954994863E-1,1.587326039E0
3.526463875E0,1.315310696E-1,1.276489862E0,-2.662830779E-1,1.310585162E0
3.536486875E0,4.533106560E-1,9.548245883E-1,-5.638136762E-1,1.197942572E0
3.546508875E0,8.472001523E-1,5.592084092E-1,-3.629700047E-1,1.078058146E0
3.556531875E0,9.773784685E-1,1.256800532E-2,7.691368997E-2,9.804806684E-1
3.566553875E0,8.776917739E-1,-2.947908854E-1,-3.913482964E-2,9.267017055E-1
3.576576875E0,3.935519658E-1,-4.973372662E-1,-5.752613550E-1,8.562436176E-1
3.586598875E0,4.949741140E-2,-6.921992362E-1,-5.680327347E-1,8.968004036E-1
3.596621875E0,-1.321454658E-1,-9.595064539E-1,-8.724045753E-3,9.686026885E-1
3.606643875E0,-3.271604866E-1,-1.178248453E0,6.796984738E-1,1.399033029E0
3.616665875E0,-7.612460822E-1,-1.372123412E0,1.295329006E0,2.034722460E0
3.626688875E0,-1.027741560E0,-1.100600937E0,6.538869636E-1,1.641689160E0
3.636710875E0,-9.337241797E-1,-7.342588431E-1,5.596590833E-1,1.313086129E0
3.646733875E0,-5.396418715E-1,-5.099736840E-1,4.607667330E0,4.667106677E0
3.656755875E0,-1.369184017E-1,-6.718860090E-2,3.741970096E0,3.745076922E0
3.666778875E0,1.556258373E-1,4.480803216E-1,6.913470045E-1,8.384247470E-1
3.676800875E0,3.245223691E-1,4.050611866E-1,3.325007486E-1,6.163976644E-1
3.686823875E0,7.042510785E-1,8.237305981E-1,-9.699278001E-1,1.454393900E0
3.696845875E0,8.455686329E-1,1.329916456E0,-1.144517766E0,1.947712763E0
3.706868875E0,9.916478674E-1,1.771678861E0,-5.443624748E-1,2.102032822E0
3.716890875E0,5.294377492E-1,1.923570228E0,-7.196754487E-1,2.120933639E0
3.726913875E0,1.894613354E-1,1.749545395E0,-5.734849709E-1,1.850861880E0
3.736935875E0,2.706528483E-1,1.735951788E0,-1.922564507E-2,1.757029084E0
3.746957875E0,3.825841972E-1,1.529137525E0,9.966947454E-1,1.864948432E0
3.756980875E0,3.496341138E-1,1.046146987E0,1.446271954E0,1.818892547E0
3.767002875E0,2.876267307E-1,7.507737190E-1,9.944581854E-1,1.278803111E0
3.777025375E0,1.495426865E-1,7.393564457E-1,4.233318351E-2,7.555151006E-1
3.787047375E0,-2.104332514E-1,8.145224029E-1,-1.206023969E0,1.470449834E0
3.797070375E0,-5.999936154E-1,9.865118194E-1,-1.375800726E0,1.796114013E0
3.807092375E0,1.170261741E-2,1.216462930E0,-2.547022288E-1,1.242896712E0
3.817115375E0,8.182425477E-1,1.217835272E0,3.764390659E-1,1.514711189E0
3.827137375E0,-7.980642450E-1,1.818823206E-1,1.083985050E0,1.358311933E0
3.837160375E0,-2.895338293E0,-1.015156744E0,7.841776925E-1,3.166774652E0
3.847182375E0,-3.330969600E0,-6.177454698E-1,-2.671476472E0,4.314366058E0
3.857205375E0,-2.360987128E0,-1.859952521E-1,-1.476763576E0,2.791000737E0
3.867227375E0,-2.089446526E0,-1.112380153E0,2.375803826E0,3.353747190E0
3.877249375E0,-1.302604111E0,-1.237749719E0,3.611387152E0,4.033722722E0
3.887272375E0,9.776471481E-2,7.685229421E-2,6.332412345E0,6.333633264E0
3.897294375E0,1.673490369E0,6.447666228E-1,6.885670627E0,7.115388535E0
3.907317375E0,2.467057520E0,4.019931525E-1,6.307845853E0,6.785049050E0
3.917339375E0,2.920100666E0,-3.635330915E-2,5.486396838E0,6.215211962E0
3.927362375E0,3.158241388E0,-3.690563715E-1,4.656298622E0,5.638422486E0
3.937384375E0,2.882713569E0,-7.506409872E-1,3.373991366E0,4.500812944E0
3.947407375E0,1.975690115E0,-1.082124905E0,2.279109591E0,3.204479095E0
3.957429375E0,2.079946847E0,-1.159522744E0,1.699560911E0,2.925607488E0
3.967452375E0,2.328886791E0,-1.256663707E0,1.491410266E0,3.037634267E0
3.977474375E0,2.203403497E0,-1.192755979E0,1.312332124E0,2.828404038E0
3.987496375E0,1.558613193E0,-9.850488460E-1,8.728934026E-1,2.039985100E0
3.997519375E0,8.489456923E-1,-6.495338577E-1,4.114106780E-1,1.145365342E0
4.007541375E0,1.199421367E0,-9.063652039E-2,1.429515588E-1,1.211305800E0
4.017564375E0,1.334331250E0,-1.863507628E-2,1.496346340E-2,1.334545262E0
4.027586375E0,1.301882419E0,-3.772623539E-3,3.103368777E-1,1.338365063E0
4.037609375E0,1.131912923E0,3.321481615E-1,6.408906497E-1,1.342493982E0
4.047631375E0,4.476792026E-1,5.130072194E-1,7.499406369E-1,1.012918572E0
4.057654375E0,-3.715054777E-1,3.993069416E-1,7.408961637E-1,9.199942821E-1
4.067676375E0,-1.081643533E0,1.664100033E-1,6.732348154E-1,1.284869697E0
4.077699375E0,-1.658764303E0,-8.767315149E-3,3.812821685E-1,1.702043469E0
4.087721375E0,-2.010128900E0,9.432143569E-2,-5.128841355E-2,2.012994095E0
4.097743375E0,-2.156721666E0,3.362669402E-1,-3.251513833E-1,2.206863662E0
4.107766375E0,-2.338676638E0,5.456545633E-1,-8.092704338E-1,2.534179543E0
4.117788375E0,-2.301517437E0,8.656124496E-1,-1.205716918E0,2.738616569E0
4.127811375E0,-1.026739055E0,1.141122726E0,-9.017423952E-1,1.780307139E0
4.137833375E0,-4.724915698E-1,1.023700696E0,-4.943259501E-1,1.231084702E0
4.147856375E0,-9.342476517E-1,1.942041582E-1,-9.541100585E-1,1.349392431E0
4.157878375E0,-1.476891630E0,-7.326900351E-1,-1.452928424E0,2.197508721E0
4.167901375E0,-1.727707945E0,-1.540850667E0,-1.712428440E0,2.879515009E0
4.177923375E0,-2.007514756E0,-2.462796947E0,-1.540444578E0,3.531069780E0
4.187946375E0,-1.940774636E0,-3.252369865E0,-1.264726726E0,3.993000078E0
4.197968375E0,-1.528407062E0,-4.042187782E0,-1.147142727E0,4.471157193E0
4.207990375E0,-1.086210062E0,-4.512168850E0,-1.181657964E0,4.789137247E0
4.218013375E0,-5.563994068E-1,-4.638204998E0,-1.662068418E0,4.958326062E0
4.228035375E0,1.576152062E-1,-4.452479888E0,-2.151102930E0,4.947389566E0
4.238058375E0,8.704479508E-1,-4.017839976E0,-2.778880468E0,4.962146145E0
4.248080375E0,1.227295628E0,-3.346350408E0,-3.577913304E0,5.050324665E0
4.258103375E0,1.190238168E0,-2.506939917E0,-3.975402931E0,4.848220613E0
4.268125375E0,8.188981667E-1,-1.596212105E0,-3.672268361E0,4.087057892E0
4.278148375E0,1.514025396E-1,-7.740965080E-1,-2.962230440E0,3.065445695E0
4.288170375E0,1.166782647E-1,-3.313617110E-2,-2.220407054E0,2.223717452E0
4.298193375E0,3.945103244E-1,6.618796688E-1,-1.772468527E0,1.932709956E0
4.308215375E0,1.891139377E-1,1.639100263E0,-1.391513364E0,2.158407560E0
4.318238375E0,1.849200223E-1,2.422034837E0,-4.803861880E-1,2.476129854E0
4.328260375E0,2.605810925E-1,2.978690937E0,7.314305449E-1,3.078228848E0
4.338282375E0,1.794233472E-1,2.993611277E0,1.951112660E0,3.577812436E0
4.348305375E0,1.570432755E-1,3.065689904E0,2.470261502E0,3.940216881E0
4.358327375E0,1.082850983E-1,3.206798421E0,2.572097195E0,4.112294463E0
4.368350375E0,-1.267474625E-1,2.979903064E0,2.113426396E0,3.655469645E0
4.378372375E0,-4.267797920E-1,2.398520259E0,1.358792053E0,2.789508249E0
4.388395375E0,-7.814186107E-1,1.825822324E0,5.842605123E-1,2.070169691E0
4.398417375E0,-1.126223217E0,1.312995783E0,-4.679994464E-2,1.730470137E0
4.408440375E0,-1.452671732E0,1.008045360E0,-5.427686700E-1,1.849596831E0
4.418462375E0,-1.729767188E0,9.056302088E-1,-9.533282858E-1,2.172808188E0
4.428484375E0,-2.010178455E0,9.905241787E-1,-1.315667376E0,2.598641224E0
4.438507375E0,-2.157710576E0,1.259704844E0,-1.750789683E0,3.050874586E0
4.448529375E0,-2.099192373E0,1.407290906E0,-2.117130900E0,3.296865111E0
4.458552375E0,-1.864578838E0,1.470373008E0,-2.063798738E0,3.146095399E0
4.468574375E0,-1.592901704E0,1.447133249E0,-1.433037074E0,2.585561010E0
4.478597375E0,-1.400206127E0,1.393737645E0,-3.989619559E-1,2.015503030E0
4.488619375E0,-1.099399115E0,1.230282240E0,4.055505985E-1,1.699042110E0
4.498642375E0,-6.531825203E-1,9.899856502E-1,7.012492642E-1,1.377849601E0
4.508664375E0,-2.938889524E-1,5.186065131E-1,1.121093966E0,1.269714579E0
4.518687375E0,1.323056795E-2,-2.794355124E-1,1.844849748E0,1.865939400E0
4.528709375E0,2.575540620E-1,-8.728542262E-1,2.438348569E0,2.602643337E0
4.538731375E0,6.540544132E-1,-9.875023377E-1,2.677194172E0,2.927510320E0
4.548754375E0,1.233550249E0,-5.616355884E-1,2.447385148E0,2.797637363E0
4.558776375E0,1.736408456E0,1.424650705E-1,1.501755306E0,2.300147739E0
4.568799375E0,2.152275297E0,5.290005237E-1,7.986703089E-1,2.355844810E0
4.578821375E0,2.544821980E0,7.131135571E-1,4.311298281E-1,2.677783185E0
4.588844375E0,2.928500776E0,8.260075039E-1,1.605253655E-1,3.046994189E0
4.598866375E0,3.332403337E0,8.963226110E-1,7.595767021E-2,3.451677243E0
4.608889375E0,3.738778101E0,9.142928588E-1,1.326350239E-1,3.851231643E0
4.618911375E0,4.053231418E0,7.704583704E-1,8.048633873E-2,4.126592914E0
4.628934375E0,4.197504155E0,4.935143566E-1,-2.311579764E-2,4.226479847E0
4.638956375E0,4.027772641E0,9.745554328E-2,1.814975739E-3,4.028951889E0
4.648978375E0,3.355236714E0,-3.695703417E-1,3.322130656E-1,3.391837432E0
4.659001375E0,2.580529757E0,-7.628610831E-1,1.041184455E0,2.885334630E0
4.669023375E0,1.867488559E0,-9.784514326E-1,1.787147670E0,2.763833844E0
4.679046375E0,1.211468750E0,-9.642467916E-1,2.390393214E0,2.848053393E0
4.689068375E0,6.716549709E-1,-8.479123431E-1,2.835910116E0,3.035203771E0
4.699091375E0,2.521711153E-1,-7.724364835E-1,2.907102891E0,3.018525403E0
4.709113375E0,-2.113234900E-2,-7.642386872E-1,2.751352654E0,2.855599547E0
4.719136375E0,-1.252344954E-1,-7.310779577E-1,2.383982327E0,2.496703906E0
4.729158375E0,1.659015879E-2,-6.708902282E-1,2.220092181E0,2.319305548E0
4.739180375E0,3.156683689E-1,-4.614704454E-1,2.016854075E0,2.092917067E0
4.749203375E0,5.910570965E-1,-1.151416165E-1,1.802858261E0,1.900764055E0
4.759225375E0,6.573203755E-1,4.068551123E-2,1.774906231E0,1.893150157E0
4.769248375E0,3.657314985E-1,-2.384313279E-1,1.902639534E0,1.952087658E0
4.779270500E0,-2.955207641E-1,-2.891079766E-1,2.227767821E0,2.265803480E0
4.789293500E0,-7.710961555E-1,-2.166948885E-1,2.047387358E0,2.198486058E0
4.799315500E0,-1.199803921E0,-3.629922241E-1,1.781454821E0,2.178273188E0
4.809338500E0,-1.675333704E0,-7.664384097E-1,1.884006505E0,2.635080903E0
4.819360500E0,-1.568385498E0,-1.163863133E0,1.253811143E0,2.320873294E0
4.829382500E0,-6.273970301E-1,-7.984425598E-1,6.193049222E-2,1.017336198E0
4.839405500E0,-2.278314954E-1,-4.294528466E-1,3.218243176E-1,5.830161483E-1
4.849427500E0,-4.893076504E-1,-1.342082173E0,1.247184055E0,1.896331881E0
4.859450500E0,-1.087144155E0,-2.947301329E0,1.470164116E0,3.468407425E0
4.869472500E0,-1.768621936E0,-2.798480335E0,3.358260602E-1,3.327505805E0
4.879495500E0,-5.442591253E-1,-1.427314696E0,-6.778785279E-1,1.671216484E0
4.889517500E0,1.070463364E0,-1.784079051E-1,-2.401426325E0,2.635255128E0
4.899540500E0,2.110977290E0,7.384132898E-1,-4.289215979E0,4.837236093E0
4.909562500E0,1.725049947E0,5.888760120E-1,-6.038068187E0,6.307205380E0
4.919585500E0,1.028959974E0,-2.352235454E-1,-7.207135926E0,7.284016543E0
4.929607500E0,-2.967933375E-1,-1.073312566E0,-6.978705091E0,7.066994474E0
4.939629500E0,-2.200463663E0,-1.733405911E0,-5.221895115E0,5.925784756E0
4.949652500E0,-3.072055183E0,-2.315596801E0,-2.832119951E0,4.777071803E0
4.959674500E0,-4.156226906E0,-2.725749743E0,-1.283270878E-1,4.971961544E0
4.969697500E0,-4.280888082E0,-2.362241794E0,1.490683896E0,5.111587575E0
4.979719500E0,-4.434703475E0,-1.393075740E0,1.730021542E0,4.959861839E0
4.989742500E0,-4.354797472E0,-1.576350868E-2,1.170489197E0,4.509385155E0
4.999764500E0,-3.302976347E0,1.486339415E0,8.407183675E-1,3.718287910E0
5.009787500E0,-2.663162024E0,2.331128175E0,6.861951689E-1,3.605198239E0
5.019809500E0,-2.485564543E0,2.758582444E0,7.363223255E-2,3.713923788E0
5.029831500E0,-2.121001756E0,2.920008865E0,-4.176514113E-1,3.633116145E0
5.039854500E0,-1.533705370E0,2.809876558E0,-6.411407644E-1,3.264769504E0
5.049876500E0,-8.869408996E-1,2.513880562E0,-7.070685594E-1,2.757935022E0
5.059899500E0,-7.495035575E-1,1.972203274E0,-8.783120173E-1,2.285338780E0
5.069921500E0,-4.702190495E-1,1.402172838E0,-3.794633920E-1,1.526822547E0
5.079944500E0,-3.668411538E-1,1.072543073E0,2.122660612E-1,1.153246702E0
5.089966500E0,-3.165106604E-1,9.191548187E-1,5.576774620E-1,1.120726876E0
5.099989500E0,-3.114645132E-1,8.934335017E-1,4.203023927E-1,1.035320079E0
5.110011500E0,3.783937901E-2,9.282080626E-1,4.475246899E-1,1.031154874E0
5.120033500E0,1.081750976E-1,8.560803187E-1,-1.847246522E-1,8.824389842E-1
5.130056500E0,3.281303935E-1,6.231634998E-1,-5.908207959E-1,9.192777140E-1
5.140078500E0,5.204320139E-1,2.103646928E-1,-1.055921777E0,1.195856841E0
5.150101500E0,5.586862528E-1,-3.519725615E-1,-1.846192269E0,1.960724587E0
5.160123500E0,8.218046714E-1,-9.028323162E-1,-2.212862099E0,2.527296536E0
5.170146500E0,1.148253260E0,-1.242149749E0,-2.036217422E0,2.647187741E0
5.180168500E0,1.482912362E0,-1.229949533E0,-1.267491728E0,2.306152685E0
5.190191500E0,1.507177576E0,-8.880792063E-1,-3.817625172E-1,1.790533870E0
5.200213500E0,8.591297878E-1,-4.336049545E-1,-1.709493430E-1,9.774154320E-1
5.210235500E0,3.158288750E-1,-2.302399635E-2,1.874756210E-1,3.680014825E-1
5.220258500E0,9.211557359E-3,2.954206306E-1,8.500962782E-1,9.000121577E-1
5.230280500E0,-5.840345174E-2,5.390787846E-1,1.452234214E0,1.550161640E0
5.240303500E0,9.032325581E-2,7.148677218E-1,1.734393505E0,1.878114741E0
5.250325500E0,2.998301621E-1,7.946453780E-1,1.584661954E0,1.797919050E0
5.260348500E0,4.568328725E-1,7.521981007E-1,1.145914958E0,1.444859629E0
5.270370500E0,5.460530511E-1,5.427356333E-1,7.446323884E-1,1.071080434E0
5.280393500E0,4.648413652E-1,3.101626307E-1,4.816374922E-1,7.377350650E-1
5.290415500E0,2.804567286E-1,1.413131690E-1,3.181493425E-1,4.470395872E-1
5.300437500E0,1.808343534E-1,1.413698870E-1,1.884693553E-1,2.969969801E-1
5.310460500E0,1.081759746E-1,2.553362131E-1,1.031033689E-1,2.958528822E-1
5.320482500E0,8.221462950E-2,3.453669620E-1,1.138164912E-1,3.728160101E-1
5.330505500E0,4.075597018E-2,3.735242289E-1,3.095818560E-1,4.868493856E-1
5.340527500E0,-7.836423799E-2,3.311968195E-1,5.112343436E-1,6.141602732E-1
5.350550500E0,-2.499290004E-2,3.535402000E-1,6.951975422E-1,7.803300204E-1
5.360572500E0,-6.752671614E-2,4.019259095E-1,5.459638810E-1,6.813081928E-1
5.370595500E0,8.175138384E-3,6.117427182E-1,5.017133224E-1,7.912093554E-1
5.380617500E0,1.613860756E-2,7.880941576E-1,4.914233923E-1,9.288970914E-1
5.390639500E0,5.575217798E-2,9.838682932E-1,6.402573232E-1,1.175174269E0
5.400662500E0,1.755649889E-1,1.103974780E0,9.115224481E-1,1.442378783E0
5.410684500E0,3.072565645E-1,1.091389233E0,7.559514284E-1,1.362717732E0
5.420707500E0,7.769400090E-1,8.707375342E-1,1.102810088E0,1.605618174E0
5.430729500E0,1.595508539E0,5.437167960E-1,2.319789839E0,2.867525126E0
5.440752500E0,1.781041130E0,8.325382590E-2,2.566440014E0,3.125004488E0
5.450774500E0,1.868672035E0,-2.720130569E-1,2.361114451E0,3.023373568E0
5.460797500E0,1.786967576E0,-5.125470436E-1,2.138517383E0,2.833586806E0
5.470819500E0,1.499338652E0,-6.186231369E-1,1.975284172E0,2.555867473E0
5.480841500E0,6.488845244E-1,-7.106869626E-1,1.940519552E0,2.166043216E0
5.490864500E0,-2.617487083E-1,-6.851270288E-1,1.737079716E0,1.885565531E0
5.500886500E0,-6.997591013E-1,-6.018702793E-1,1.626543952E0,1.870175355E0
5.510909500E0,-8.546451196E-1,-6.036472481E-1,1.964183233E0,2.225494115E0
5.520931500E0,-1.205068315E0,-7.217007780E-1,1.999498662E0,2.443570452E0
5.530954500E0,-1.156464066E0,-5.885684484E-1,2.143161242E0,2.505386610E0
5.540976500E0,-1.349293251E-1,-1.868910456E-1,2.522080112E0,2.532592008E0
5.550999500E0,1.257901271E0,1.958039564E-1,3.716470973E0,3.928461695E0
5.561021500E0,1.391645219E0,6.527129889E-2,3.143261991E0,3.438172872E0
5.571043500E0,1.727236367E0,5.530881286E-2,2.528099821E0,3.062301951E0
5.581066500E0,1.985048876E0,-4.042998791E-2,1.892438482E0,2.742877510E0
5.591088500E0,2.104537020E0,-3.117524886E-1,1.388510234E0,2.540516947E0
5.601111500E0,2.235080788E0,-6.982323933E-1,1.122971215E0,2.596955708E0
5.611133500E0,1.645654553E0,-1.189332435E0,3.223757100E-1,2.055873694E0
5.621156500E0,7.008908299E-1,-1.560986724E0,-4.442697642E-1,1.767852689E0
5.631178500E0,-6.830585763E-2,-1.787044174E0,-8.917811517E-1,1.998365881E0
5.641201500E0,-6.684307431E-1,-1.887534422E0,-1.153178004E0,2.310715336E0
5.651223500E0,-1.005632361E0,-1.653476227E0,-1.271478213E0,2.315585655E0
5.661245500E0,-1.214039698E0,-1.099087678E0,-1.349555937E0,2.122071474E0
5.671268500E0,-1.367166143E0,-4.435487294E-1,-1.351116706E0,1.972661930E0
5.681290500E0,-1.524346024E0,1.090406317E-1,-1.412164561E0,2.080800184E0
5.691313500E0,-1.643083532E0,4.501204151E-1,-1.465817296E0,2.247432363E0
5.701335500E0,-1.712211654E0,5.559532642E-1,-1.379925937E0,2.268247864E0
5.711358500E0,-1.693606837E0,3.381152451E-1,-1.108743185E0,2.052300536E0
5.721380500E0,-1.504388892E0,-3.465042454E-1,-3.909979020E-1,1.592523309E0
5.731403500E0,-1.171074796E0,-1.376624599E0,6.159471586E-2,1.808398566E0
5.741425500E0,-7.630116490E-1,-2.246476865E0,6.222270682E-2,2.373334520E0
5.751447500E0,-3.838375479E-1,-2.676339017E0,-2.102854630E-1,2.711888967E0
5.761470500E0,6.629090711E-2,-2.931103372E0,-8.572968319E-1,3.054622615E0
5.771492500E0,5.953901026E-1,-2.960333603E0,-1.596729876E0,3.415788447E0
5.781521875E0,1.242192433E0,-2.719711908E0,-2.198114252E0,3.711008107E0
5.791543875E0,1.634216814E0,-2.212069509E0,-2.922792724E0,4.013307043E0
5.801566875E0,1.839363013E0,-1.667396109E0,-3.391404959E0,4.202986280E0
5.811588875E0,1.885898956E0,-1.111355721E0,-3.443855360E0,4.080669817E0
5.821611875E0,1.845367811E0,-5.662040180E-1,-3.273230392E0,3.800000861E0
5.831633875E0,1.574079809E0,-1.223184890E-1,-2.886592905E0,3.290153136E0
5.841655875E0,1.194056400E0,3.046726799E-1,-2.324300966E0,2.630773861E0
5.851678875E0,7.103273588E-1,7.109079874E-1,-1.695856261E0,1.971264463E0
5.861700875E0,3.339412833E-1,1.115799605E0,-9.787467170E-1,1.521338448E0
5.871723875E0,1.742971663E-1,1.441024663E0,-2.457403475E-1,1.472182020E0
5.881745875E0,8.489031538E-2,1.698955870E0,4.967566377E-1,1.772124310E0
5.891768875E0,-2.170884792E-1,1.760943373E0,8.189525458E-1,1.954157681E0
5.901790875E0,-3.974816602E-1,1.770311782E0,6.443286663E-1,1.925397337E0
5.911812875E0,-6.901133882E-1,1.629776292E0,2.011038727E-1,1.781255181E0
5.921835875E0,-1.432054157E0,1.410607447E0,-2.596673919E-1,2.026825013E0
5.931857875E0,-1.687031936E0,1.447306327E0,-5.475192404E-1,2.289224688E0
5.941880875E0,-1.910384464E0,1.379883252E0,-6.814497149E-1,2.453165364E0
5.951902875E0,-1.906180608E0,1.204473215E0,-6.684156865E-1,2.351820522E0
5.961925875E0,-1.866494679E0,9.566951126E-1,-6.697747256E-1,2.201741608E0
5.971947875E0,-1.749999139E0,8.171144736E-1,-4.703409639E-1,1.987811277E0
5.981970875E0,-1.315239360E0,8.799340349E-1,-1.564785075E-1,1.590164772E0
5.991992875E0,-7.213924836E-1,1.079281404E0,-3.771921873E-2,1.298721758E0
6.002014875E0,-1.551086511E-1,1.321731523E0,-2.046602954E-1,1.346446713E0
6.012037875E0,3.062088165E-1,1.410887529E0,-3.163723737E-1,1.477991521E0
6.022059875E0,5.632058582E-1,1.281578693E0,-2.320235105E-1,1.418971351E0
6.032082875E0,7.551818617E-1,1.152480943E0,6.868724227E-3,1.377882124E0
6.042104875E0,8.854107564E-1,1.095325579E0,3.029395652E-1,1.440646630E0
6.052127875E0,9.323973734E-1,1.056374352E0,5.147605070E-1,1.500090002E0
6.062149875E0,9.083560346E-1,1.042304782E0,5.698047334E-1,1.495388705E0
6.072171875E0,8.444201667E-1,1.011057261E0,5.404704219E-1,1.423864629E0
6.082194875E0,8.891727819E-1,9.941886288E-1,5.455813269E-1,1.441075380E0
6.092216875E0,1.063208651E0,1.016809752E0,6.883307183E-1,1.624227165E0
6.102239875E0,1.262675376E0,1.033557347E0,8.680723733E-1,1.848280157E0
6.112261875E0,1.395192579E0,9.357211500E-1,1.124646442E0,2.021624600E0
6.122284875E0,1.390228146E0,8.921079379E-1,1.269071207E0,2.083058472E0
6.132306875E0,1.266741384E0,7.943676353E-1,1.153888367E0,1.888679972E0
6.142329875E0,1.232348938E0,7.004566741E-1,9.883038448E-1,1.728024290E0
6.152351875E0,1.159701596E0,5.754227382E-1,8.821716182E-1,1.566603295E0
6.162373875E0,1.106817185E0,3.259764254E-1,8.398009394E-1,1.427084626E0
6.172396875E0,1.082093622E0,-1.975364864E-2,8.187160259E-1,1.357060332E0
6.182418875E0,1.076367736E0,-4.384061033E-1,7.990750824E-1,1.410421356E0
6.192441875E0,1.048314769E0,-9.283489805E-1,8.238035421E-1,1.624637794E0
6.202463875E0,1.062007267E0,-1.389500753E0,9.993400258E-1,2.014262213E0
6.212486875E0,1.255085983E0,-1.559215018E0,1.257709190E0,2.363942618E0
6.222508875E0,1.547641770E0,-1.478302417E0,1.455926292E0,2.588492699E0
6.232530875E0,1.904686937E0,-1.306089637E0,1.804706274E0,2.930983999E0
6.242553875E0,2.199211189E0,-1.134836385E0,2.301148331E0,3.379299797E0
6.252575875E0,2.425010193E0,-1.050568652E0,2.776771085E0,3.833383177E0
6.262598875E0,2.780149314E0,-8.466306335E-1,2.915134041E0,4.116311470E0
6.272620875E0,2.979599594E0,-7.461175811E-1,2.650740491E0,4.057231856E0
6.282643875E0,2.954690455E0,-9.521196663E-1,1.806134748E0,3.591496941E0
6.292665875E0,2.552717183E0,-1.511586522E0,4.959503067E-1,3.007860625E0
6.302687875E0,1.985715313E0,-2.009490969E0,-8.038629287E-1,2.937229113E0
6.312710875E0,1.149356044E0,-2.216723308E0,-1.676868890E0,3.007785035E0
6.322732875E0,-2.630173349E-1,-1.991340042E0,-1.705623450E0,2.635102395E0
6.332755875E0,-1.581952793E0,-1.653417755E0,-1.133040851E0,2.553457750E0
6.342777875E0,-2.559768925E0,-1.643946435E0,-2.138782847E-1,3.049708306E0
6.352800875E0,-3.085551142E0,-1.755047625E0,6.209295711E-1,3.603660853E0
6.362822875E0,-3.068537790E0,-1.753202244E0,9.953481317E-1,3.671561001E0
6.372845875E0,-2.504741071E0,-1.338320074E0,1.104811371E0,3.047201441E0
6.382867875E0,-1.813470958E0,-7.309884953E-1,1.198909297E0,2.293557193E0
6.392889875E0,-1.343831952E0,-3.081242913E-1,9.038285355E-1,1.648554189E0
6.402912875E0,-9.731661344E-1,-6.326687336E-2,-7.148937419E-2,9.778372835E-1
6.412934875E0,-3.676100627E-1,9.930150926E-2,-1.372395893E0,1.424243109E0
6.422957875E0,2.397114662E-1,-5.630283952E-3,-2.811676039E0,2.821881542E0
6.432979875E0,1.897250814E-1,-5.471339089E-1,-4.152591984E0,4.192776086E0
6.443002875E0,-2.881267041E-1,-1.211027943E0,-4.867946194E0,5.024590116E0
6.453024875E0,-1.134827614E0,-1.642077080E0,-4.581948937E0,4.997850229E0
6.463046875E0,-2.187560466E0,-1.911188748E0,-3.333066704E0,4.421243816E0
6.473069875E0,-2.544945357E0,-2.145567956E0,-2.258895328E0,4.022787196E0
6.483091875E0,-2.423992485E0,-2.180676393E0,-1.623172447E0,3.642221560E0
6.493114875E0,-2.105870624E0,-2.030959606E0,-9.036678833E-1,3.062042398E0
6.503136875E0,-1.719481936E0,-1.791873974E0,-2.140990171E-1,2.492642946E0
6.513159875E0,-1.357990254E0,-9.816983914E-1,-7.880818784E-2,1.677521979E0
6.523181875E0,-9.459809670E-1,1.272155321E-1,-1.860719968E-1,9.724641739E-1
6.533203875E0,-6.997482839E-1,1.184897906E0,-3.243959230E-1,1.413811665E0
6.543226875E0,-6.166726519E-1,2.030676016E0,-4.102562915E-1,2.161536598E0
6.553248875E0,-6.784416879E-1,2.428379651E0,-4.010517508E-1,2.553067441E0
6.563271875E0,-8.811417042E-1,2.264602064E0,-2.573353761E-1,2.443574166E0
6.573293875E0,-1.154316676E0,1.783495499E0,-1.196262847E-1,2.127818985E0
6.583316875E0,-1.320844793E0,1.215946621E0,1.116467357E-1,1.798783519E0
6.593338875E0,-1.327100875E0,8.694640106E-1,1.187253018E-1,1.590993431E0
6.603361875E0,-1.241502023E0,1.065808834E0,3.811741412E-1,1.680050437E0
6.613383875E0,-1.258298150E0,1.236618283E0,4.978699476E-1,1.833143065E0
6.623405875E0,-1.262388424E0,1.279797047E0,4.600564425E-1,1.855574559E0
6.633428875E0,-1.188540868E0,1.372019917E0,6.074888688E-1,1.914186713E0
6.643450875E0,-1.162466379E0,1.499594468E0,6.037308633E-1,1.991130987E0
6.653473875E0,-1.162875246E0,1.541324877E0,3.789134614E-1,1.967622073E0
6.663495875E0,-1.026682776E0,1.328228949E0,8.238712236E-2,1.680790677E0
6.673518875E0,-6.736919215E-1,7.428641903E-1,-2.914756604E-1,1.044349592E0
6.683540875E0,-5.893788725E-2,-8.720362008E-2,-7.363071227E-1,7.437918559E-1
6.693562875E0,5.260697530E-1,-7.818417299E-1,-1.205804333E0,1.530356157E0
6.703585875E0,9.333113663E-1,-1.244416714E0,-1.402927129E0,2.094718978E0
6.713607875E0,1.018251822E0,-1.373747184E0,-1.442702375E0,2.237276970E0
6.723630875E0,9.041784914E-1,-1.083749846E0,-1.303822379E0,1.921459151E0
6.733652875E0,9.452407095E-1,-5.974532926E-1,-3.266745830E-1,1.164966402E0
6.743675875E0,7.552921548E-1,-4.483995795E-2,6.006558126E-1,9.660560368E-1
6.753697875E0,4.633063249E-1,4.392679828E-1,1.148089537E0,1.313666129E0
6.763719875E0,2.688428427E-1,7.555327678E-1,1.457950598E0,1.663948973E0
6.773742875E0,2.530420581E-1,9.019645894E-1,1.632963464E0,1.882588664E0
6.783762750E0,3.579909544E-1,8.179050171E-1,1.638876314E0,1.866290897E0
6.793785750E0,4.240979666E-1,5.650182027E-1,1.470505155E0,1.631407388E0
6.803807750E0,4.300391762E-1,2.979828805E-1,1.304599766E0,1.405598819E0
6.813830750E0,3.705845413E-1,2.137093002E-1,1.232381975E0,1.304519030E0
6.823852750E0,2.837593822E-1,2.637029940E-1,1.249015549E0,1.307707344E0
6.833874750E0,2.542967243E-1,3.934421843E-1,1.364724931E0,1.442892135E0
6.843897750E0,2.232537103E-1,5.200496060E-1,1.455085901E0,1.561271530E0
6.853919750E0,1.874212418E-1,5.937713009E-1,1.545614832E0,1.666318184E0
6.863942750E0,1.373182051E-1,6.583783561E-1,1.647450671E0,1.779441503E0
6.873964750E0,3.141334748E-1,7.814102054E-1,1.993150340E0,2.163776797E0
6.883987750E0,9.045037428E-1,1.002505708E0,2.481586390E0,2.825139948E0
6.894009750E0,1.310502823E0,1.243468881E0,2.546068607E0,3.121874093E0
6.904031750E0,1.153890268E0,1.354327996E0,2.121910706E0,2.769146460E0
6.914054750E0,1.339749280E0,1.694766925E0,1.760655836E0,2.786946723E0
6.924076750E0,1.688108262E0,2.066944540E0,1.639700187E0,3.132185489E0
6.934099750E0,1.825304845E0,2.299881240E0,1.481893777E0,3.288951301E0
6.944121750E0,1.686617222E0,2.357965726E0,1.348966100E0,3.197559938E0
6.954144750E0,1.126433497E0,2.241300910E0,1.277330106E0,2.814934172E0
6.964166750E0,3.765279436E-1,2.045340248E0,1.182133927E0,2.392202049E0
6.974188750E0,-1.725848092E-1,1.751303068E0,1.352991323E0,2.219782303E0
6.984211750E0,-5.764278746E-1,1.268030695E0,1.899881988E0,2.355784902E0
6.994233750E0,-9.509163094E-1,7.290536517E-1,2.507473183E0,2.779061499E0
7.004256750E0,-1.140388462E0,2.574359483E-1,3.045914621E0,3.262568772E0
7.014278750E0,-1.085934951E0,-1.850035644E-1,3.500556688E0,3.669792659E0
7.024301750E0,-8.147995609E-1,-5.835702485E-1,3.753937592E0,3.885421470E0
7.034323750E0,-2.176123166E-1,-1.042118255E0,3.894220482E0,4.037117627E0
7.044345750E0,3.967403063E-1,-1.514960951E0,3.601402447E0,3.927162988E0
7.054368750E0,1.019447139E0,-1.821022344E0,2.995844328E0,3.651092725E0
7.064390750E0,1.709533045E0,-1.702632015E0,2.934229878E0,3.798837189E0
7.074413750E0,1.878099794E0,-1.414745522E0,2.296198078E0,3.286531506E0
7.084435750E0,1.988757034E0,-1.214738002E0,1.133787394E0,2.591566478E0
7.094458750E0,2.244752229E0,-1.287342879E0,1.578045829E-1,2.592501985E0
7.104480750E0,2.247142278E0,-1.367062647E0,-6.143781314E-1,2.701105179E0
7.114502750E0,2.023186317E0,-1.092100255E0,-1.324248896E0,2.653224638E0
7.124525750E0,1.573093969E0,-8.817232829E-1,-1.861158802E0,2.591519374E0
7.134547750E0,5.000139754E-1,-9.822538769E-1,-2.054702809E0,2.331660415E0
7.144570750E0,-6.689436901E-1,-1.261390597E0,-1.952726345E0,2.419035361E0
7.154592750E0,-1.520810359E0,-1.471988009E0,-1.725548861E0,2.730774930E0
7.164615750E0,-2.155480156E0,-1.354022772E0,-1.583999026E0,2.998086937E0
7.174637750E0,-2.722646918E0,-1.137892140E0,-1.521873529E0,3.320196350E0
7.184659750E0,-3.114415922E0,-1.188110951E0,-1.281522560E0,3.571203472E0
7.194682750E0,-3.325047832E0,-1.402811939E0,-1.081852863E0,3.767523064E0
7.204704750E0,-3.256188682E0,-1.678940266E0,-1.098136336E0,3.824592601E0
7.214727750E0,-2.832449734E0,-1.969842753E0,-1.102107911E0,3.621835697E0
7.224749750E0,-1.914649131E0,-2.137550254E0,-1.259047910E0,3.133720476E0
7.234772750E0,-9.106427345E-1,-2.342407454E0,-1.518540324E0,2.936342553E0
7.244794750E0,-4.065593894E-1,-2.655867330E0,-1.892022745E0,3.286133272E0
7.254816750E0,3.118583232E-2,-2.907680596E0,-2.584913707E0,3.890675760E0
7.264839750E0,6.925879298E-1,-3.191187524E0,-2.928284429E0,4.386137886E0
7.274861750E0,1.349979276E0,-3.150983824E0,-2.998694554E0,4.554482641E0
7.284884750E0,1.777795341E0,-2.776867856E0,-3.189847050E0,4.587665590E0
7.294906750E0,2.054066048E0,-2.124801570E0,-3.108129580E0,4.288873806E0
7.304929750E0,2.192184006E0,-1.332022038E0,-2.649259976E0,3.687618723E0
7.314951750E0,1.983849759E0,-5.144953358E-1,-2.224810592E0,3.024921071E0
7.324973750E0,1.685000613E0,3.056234372E-1,-1.873975899E0,2.538585909E0
7.334996750E0,1.197841961E0,9.248570234E-1,-1.537327135E0,2.157211301E0
7.345018750E0,4.082222644E-1,1.255134076E0,-1.171672674E0,1.764886348E0
7.355041750E0,-2.716989152E-1,1.346574588E0,-8.233657318E-1,1.601566281E0
7.365063750E0,-8.854412350E-1,1.351457598E0,-3.032754877E-1,1.643903842E0
7.375086750E0,-1.399883946E0,1.235014392E0,1.652619025E-1,1.874099012E0
7.385108750E0,-1.667187948E0,1.250184408E0,6.210877383E-1,2.174448593E0
7.395130750E0,-1.676586470E0,1.465546131E0,1.055029200E0,2.464113282E0
7.405153750E0,-1.504292998E0,1.539579483E0,1.072325264E0,2.404804333E0
7.415175750E0,-1.193006313E0,1.280698103E0,6.425240694E-1,1.864480859E0
7.425198750E0,-8.427958833E-1,8.988076776E-1,1.718618010E-1,1.244064557E0
7.435220750E0,-4.969409712E-1,6.059259081E-1,-2.955761665E-1,8.375331666E-1
7.445243750E0,-1.137567034E-1,6.068614626E-1,-7.268568528E-1,9.536992748E-1
7.455265750E0,2.608780579E-1,9.216445631E-1,-1.060496054E0,1.429033919E0
7.465287750E0,4.780662321E-1,1.365515474E0,-1.507411318E0,2.089370411E0
7.475310750E0,4.193283927E-1,1.886988292E0,-1.934426168E0,2.734696641E0
7.485332750E0,2.706339180E-1,2.345153891E0,-2.086394134E0,3.150560263E0
7.495355750E0,1.939199104E-1,2.280076135E0,-1.224895785E0,2.595519562E0
7.505377750E0,1.618345571E-1,1.858003060E0,-1.636699980E-1,1.872205561E0
7.515400750E0,2.820371579E-1,1.594072024E0,3.326849359E-1,1.652661442E0
7.525422750E0,4.156040818E-1,1.443623165E0,5.784953038E-1,1.609792351E0
7.535444750E0,4.926947962E-1,1.356578590E0,7.203103101E-1,1.613040785E0
7.545467750E0,5.646569178E-1,1.324912993E0,8.011544985E-1,1.648053520E0
7.555489750E0,6.393243999E-1,1.300011456E0,8.471437266E-1,1.678218689E0
7.565512750E0,7.274776809E-1,1.259448736E0,9.102234891E-1,1.715791857E0
7.575534750E0,7.779832254E-1,1.210963039E0,9.236209220E-1,1.710194430E0
7.585556750E0,8.673198366E-1,1.165904396E0,8.568439651E-1,1.686937562E0
7.595579750E0,9.760478615E-1,1.093401260E0,7.160093907E-1,1.631215863E0
7.605601750E0,1.109231500E0,9.966608316E-1,6.422738086E-1,1.623651126E0
7.615624750E0,1.369005677E0,9.275531745E-1,5.618180215E-1,1.746473855E0
7.625646750E0,1.637787709E0,9.377138811E-1,5.108922815E-1,1.955164143E0
7.635669750E0,1.791025836E0,8.876523596E-1,5.396178979E-1,2.070480073E0
7.645691750E0,1.918444266E0,6.860853875E-1,7.855827785E-1,2.183639591E0
7.655713750E0,1.999258341E0,2.647104692E-1,1.136452409E0,2.314871406E0
7.665736750E0,2.113614384E0,-1.333767432E-1,1.435076290E0,2.558241404E0
7.675758750E0,2.311457849E0,-3.914488685E-1,1.747949106E0,2.924276950E0
7.685781750E0,2.531333916E0,-5.582313395E-1,1.998880903E0,3.273346680E0
7.695803750E0,2.731052875E0,-6.467780650E-1,2.327682411E0,3.646241500E0
7.705826750E0,3.071024904E0,-4.685099083E-1,2.516439888E0,3.997895096E0
7.715848750E0,3.409296854E0,-1.342339450E-1,2.288977352E0,4.108617907E0
7.725870750E0,3.549911281E0,2.567915851E-1,1.829966245E0,4.002073023E0
7.735893750E0,3.460050978E0,5.537757611E-1,1.133071110E0,3.682725961E0
7.745915750E0,3.086023889E0,5.169090664E-1,3.840249512E-1,3.152493234E0
7.755938750E0,2.376656935E0,-2.175994527E-1,-4.744705600E-1,2.433304342E0
7.765960750E0,1.438574533E0,-1.371211832E0,-1.350098705E0,2.402599652E0
7.775983750E0,2.585491850E-1,-2.326624065E0,-1.796399865E0,2.950776118E0
7.786005042E0,-1.039998932E0,-2.945712640E0,-1.633743628E0,3.525328209E0
7.796027042E0,-1.928667246E0,-3.632157047E0,-1.293499120E0,4.311085957E0
7.806050042E0,-2.451782254E0,-4.294906781E0,-9.830983610E-1,5.042216067E0
7.816072042E0,-2.609388397E0,-4.744316760E0,-5.187193644E-1,5.439349143E0
7.826095042E0,-2.493813795E0,-4.815859197E0,-3.065885201E-2,5.423333570E0
7.836117042E0,-2.229077890E0,-4.373125570E0,1.690982607E-1,4.911375542E0
7.846140042E0,-1.665457464E0,-3.385227376E0,-3.357792825E-2,3.772882244E0
7.856162042E0,-5.767625546E-1,-2.254719100E0,-6.888430806E-1,2.427121351E0
7.866184042E0,3.915601483E-1,-1.439003865E0,-1.871345967E0,2.392903509E0
7.876207042E0,5.464489441E-1,-1.238469511E0,-3.375664254E0,3.636966090E0
7.886229042E0,1.061642401E-1,-1.576528623E0,-4.388672147E0,4.664456727E0
7.896252042E0,-7.091231248E-1,-2.034191362E0,-4.131136796E0,4.659085890E0
7.906274042E0,-1.769625026E0,-2.352588626E0,-3.218272412E0,4.361596416E0
7.916296042E0,-3.144460085E0,-2.295941970E0,-1.960712034E0,4.359285542E0
7.926319042E0,-4.228649642E0,-1.803158516E0,-7.963132963E-1,4.665508900E0
7.936341042E0,-4.670453270E0,-1.020515133E0,-1.304028493E-1,4.782425094E0
7.946364042E0,-4.547824001E0,-1.307028115E-1,2.947704202E-1,4.559240723E0
7.956386042E0,-4.032746575E0,6.017048031E-1,4.905002631E-1,4.106785132E0
7.966409042E0,-3.344421119E0,9.622388577E-1,3.861727796E-1,3.501454792E0
7.976431042E0,-2.585375344E0,9.740262598E-1,1.943737274E-1,2.769598161E0
7.986453042E0,-1.869288332E0,9.588328546E-1,6.471712902E-2,2.101853377E0
7.996476042E0,-1.286055176E0,1.011682329E0,1.799648724E-1,1.646155036E0
8.006498042E0,-9.332389339E-1,1.099715669E0,2.490153730E-1,1.463665985E0
8.016521042E0,-7.999506298E-1,1.213832853E0,8.461505771E-2,1.456183681E0
8.026543042E0,-7.998503501E-1,1.347065170E0,-2.638028352E-1,1.588690369E0
8.036565042E0,-7.161484082E-1,1.445373822E0,-4.485543846E-1,1.674268516E0
8.046588042E0,-6.382826453E-1,1.480489860E0,-4.913456243E-1,1.685430356E0
8.056610042E0,-6.385505940E-1,1.633483427E0,-4.601992607E-1,1.813228702E0
8.066633042E0,-6.524114918E-1,1.680145378E0,-3.881149323E-1,1.843681763E0
8.076655042E0,-6.423540616E-1,1.559030246E0,-4.475254208E-1,1.744555258E0
8.086678042E0,-6.156407645E-1,1.243346674E0,-4.527699347E-1,1.459426297E0
8.096700042E0,-4.672995347E-1,6.372231299E-1,-4.906536064E-1,9.301414590E-1
8.106722042E0,-1.572116753E-1,-5.071524024E-2,-9.281533912E-1,9.427387040E-1
8.116745042E0,1.837233165E-1,-6.486678851E-1,-1.560104964E0,1.699544580E0
8.126767042E0,5.866879839E-1,-1.013315456E0,-1.894755734E0,2.227354999E0
8.136790042E0,1.219783564E0,-1.170300917E0,-1.361663328E0,2.170622768E0
8.146812042E0,1.579212641E0,-9.844997925E-1,-9.737375535E-1,2.100313603E0
8.156835042E0,1.561574661E0,-4.965063769E-1,-6.373242867E-1,1.758185500E0
8.166857042E0,1.129259749E0,8.169905126E-2,-3.413167419E-1,1.182539401E0
8.176879042E0,6.417944100E-1,6.367547679E-1,-3.390771121E-2,9.047134530E-1
8.186902042E0,2.677863239E-1,1.070892988E0,3.990496641E-1,1.173781045E0
8.196924042E0,-1.684648611E-2,1.276039041E0,8.565377171E-1,1.536950324E0
8.206947042E0,-1.475246662E-1,1.211551269E0,1.220687544E0,1.726180201E0
8.216969042E0,-1.433716082E-1,1.086161823E0,1.395549697E0,1.774221486E0
8.226991042E0,-1.043069451E-1,8.638407433E-1,1.480326577E0,1.717110230E0
8.237014042E0,-4.586884864E-2,6.982937890E-1,1.384159175E0,1.551004445E0
8.247036042E0,2.675766282E-2,5.622682571E-1,1.257719715E0,1.377940654E0
8.257059042E0,1.059891160E-1,6.232026762E-1,1.216653988E0,1.371080667E0
8.267081042E0,1.364708705E-1,7.709793574E-1,1.167969047E0,1.406124164E0
8.277104042E0,9.467321880E-2,8.664211196E-1,1.104441242E0,1.406925383E0
8.287126042E0,2.021360524E-2,9.328016353E-1,1.020728556E0,1.382900671E0
8.297148042E0,-1.332401376E-1,8.596944827E-1,9.051959069E-1,1.255470895E0
8.307171042E0,-1.887750185E-1,6.958899987E-1,8.673461491E-1,1.127913224E0
8.317193042E0,-1.624394515E-1,5.067466056E-1,7.875136752E-1,9.504506754E-1
8.327216042E0,-9.591048963E-2,2.344055200E-1,6.571124339E-1,7.042311557E-1
8.337238042E0,6.206453964E-2,1.795153677E-2,5.907933140E-1,5.943155766E-1
8.347260042E0,3.421922162E-1,-1.067760050E-1,6.023712395E-1,7.009620092E-1
8.357283042E0,6.658150642E-1,-1.476375175E-1,6.835973241E-1,9.656147461E-1
8.367305042E0,1.013356386E0,-4.973173857E-2,8.230610919E-1,1.306443253E0
8.377328042E0,1.383647982E0,2.419431657E-1,1.000742334E0,1.724674883E0
8.387350042E0,1.558042505E0,5.670477712E-1,1.073488494E0,1.975200539E0
8.397373042E0,1.570765023E0,8.300227869E-1,1.217283222E0,2.153606051E0
8.407395042E0,1.383765511E0,8.941088551E-1,1.412418330E0,2.170060638E0
8.417417042E0,9.464502060E-1,8.183575916E-1,1.441444493E0,1.908727159E0
8.427440042E0,4.501313786E-1,7.443359345E-1,1.370895497E0,1.623578980E0
8.437462042E0,6.947369277E-3,6.461173296E-1,1.321120489E0,1.470671689E0
8.447485042E0,-4.421263942E-1,4.834127069E-1,1.308080614E0,1.462955394E0
8.457507042E0,-7.340173531E-1,3.298566377E-1,1.580403573E0,1.773488745E0
8.467529042E0,-1.108956462E0,1.539823312E-1,1.901066633E0,2.206252329E0
8.477552042E0,-1.455911966E0,-3.626443148E-2,2.201882490E0,2.639939632E0
8.487574042E0,-1.524130847E0,-1.264729357E-1,2.524329536E0,2.951475876E0
8.497597042E0,-1.427442750E0,-1.072309184E-1,2.996172942E0,3.320563743E0
8.507619042E0,-1.389773525E0,2.598093331E-2,3.099483302E0,3.396901853E0
8.517642042E0,-3.551456992E-1,2.298850375E-1,3.958882501E0,3.981422642E0
8.527664042E0,8.414261730E-1,1.460798192E-1,4.302433317E0,4.386373191E0
8.537686042E0,1.367878626E0,3.110601783E-2,3.445984624E0,3.707677110E0
8.547709042E0,1.997130978E0,1.189370441E-1,2.719958076E0,3.376514490E0
8.557731042E0,2.453692832E0,5.596545517E-2,1.545124982E0,2.900198589E0
8.567754042E0,3.638105419E0,-3.569023490E-2,1.498831991E0,3.934918318E0
8.577776042E0,3.988023269E0,-5.153233016E-1,7.955644872E-1,4.099123145E0
8.587798042E0,3.619292295E0,-8.365096879E-1,-3.190375346E-1,3.728379021E0
8.597821042E0,2.822425268E0,-7.462935823E-1,-6.181238578E-1,2.984144032E0
8.607843042E0,2.144663538E0,-5.381251037E-1,1.313518524E-1,2.215042579E0
8.617866042E0,1.400831341E0,-3.910196829E-1,9.720610837E-1,1.749322037E0
8.627888042E0,5.797903159E-1,-4.234413242E-1,1.347960963E0,1.527238725E0
8.637911042E0,-1.960102169E-1,-5.691627091E-1,1.272447681E0,1.407653827E0
8.647933042E0,-8.073050384E-1,-7.192847085E-1,1.096824147E0,1.540173733E0
8.657955042E0,-1.433544174E0,-6.521358687E-1,7.478458719E-1,1.743445880E0
8.667978042E0,-2.018385168E0,-4.754996699E-1,3.072963256E-1,2.096284727E0
8.678000042E0,-2.454983312E0,-2.598835927E-1,-2.216952811E-1,2.478634976E0
8.688023042E0,-2.839364651E0,-1.320897710E-1,-9.256276864E-1,2.989352095E0
8.698045042E0,-3.179041103E0,-1.307835031E-1,-1.554513856E0,3.541174945E0
8.708067042E0,-3.483666713E0,-2.743817639E-1,-2.197600720E0,4.128034404E0
8.718090042E0,-3.639438000E0,-6.665819997E-1,-2.720542213E0,4.592514610E0
8.728112042E0,-3.654560361E0,-1.403032964E0,-2.956938710E0,4.905894359E0
8.738135042E0,-3.504100685E0,-2.448551375E0,-2.982693940E0,5.212541471E0
8.748157042E0,-3.003399516E0,-3.476780739E0,-3.044893697E0,5.511786515E0
8.758180042E0,-2.028877412E0,-3.829422807E0,-3.027198853E0,5.286279929E0
8.768202042E0,-1.130744503E0,-3.632827722E0,-2.750320036E0,4.694707732E0
8.778224042E0,-2.396115884E-1,-2.998311853E0,-2.605304117E0,3.979308637E0
8.788244125E0,6.033427544E-1,-2.207230938E0,-2.485014612E0,3.378045073E0
8.798266125E0,1.272397103E0,-1.587279899E0,-2.204515199E0,2.999723175E0
8.808289125E0,1.801404059E0,-1.107739218E0,-1.964270649E0,2.886260893E0
8.818311125E0,2.173751535E0,-7.137503189E-1,-1.815608407E0,2.920799402E0
8.828333125E0,2.323195404E0,-4.141723180E-1,-1.648809564E0,2.878775534E0
8.838356125E0,2.238198085E0,-1.756176138E-1,-1.391755147E0,2.641468266E0
8.848378125E0,2.149405630E0,1.925336087E-1,-1.164336172E0,2.452079214E0
8.858401125E0,2.108978712E0,5.378075999E-1,-7.051686528E-1,2.287857305E0
8.868423125E0,2.155594177E0,9.570693344E-1,2.205569744E-2,2.358612817E0
8.878446125E0,2.010651056E0,1.311453288E0,5.768936053E-1,2.468893199E0
8.888468125E0,1.601563185E0,1.496429370E0,7.720336103E-1,2.323863462E0
8.898490125E0,5.969637345E-1,1.404298301E0,6.501337820E-1,1.658642021E0
8.908513125E0,-2.423206765E-1,1.173204060E0,4.910009310E-1,1.294684900E0
8.918535125E0,-9.867144985E-1,9.421291137E-1,3.404301578E-1,1.406095822E0
8.928558125E0,-1.496569703E0,8.297152233E-1,3.397121197E-1,1.744578044E0
8.938580125E0,-1.887769480E0,7.756436813E-1,3.861781883E-1,2.077120681E0
8.948602125E0,-2.025243075E0,7.089860076E-1,3.624408317E-1,2.176151196E0
8.958625125E0,-2.183010017E0,6.250615060E-1,-3.635272443E-2,2.271025350E0
8.968647125E0,-2.101389903E0,6.418389219E-1,-5.812810636E-1,2.272814203E0
8.978670125E0,-1.723342560E0,9.620020455E-1,-1.085636743E0,2.252546260E0
8.988692125E0,-1.379939532E0,1.427251546E0,-1.488566034E0,2.481352238E0
8.998714125E0,-1.215891511E0,1.835798843E0,-1.751576864E0,2.813640181E0
9.008737125E0,-8.739399080E-1,2.019089173E0,-1.523575653E0,2.676149253E0
9.018759125E0,-5.526058795E-1,1.764697870E0,-7.609692165E-1,1.999651464E0
9.028782125E0,-3.728417858E-1,1.496418845E0,-2.034605929E-1,1.555530961E0
9.038804125E0,-2.317856750E-1,1.319817730E0,1.288286327E-1,1.346194731E0
9.048826125E0,-1.582883669E-1,1.122906311E0,2.212603945E-1,1.155391688E0
9.058849125E0,-1.168150896E-1,9.481692874E-1,1.742215911E-1,9.710941899E-1
9.068871125E0,-6.059411108E-2,8.873342711E-1,1.655656654E-1,9.046799127E-1
9.078894125E0,-2.205036186E-2,8.882230479E-1,2.350416970E-1,9.190598460E-1
9.088916125E0,8.379871331E-2,8.767075413E-1,4.227096914E-1,9.768939659E-1
9.098939125E0,2.493995351E-1,8.360962898E-1,6.515432534E-1,1.088928714E0
9.108961125E0,4.748529679E-1,7.676786041E-1,8.723080963E-1,1.255283711E0
9.118983125E0,7.765855946E-1,7.030265254E-1,9.467595237E-1,1.411979135E0
9.129006125E0,1.174210000E0,6.697400808E-1,8.363898200E-1,1.589612793E0
9.139028125E0,1.466282003E0,5.328345430E-1,7.234248295E-1,1.719662481E0
9.149051125E0,1.606509929E0,3.471211267E-1,6.112566684E-1,1.753568346E0
9.159073125E0,1.668374932E0,1.999127948E-1,5.812436414E-1,1.778000059E0
9.169095125E0,1.652313654E0,3.760753691E-2,7.273162977E-1,1.805697576E0
9.179118125E0,1.622024639E0,-1.706381249E-1,1.102098117E0,1.968426162E0
9.189140125E0,1.562296208E0,-3.897116607E-1,1.595555170E0,2.266812944E0
9.199163125E0,1.536820182E0,-5.337724364E-1,2.041818177E0,2.610699284E0
9.209185125E0,1.581176282E0,-5.587096417E-1,2.345909936E0,2.883672715E0
9.219207125E0,1.839268581E0,-4.039221489E-1,2.321163643E0,2.988956786E0
9.229230125E0,2.191130922E0,-1.480696267E-1,2.080310690E0,3.025007752E0
9.239252125E0,2.446170389E0,3.928276420E-2,2.031843705E0,3.180201495E0
9.249275125E0,2.574496892E0,2.749290633E-1,1.852354649E0,3.183526030E0
9.259297125E0,2.703770644E0,5.537810236E-1,1.518792631E0,3.150203196E0
9.269320125E0,2.773092017E0,7.747309309E-1,1.106923239E0,3.084724689E0
9.279342125E0,2.778378777E0,9.048531139E-1,7.814028963E-1,3.024688128E0
9.289364125E0,2.634294028E0,1.013716575E0,7.361097792E-1,2.917016271E0
9.299387125E0,2.304574800E0,1.051346331E0,7.812634403E-1,2.650804911E0
9.309409125E0,1.794122375E0,8.276651895E-1,6.514605153E-1,2.080458018E0
9.319432125E0,9.619143373E-1,2.036778170E-1,9.593380541E-2,9.879104921E-1
9.329454125E0,-3.171021793E-2,-3.688066953E-1,-3.298578072E-1,4.958125547E-1
9.339476125E0,-8.432029957E-1,-5.889853549E-1,-1.442198199E-1,1.038602136E0
9.349499125E0,-1.256405114E0,-6.939060384E-1,2.921222162E-1,1.464716625E0
9.359521125E0,-1.410601454E0,-1.083687866E0,6.330930953E-1,1.888116182E0
9.369544125E0,-1.516582822E0,-2.096822643E0,7.621693575E-1,2.697701018E0
9.379566125E0,-1.506777188E0,-3.600034198E0,9.007776046E-1,4.005249557E0
9.389588125E0,-1.533422803E0,-5.160591736E0,9.299381076E-1,5.463321101E0
9.399611125E0,-1.841212780E0,-6.059868945E0,3.703947991E-1,6.344231115E0
9.409633125E0,-2.179310045E0,-5.380506102E0,-8.842130274E-1,5.872058486E0
9.419656125E0,-2.114957343E0,-3.434229382E0,-2.201166206E0,4.594791473E0
9.429678125E0,-1.362214721E0,-1.539298816E0,-3.125747241E0,3.741038038E0
9.439700125E0,-7.044444752E-1,-7.644620508E-1,-4.085217442E0,4.215405769E0
9.449723125E0,-9.182577096E-1,-1.276621424E0,-4.628743034E0,4.888580730E0
9.459745125E0,-1.100717954E0,-2.124071252E0,-4.181284564E0,4.817302077E0
9.469768125E0,-1.183315577E0,-2.515268106E0,-3.272076151E0,4.293400952E0
9.479790125E0,-1.391493045E0,-2.561698506E0,-2.226721462E0,3.668356662E0
9.489812125E0,-1.796121099E0,-2.250614939E0,-1.241303364E0,3.135626357E0
9.499835125E0,-2.337722957E0,-1.580092501E0,-6.429172947E-1,2.893956390E0
9.509857125E0,-2.756223677E0,-8.784932810E-1,-3.441783692E-1,2.913241863E0
9.519880125E0,-2.881632712E0,-2.091005248E-1,-4.364493325E-2,2.889538890E0
9.529902125E0,-2.680282379E0,3.384116989E-1,3.990490794E-2,2.701856493E0
9.539925125E0,-2.440637461E0,5.972655970E-1,-3.511013263E-1,2.537067116E0
9.549947125E0,-2.227566823E0,7.512800878E-1,-5.158906277E-1,2.406786003E0
9.559969125E0,-1.996501525E0,7.255061460E-1,-5.723775083E-1,2.199998527E0
9.569992125E0,-1.980256060E0,6.600524139E-1,-9.391027410E-1,2.288885582E0
9.580014125E0,-1.919073280E0,8.143779767E-1,-1.178458514E0,2.394748048E0
9.590037125E0,-1.755112091E0,1.143896645E0,-1.050845810E0,2.343756579E0
9.600059125E0,-1.623876306E0,1.458736464E0,-9.224384688E-1,2.369763502E0
9.610081125E0,-1.557622821E0,1.629990885E0,-8.204696059E-1,2.399214353E0
9.620104125E0,-1.528083272E0,1.660465989E0,-7.677515481E-1,2.383616627E0
9.630126125E0,-1.483458492E0,1.545480493E0,-5.610475047E-1,2.214482638E0
9.640149125E0,-1.469011922E0,1.269510040E0,-3.750078137E-1,1.977443458E0
9.650171125E0,-1.436926349E0,8.628771222E-1,-2.379436702E-1,1.692906215E0
9.660193125E0,-1.325842993E0,3.993759388E-1,-1.822204359E-1,1.396626317E0
9.670216125E0,-1.065603451E0,-5.887970746E-2,-2.335698067E-1,1.092489080E0
9.680238125E0,-6.077830569E-1,-4.443281633E-1,-5.573045558E-1,9.367049315E-1
9.690261125E0,3.234675314E-1,-6.418430150E-1,-7.582061148E-1,1.044734518E0
9.700283125E0,1.007112510E0,-6.932377017E-1,-8.385445189E-1,1.482569064E0
9.710305125E0,1.388213196E0,-5.537307376E-1,-1.123052783E0,1.869492220E0
9.720328125E0,1.680563161E0,-1.494577557E-1,-1.376746806E0,2.177627591E0
9.730350125E0,2.168967928E0,3.124547392E-1,-9.157075927E-1,2.374988470E0
9.740373125E0,2.419434580E0,6.406928676E-1,-3.277792682E-1,2.524200921E0
9.750395125E0,1.927128258E0,7.031294364E-1,9.106731400E-2,2.053413642E0
9.760417125E0,1.037908479E0,6.061241287E-1,3.255951869E-1,1.245252062E0
9.770440125E0,6.328277779E-1,5.603813607E-1,7.257450047E-1,1.114093388E0
9.780462125E0,3.660897135E-1,4.878372949E-1,1.108800926E0,1.265482674E0
9.790485917E0,1.146851682E-1,3.121278799E-1,1.339372719E0,1.380034703E0
9.800507917E0,-1.036577580E-1,7.442511499E-2,1.299072247E0,1.305324761E0
9.810529917E0,-3.233569459E-1,-1.148901862E-1,9.905099992E-1,1.048269778E0
9.820552917E0,-4.947362054E-1,-2.269000340E-1,5.817829008E-1,7.966924639E-1
9.830574917E0,-5.467738666E-1,-2.649905509E-1,2.692246659E-1,6.645777411E-1
9.840597917E0,-4.643189165E-1,-2.126819444E-1,1.244534536E-1,5.256560927E-1
9.850619917E0,-3.276380579E-1,-6.275699615E-2,8.555719033E-2,3.443910138E-1
9.860641917E0,-3.259859271E-1,5.565145969E-2,8.519568622E-2,3.414999482E-1
9.870664917E0,-3.275276917E-1,1.340368938E-1,3.003030556E-1,4.641359747E-1
9.880686917E0,-1.356593500E-1,3.066934776E-1,7.040695225E-1,7.798578338E-1
9.890709917E0,5.102879718E-2,4.174561143E-1,1.072438846E0,1.151954263E0
9.900731917E0,2.081237474E-1,4.486533487E-1,1.292489013E0,1.383883366E0
9.910753917E0,4.006624724E-1,4.708306682E-1,1.197644105E0,1.347799443E0
9.920776917E0,7.535882762E-1,5.533003825E-1,1.048751922E0,1.404961635E0
9.930798917E0,1.076896909E0,6.180629736E-1,6.699804014E-1,1.410880056E0
9.940821917E0,1.367261453E0,6.515201569E-1,4.316322501E-1,1.574861516E0
9.950843917E0,1.445520148E0,6.369869024E-1,2.184743424E-1,1.594682367E0
9.960866917E0,1.399225257E0,6.680227536E-1,1.011164119E-1,1.553805087E0
9.970888917E0,1.294013675E0,7.920281643E-1,2.258386912E-1,1.533878456E0
9.980910917E0,1.175065667E0,8.999519777E-1,5.522899836E-1,1.579783881E0
9.990933917E0,9.234839509E-1,9.109505904E-1,8.033735168E-1,1.525799002E0
1.000095592E1,7.331728689E-1,8.855877078E-1,1.013487949E0,1.532633637E0
1.001097892E1,5.114375344E-1,8.158386111E-1,1.164544918E0,1.511067787E0
1.002100092E1,2.825719589E-1,6.549828780E-1,1.305653434E0,1.487810597E0
1.003102292E1,1.413622856E-1,4.055313027E-1,1.372927989E0,1.438530569E0
1.004104592E1,-2.388777629E-2,1.139306581E-1,1.346895601E0,1.351916632E0
1.005106792E1,-1.878659226E-1,-1.278552175E-1,1.347875009E0,1.366897071E0
1.006109092E1,-2.269846724E-1,-2.550409287E-1,1.569248840E0,1.605960721E0
1.007111292E1,-3.978214565E-1,-3.697030735E-1,1.672393724E0,1.758363740E0
1.008113492E1,-4.465558062E-1,-3.661853886E-1,1.815391476E0,1.905032818E0
1.009115792E1,-4.178027080E-1,-3.589629078E-1,1.991072239E0,2.065861112E0
1.010117992E1,-3.618878312E-1,-3.348530835E-1,2.130922435E0,2.187217368E0
1.011120292E1,-2.350780959E-1,-2.532902724E-1,2.328277658E0,2.353783024E0
1.012122492E1,4.227360038E-1,-1.170472240E-1,2.933560372E0,2.966172995E0
1.013124692E1,8.679182991E-1,-8.387363076E-2,2.909503173E0,3.037355045E0
1.014126992E1,1.214004030E0,-5.522110462E-3,2.346617450E0,2.642054075E0
1.015129192E1,1.732974679E0,2.713388729E-1,2.129160084E0,2.758649794E0
1.016131492E1,2.042803872E0,4.882261348E-1,1.419344941E0,2.534946248E0
1.017133692E1,2.207734822E0,5.615946579E-1,6.186944729E-1,2.360564436E0
1.018135892E1,2.269108805E0,3.833060360E-1,3.452780843E-2,2.301514818E0
1.019138192E1,2.021810613E0,-6.945088863E-2,-2.215568848E-1,2.035099269E0
1.020140392E1,1.626126022E0,-4.194207788E-1,-3.904010840E-1,1.724126630E0
1.021142692E1,1.372624665E0,-6.046734345E-1,-3.254647940E-1,1.534814570E0
1.022144892E1,1.066638993E0,-8.211016899E-1,1.939293391E-1,1.359976218E0
1.023147092E1,6.734885846E-1,-1.046684931E0,6.862923789E-1,1.421313986E0
1.024149392E1,6.245791107E-2,-1.277003832E0,9.112300873E-1,1.570025493E0
1.025151592E1,-6.556399588E-1,-1.505850989E0,1.378491030E0,2.144222114E0
1.026153892E1,-1.147669123E0,-1.546871545E0,1.826487737E0,2.654432792E0
1.027156092E1,-1.573936260E0,-1.229995726E0,1.824390340E0,2.705284634E0
1.028158292E1,-1.905402344E0,-6.404578096E-1,1.468743389E0,2.489568525E0
1.029160592E1,-2.022271959E0,5.794356823E-2,9.183045604E-1,2.221761598E0
1.030162792E1,-2.006662670E0,7.930297923E-1,1.324200656E-1,2.161741520E0
1.031165092E1,-1.913219779E0,1.426963279E0,-7.654555658E-1,2.506502811E0
1.032167292E1,-1.837290614E0,1.853645715E0,-1.703463489E0,3.116637145E0
1.033169492E1,-1.823041095E0,1.962761775E0,-2.517462566E0,3.676075406E0
1.034171792E1,-1.727138865E0,1.680249458E0,-3.028098739E0,3.869835769E0
1.035173992E1,-1.481635768E0,9.823526949E-1,-3.285242912E0,3.735382491E0
1.036176292E1,-1.078141051E0,1.405834365E-1,-3.424234736E0,3.592705854E0
1.037178492E1,-8.641138083E-1,-8.017626089E-1,-3.293588642E0,3.498176968E0
1.038180692E1,-8.735564768E-1,-1.832414474E0,-2.798242353E0,3.457022417E0
1.039182992E1,-8.027064957E-1,-2.685091129E0,-2.009670478E0,3.448597906E0
1.040185192E1,-5.610627075E-1,-2.945298657E0,-1.203397473E0,3.230749297E0
1.041187492E1,-1.241606542E-1,-2.803174480E0,-6.001905204E-1,2.869395702E0
1.042189692E1,3.729063244E-1,-2.423435245E0,-4.333302815E-1,2.489954346E0
1.043191892E1,7.672972195E-1,-1.973428266E0,-4.763652040E-1,2.170273704E0
1.044194192E1,1.040937849E0,-1.575476124E0,-7.206389236E-1,2.021137571E0
1.045196392E1,1.264719124E0,-1.290205675E0,-1.157850441E0,2.145871103E0
1.046198692E1,1.322206463E0,-1.206370636E0,-1.568695108E0,2.379992518E0
1.047200892E1,1.339808483E0,-1.264034708E0,-1.677348800E0,2.491258620E0
1.048203092E1,1.231938756E0,-1.178464215E0,-1.602890795E0,2.340023484E0
1.049205392E1,8.766552819E-1,-8.198445386E-1,-1.614874956E0,2.012086150E0
1.050207592E1,4.490793183E-1,-3.368007910E-1,-1.514440841E0,1.615127880E0
1.051209892E1,-3.170864649E-1,3.959734440E-2,-1.401421471E0,1.437391358E0
1.052212092E1,-7.691170192E-1,3.569520503E-1,-1.105411441E0,1.393158358E0
1.053214292E1,-1.045501601E0,6.441737151E-1,-8.284463775E-1,1.481336144E0
1.054216592E1,-1.120669093E0,9.135099167E-1,-5.239336190E-1,1.537825094E0
1.055218792E1,-1.130540143E0,1.089954911E0,-2.021873617E-1,1.583351652E0
1.056221092E1,-1.107454897E0,1.044391653E0,1.153076774E-1,1.526599533E0
1.057223292E1,-1.013346885E0,7.958522433E-1,3.910904342E-1,1.346552795E0
1.058225492E1,-8.998842962E-1,5.496517199E-1,3.736324024E-1,1.118709047E0
1.059227792E1,-7.131907403E-1,4.740998465E-1,2.424770164E-1,8.900599980E-1
1.060229992E1,-4.687147801E-1,6.171338511E-1,1.660726190E-1,7.925451722E-1
1.061232292E1,-2.477354175E-1,9.712254435E-1,5.917543039E-2,1.004068439E0
1.062234492E1,-2.459328671E-1,1.412107258E0,-3.508762085E-1,1.475684247E0
1.063236692E1,-3.612275344E-1,1.612873746E0,-7.752247283E-1,1.825601389E0
1.064238992E1,-4.292152304E-1,1.460270188E0,-8.918167466E-1,1.764072517E0
1.065241192E1,-3.458031642E-1,1.199463320E0,-7.340419114E-1,1.448140053E0
1.066243492E1,-2.389977770E-1,9.719002122E-1,-4.808598125E-1,1.110376566E0
1.067245692E1,-2.218707707E-1,7.902734149E-1,-3.100066562E-1,8.774182788E-1
1.068247892E1,-2.053042200E-1,6.508483118E-1,-1.913355142E-1,7.087754417E-1
1.069250192E1,-9.977060214E-2,5.120459372E-1,-1.033806731E-1,5.318202501E-1
1.070252392E1,-3.499697439E-2,2.790338087E-1,7.401113212E-4,2.812209138E-1
1.071254692E1,3.484377734E-2,5.546844184E-2,1.341895062E-1,1.493240116E-1
1.072256892E1,1.065242824E-1,-8.501091421E-2,3.634295958E-1,3.881434650E-1
1.073259092E1,2.334955470E-1,-7.314574420E-2,6.623297583E-1,7.060815669E-1
1.074261392E1,4.999533105E-1,7.920872211E-2,1.002767664E0,1.123285503E0
1.075263592E1,9.453784114E-1,4.532954532E-1,1.306600099E0,1.675237573E0
1.076265892E1,1.439752309E0,8.161806732E-1,1.421765689E0,2.181846758E0
1.077268092E1,1.855621343E0,9.502403712E-1,1.392280519E0,2.506936851E0
1.078270292E1,2.164053197E0,9.855745107E-1,1.205585648E0,2.666068287E0
1.079272829E1,2.348350564E0,1.001932681E0,9.337015218E-1,2.718532325E0
1.080275029E1,2.251372738E0,9.451082700E-1,6.349397922E-1,2.522906536E0
1.081277329E1,2.038762569E0,9.151307648E-1,4.237944961E-1,2.274559057E0
1.082279529E1,1.940390036E0,7.835286516E-1,6.005224961E-1,2.177075540E0
1.083281729E1,1.664982963E0,5.368545038E-1,8.350243489E-1,1.938465034E0
1.084284029E1,1.243590064E0,1.611831772E-1,9.197181979E-1,1.555113445E0
1.085286229E1,8.463292095E-1,-3.044563329E-1,8.536405680E-1,1.240027826E0
1.086288529E1,5.934524084E-1,-7.779112315E-1,8.498480639E-1,1.295983556E0
1.087290729E1,5.070609666E-1,-1.104220948E0,9.054156160E-1,1.515319162E0
1.088292929E1,6.155260129E-1,-1.135696510E0,9.104690722E-1,1.580390068E0
1.089295229E1,7.492280075E-1,-9.075995511E-1,1.015059388E0,1.554163799E0
1.090297429E1,8.464243729E-1,-5.071652663E-1,1.262717622E0,1.602531316E0
1.091299729E1,9.871975516E-1,-1.051481402E-1,1.529542737E0,1.823490094E0
1.092301929E1,1.144845575E0,1.480965239E-1,1.651370352E0,2.014851859E0
1.093304129E1,1.198991523E0,2.258060199E-1,1.469033703E0,1.909614896E0
1.094306429E1,1.171431038E0,2.377425259E-1,1.076814464E0,1.608819932E0
1.095308629E1,1.203493514E0,2.651466715E-1,7.632848601E-1,1.449587242E0
1.096310829E1,1.271962070E0,3.370598227E-1,7.316596095E-1,1.505597096E0
1.097313129E1,1.307495600E0,2.664745742E-1,9.297262922E-1,1.626328509E0
1.098315329E1,1.212161280E0,-2.171772838E-1,9.291820626E-1,1.542686049E0
1.099317629E1,9.570170749E-1,-1.112892369E0,5.532521430E-1,1.568597794E0
1.100319829E1,7.076037989E-1,-1.968944036E0,4.646767661E-2,2.092750104E0
1.101322129E1,3.356901855E-1,-2.313976538E0,-3.576246263E-1,2.365390177E0
1.102324329E1,-6.000982075E-1,-2.067049790E0,-1.464131105E-1,2.157370968E0
1.103326529E1,-1.614994093E0,-1.627176620E0,7.287981284E-1,2.405630143E0
1.104328829E1,-2.310981009E0,-1.576453779E0,1.532268270E0,3.189621575E0
1.105331029E1,-2.840249335E0,-1.920721464E0,1.880790098E0,3.910697971E0
1.106333229E1,-2.934209705E0,-2.410801751E0,1.958539939E0,4.272871443E0
1.107335529E1,-2.418281217E0,-2.313222247E0,1.915584100E0,3.855975059E0
1.108337729E1,-1.172132046E0,-1.157115446E0,1.936380308E0,2.542120844E0
1.109340029E1,5.013822238E-1,3.612234414E-1,1.669391178E0,1.780093654E0
1.110342229E1,2.019833524E0,1.526547793E0,8.603025931E-1,2.673985075E0
1.111344429E1,2.974973277E0,2.270779647E0,-5.627385195E-1,3.784650690E0
1.112346729E1,3.330401835E0,2.218561673E0,-2.840882589E0,4.907566216E0
1.113348929E1,2.844718947E0,8.889890331E-1,-5.218862749E0,6.009929765E0
1.114351229E1,2.233205732E0,-7.766529107E-1,-6.316642404E0,6.744654835E0
1.115353429E1,1.273125374E0,-2.001712418E0,-6.351228685E0,6.779808746E0
1.116355629E1,-5.320335475E-1,-2.796268333E0,-5.230701606E0,5.955032794E0
1.117357929E1,-2.638138572E0,-3.149522604E0,-3.350774412E0,5.301599468E0
1.118360129E1,-3.905793291E0,-2.930348496E0,-1.421657515E0,5.085594718E0
1.119362429E1,-4.657123957E0,-2.241103858E0,-2.113869323E-1,5.172623560E0
1.120364629E1,-4.650825921E0,-1.315253393E0,4.765169393E-1,4.856659513E0
1.121366829E1,-3.698677896E0,-7.174206161E-1,4.434544431E-1,3.793621273E0
1.122369129E1,-2.520917686E0,-6.407905161E-2,5.127533041E-1,2.573334035E0
1.123371329E1,-1.463840645E0,7.182567680E-1,6.361345245E-1,1.750254082E0
1.124373629E1,-6.085287961E-1,1.371227034E0,4.821508046E-1,1.575766567E0
1.125375829E1,-1.612116093E-1,1.715314041E0,-7.807209648E-2,1.724641033E0
1.126378029E1,-1.671213171E-1,1.600874675E0,-8.441857664E-1,1.817519977E0
1.127380329E1,-5.043784102E-1,1.233527445E0,-1.567636178E0,2.057539969E0
1.128382529E1,-8.732942292E-1,8.381568485E-1,-1.498393011E0,1.926222035E0
1.129384729E1,-1.199221757E0,6.410752755E-1,-9.785088815E-1,1.675288024E0
1.130387029E1,-1.559319390E0,4.803370714E-1,-4.848651552E-1,1.702144201E0
1.131389229E1,-1.758843199E0,4.017013764E-1,2.028121367E-2,1.804246303E0
1.132391529E1,-1.720886437E0,5.632236922E-1,4.796148672E-1,1.873152818E0
1.133393729E1,-1.595730587E0,9.640245974E-1,6.607564187E-1,1.977953128E0
1.134395929E1,-1.537386923E0,1.321424544E0,6.622825420E-1,2.132683648E0
1.135398229E1,-1.463370382E0,1.538878402E0,3.530344158E-1,2.152726854E0
1.136400429E1,-1.248263744E0,1.489239049E0,-3.107736647E-2,1.943440537E0
1.137402729E1,-7.528475802E-1,1.083315983E0,-3.777763242E-1,1.372249230E0
1.138404929E1,-1.029153809E-1,4.505846840E-1,-1.241185689E0,1.324447073E0
1.139407129E1,4.831970908E-1,-1.612515897E-1,-1.760746322E0,1.832950930E0
1.140409429E1,8.345669505E-1,-6.427440709E-1,-1.884745300E0,2.159140288E0
1.141411629E1,1.077664941E0,-9.904873413E-1,-1.619574801E0,2.182990938E0
1.142413929E1,1.082020532E0,-1.098038102E0,-1.049179645E0,1.864734307E0
1.143416129E1,8.816421528E-1,-8.315278602E-1,-3.872014511E-1,1.272264293E0
1.144418329E1,5.482608135E-1,-2.876058269E-1,2.585170984E-1,6.709233350E-1
1.145420629E1,3.731828977E-1,2.437914705E-1,7.909264027E-1,9.078900433E-1
1.146422829E1,3.150846706E-1,5.119231457E-1,1.177483637E0,1.322048173E0
1.147425129E1,3.129834737E-1,6.421049702E-1,1.383337203E0,1.556881262E0
1.148427329E1,2.781684208E-1,6.650412583E-1,1.419792692E0,1.592315557E0
1.149429529E1,2.870496105E-1,5.787936580E-1,1.327109061E0,1.476014240E0
1.150431829E1,3.908154689E-1,4.466997939E-1,1.191379545E0,1.331038187E0
1.151434029E1,5.361493295E-1,1.910788214E-1,1.041660272E0,1.187022890E0
1.152436329E1,5.296222289E-1,-7.824334681E-2,8.938550860E-1,1.041920650E0
1.153438529E1,4.931299022E-1,-2.408123142E-1,7.563513780E-1,9.344704800E-1
1.154440729E1,4.864545746E-1,-2.756430084E-1,7.443200009E-1,9.309293125E-1
1.155443029E1,4.315739241E-1,-1.427018827E-1,7.003069854E-1,8.348950551E-1
1.156445229E1,3.275376320E-1,5.985911608E-2,7.258347595E-1,7.985612764E-1
1.157447429E1,1.718768576E-1,2.410725152E-1,7.789168064E-1,8.332880673E-1
1.158449729E1,1.403404847E-1,4.728602368E-1,8.825271289E-1,1.011012556E0
1.159451929E1,8.446726933E-2,5.713612622E-1,1.084431339E0,1.228649560E0
1.160454229E1,9.226877064E-2,6.053803629E-1,1.306406556E0,1.442808719E0
1.161456429E1,1.000596008E-1,6.741588217E-1,1.426790055E0,1.581212162E0
1.162458629E1,9.794744030E-2,7.937127471E-1,1.411369485E0,1.622201421E0
1.163460929E1,3.335953474E-2,9.176918453E-1,1.189609446E0,1.502811304E0
1.164463129E1,-9.040380120E-2,1.001241540E0,9.170106447E-1,1.360722599E0
1.165465429E1,-1.774888690E-1,1.044910886E0,6.976312995E-1,1.268869768E0
1.166467629E1,-1.786339000E-1,1.098528684E0,5.570203080E-1,1.244566978E0
1.167469829E1,-6.883371502E-2,1.192797495E0,6.072801232E-1,1.340258591E0
1.168472129E1,5.344925210E-2,1.230454148E0,8.196147430E-1,1.479406151E0
1.169474329E1,1.019024970E-1,1.193935363E0,1.014822137E0,1.570264226E0
1.170476629E1,4.998024523E-2,1.064563377E0,1.163057240E0,1.577496546E0
1.171478829E1,1.675388083E-2,8.569024372E-1,1.409030453E0,1.649220815E0
1.172481029E1,-1.944871634E-2,6.539824194E-1,1.720084199E0,1.840315438E0
1.173483329E1,-1.712971061E-2,4.914350867E-1,2.115280548E0,2.171684524E0
1.174485529E1,1.772105415E-1,3.215114915E-1,2.665490093E0,2.690652458E0
1.175487729E1,3.658238845E-1,1.456050253E-1,3.093910321E0,3.118863417E0
1.176490029E1,4.955211210E-1,1.634939969E-2,3.260333773E0,3.297815155E0
1.177492229E1,6.066518399E-1,-9.039853871E-2,3.344710264E0,3.400483069E0
1.178494142E1,6.619075893E-1,-2.612360537E-1,3.345670377E0,3.420508179E0
1.179496342E1,8.021556880E-1,-5.163196671E-1,3.245368409E0,3.382669930E0
1.180498542E1,1.090557759E0,-8.377288324E-1,2.977354848E0,3.279595663E0
1.181500842E1,1.415564278E0,-1.200398290E0,2.305897440E0,2.960057648E0
1.182503042E1,1.598908256E0,-1.321987047E0,1.358063782E0,2.479615817E0
1.183505342E1,1.825457165E0,-9.929267997E-1,6.185528972E-1,2.168134031E0
1.184507542E1,2.130094615E0,-4.770778334E-1,3.261401474E-1,2.207096220E0
1.185509742E1,2.162686265E0,-1.913904780E-1,-2.161703932E-1,2.181873469E0
1.186512042E1,1.811866774E0,-2.460911804E-1,-8.047972407E-1,1.997778935E0
1.187514242E1,1.631852054E0,-2.028387415E-1,-7.493972113E-1,1.807119493E0
1.188516542E1,1.467140959E0,-6.916320562E-2,-2.135789073E-1,1.484217670E0
1.189518742E1,1.046196688E0,-2.449398637E-2,3.468112242E-1,1.102454304E0
1.190520942E1,2.985582465E-1,-2.067353261E-1,8.171401282E-1,8.942004869E-1
1.191523242E1,-5.812030032E-1,-5.669021755E-1,1.206416975E0,1.454172248E0
1.192525442E1,-1.229468454E0,-9.660342854E-1,1.342570415E0,2.060900347E0
1.193527642E1,-1.726731314E0,-1.302729242E0,1.363832061E0,2.557096478E0
1.194529942E1,-2.087360678E0,-1.209435162E0,1.158395986E0,2.676133269E0
1.195532142E1,-2.246825651E0,-6.396163952E-1,6.258169663E-1,2.418466770E0
1.196534442E1,-2.316694616E0,1.521960068E-1,-1.003908455E-1,2.323857975E0
1.197536642E1,-2.383225405E0,7.024575913E-1,-8.755948893E-1,2.634364517E0
1.198538842E1,-2.528607944E0,8.548138118E-1,-1.695449295E0,3.162137425E0
1.199541142E1,-2.643023336E0,5.150642699E-1,-2.642951123E0,3.773069598E0
1.200543342E1,-2.623997666E0,-3.973685896E-1,-3.175807593E0,4.138721954E0
1.201545642E1,-2.260745240E0,-1.562567811E0,-3.241755999E0,4.249890489E0
1.202547842E1,-1.519030320E0,-2.540268461E0,-3.317999014E0,4.446294460E0
1.203550042E1,-1.016773353E0,-3.196686246E0,-3.422255161E0,4.792124935E0
1.204552342E1,-6.028779007E-1,-3.586282132E0,-3.336489371E0,4.935285465E0
1.205554542E1,1.129725918E-2,-3.743174037E0,-3.053278019E0,4.830526490E0
1.206556842E1,6.940346771E-1,-3.628155212E0,-2.778078815E0,4.622003492E0
1.207559042E1,1.304526822E0,-3.276622946E0,-2.496311140E0,4.320835275E0
1.208561242E1,1.555980776E0,-2.665330464E0,-2.369130984E0,3.890738269E0
1.209563542E1,1.555506860E0,-1.967298630E0,-2.356517955E0,3.441372163E0
1.210565742E1,1.682929383E0,-1.366367998E0,-2.274769202E0,3.142258382E0
1.211567942E1,1.804975246E0,-9.261007261E-1,-2.296423489E0,3.064173466E0
1.212570242E1,1.718939461E0,-5.638703942E-1,-2.150800045E0,2.810452548E0
1.213572442E1,1.411961516E0,-1.516668338E-1,-1.748591715E0,2.252600971E0
1.214574742E1,1.251144521E0,3.590278119E-1,-1.185724410E0,1.760740173E0
1.215576942E1,6.098122600E-1,7.439891946E-1,-6.775665790E-1,1.176642419E0
1.216579142E1,-6.393272504E-2,1.074257476E0,-2.301127866E-1,1.100485535E0
1.217581442E1,-5.546083315E-1,1.359187617E0,1.994887255E-1,1.481478023E0
1.218583642E1,-9.454328636E-1,1.643818966E0,5.012116313E-1,1.961427335E0
1.219585942E1,-1.197093225E0,1.828729559E0,6.338791072E-1,2.275760689E0
1.220588142E1,-1.332818137E0,1.842710252E0,6.724403250E-1,2.371531414E0
1.221590342E1,-1.360687867E0,1.732840485E0,4.931272709E-1,2.257738276E0
1.222592642E1,-1.214958076E0,1.603418798E0,2.037649405E-1,2.022027478E0
1.223594842E1,-1.104110070E0,1.339379590E0,6.781703040E-2,1.737122875E0
1.224597042E1,-1.129796304E0,1.063258864E0,-1.722072253E-1,1.560965864E0
1.225599342E1,-1.018565671E0,9.402088881E-1,-5.786375374E-1,1.502095263E0
1.226601542E1,-8.530510955E-1,9.622780341E-1,-1.015367829E0,1.638489247E0
1.227603842E1,-6.720402293E-1,1.084063842E0,-1.126375610E0,1.701632891E0
1.228606042E1,-5.214227515E-1,1.005664959E0,-6.948434933E-1,1.328928582E0
1.229608242E1,-3.226973800E-1,8.450436991E-1,-2.293700440E-1,9.331897286E-1
1.230610542E1,6.835585132E-2,7.355253500E-1,1.977119029E-2,7.389593783E-1
1.231612742E1,4.601233931E-1,6.180243820E-1,1.817753166E-1,7.916501369E-1
1.232615042E1,7.152700102E-1,4.693133157E-1,3.368484458E-1,9.194199537E-1
1.233617242E1,9.344744506E-1,3.791445726E-1,4.402432984E-1,1.100366879E0
1.234619442E1,1.032071058E0,2.328560078E-1,5.155542666E-1,1.176940436E0
1.235621742E1,1.072360640E0,1.107486033E-1,6.060859756E-1,1.236754949E0
1.236623942E1,1.132250161E0,6.811246097E-2,6.711404890E-1,1.317975452E0
1.237626142E1,1.176403217E0,7.937770665E-2,7.315717551E-1,1.387595973E0
1.238628442E1,1.229574873E0,1.368897504E-1,7.090769318E-1,1.425967485E0
1.239630642E1,1.365109970E0,2.222690392E-1,5.389524847E-1,1.484384902E0
1.240632942E1,1.579797217E0,4.784302944E-1,4.290444186E-1,1.705501072E0
1.241635142E1,1.717136764E0,6.761503834E-1,3.867716807E-1,1.885558363E0
1.242637342E1,1.722515179E0,7.248921883E-1,4.191863054E-1,1.915266140E0
1.243639642E1,1.776676330E0,7.094795126E-1,5.982330188E-1,2.004450724E0
1.244641842E1,1.806397142E0,6.484784353E-1,7.276403797E-1,2.052572883E0
1.245644142E1,1.815790402E0,4.970753109E-1,8.854320256E-1,2.080425082E0
1.246646342E1,1.796402935E0,3.175038099E-1,9.128987364E-1,2.039915753E0
1.247648542E1,1.766945540E0,2.301481622E-1,7.844886182E-1,1.946917335E0
1.248650842E1,1.725157536E0,2.232461089E-1,6.924641150E-1,1.872301765E0
1.249653042E1,1.643244477E0,2.534259278E-1,7.407603621E-1,1.820220598E0
1.250655242E1,1.613235689E0,3.330971646E-1,9.690830237E-1,1.911178960E0
1.251657542E1,1.699601111E0,4.701787037E-1,1.261418371E0,2.168153190E0
1.252659742E1,1.781769986E0,6.493069857E-1,1.551841679E0,2.450411484E0
1.253662042E1,1.944689786E0,8.233750874E-1,1.823454786E0,2.790116889E0
1.254664242E1,1.990070904E0,8.805433148E-1,1.981747684E0,2.943308107E0
1.255666442E1,1.930332240E0,7.702455318E-1,2.082713896E0,2.942304863E0
1.256668742E1,1.954737349E0,7.842069286E-1,1.816619976E0,2.781382165E0
1.257670942E1,2.028544559E0,6.487813210E-1,1.373118609E0,2.534041228E0
1.258673142E1,1.929316286E0,1.703334850E-1,7.754301117E-1,2.086280587E0
1.259675442E1,1.653067799E0,-5.710308945E-1,1.231363682E-1,1.753246131E0
1.260677642E1,1.272165846E0,-1.333059919E0,-3.948550178E-1,1.884506612E0
1.261679942E1,7.575801703E-1,-1.899376203E0,-6.799332395E-1,2.154963314E0
1.262682142E1,3.037438497E-2,-2.028987924E0,-6.124183640E-1,2.119615732E0
1.263684342E1,-9.087092064E-1,-1.817005892E0,-1.569031616E-1,2.037616606E0
1.264686642E1,-1.509750789E0,-1.855367135E0,4.249051747E-1,2.429460652E0
1.265688842E1,-1.659314087E0,-2.456580772E0,8.003724334E-1,3.070620191E0
1.266691142E1,-1.752351767E0,-3.510071277E0,9.843600440E-1,4.044786988E0
1.267693342E1,-1.787755195E0,-4.487693574E0,1.050703138E0,4.943626133E0
1.268695542E1,-1.618682663E0,-4.734238499E0,9.019429547E-1,5.083959955E0
1.269697842E1,-9.246326365E-1,-3.675914100E0,6.369974273E-1,3.843573299E0
1.270700042E1,1.842820179E-1,-1.835070865E0,1.011895752E-1,1.847074517E0
1.271702242E1,7.737328112E-1,-4.544970560E-1,-7.904552633E-1,1.195846796E0
1.272704542E1,7.188354962E-1,1.036799043E-1,-2.058231604E0,2.182611126E0
1.273706742E1,4.907209224E-1,-1.330194783E-1,-3.403118101E0,3.440888551E0
1.274709042E1,1.388733452E-1,-8.554716235E-1,-4.145783486E0,4.235402958E0
1.275711242E1,-3.211670905E-1,-1.435811285E0,-4.192393104E0,4.443069017E0
1.276713442E1,-1.050441986E0,-1.644293175E0,-3.849588392E0,4.315838180E0
1.277715742E1,-1.988786270E0,-1.541519589E0,-2.955363470E0,3.881459353E0
1.278717925E1,-2.803403690E0,-1.142414376E0,-2.003513799E0,3.630186001E0
1.279720225E1,-3.276491384E0,-5.227749932E-1,-1.408179098E0,3.604394243E0
1.280722425E1,-3.368119592E0,2.087602168E-1,-1.015967168E0,3.524201995E0
1.281724625E1,-3.049536678E0,8.263834798E-1,-6.667528845E-1,3.229108703E0
1.282726925E1,-2.645540855E0,1.171610693E0,-5.479700607E-1,2.944796974E0
1.283729125E1,-2.301373157E0,1.275958350E0,-7.928358109E-1,2.748267953E0
1.284731325E1,-2.089584959E0,1.465029822E0,-9.763277970E-1,2.732378753E0
1.285733625E1,-1.987050524E0,1.618536190E0,-7.434518355E-1,2.668473312E0
1.286735825E1,-1.869000941E0,1.499110903E0,-2.442743044E-1,2.408353785E0
1.287738125E1,-1.823080272E0,1.300816033E0,1.125822902E-1,2.242413611E0
1.288740325E1,-1.746144362E0,1.147300310E0,3.889701607E-1,2.125233145E0
1.289742525E1,-1.660339396E0,1.071381231E0,6.319185358E-1,2.074585667E0
1.290744825E1,-1.597071646E0,9.265188020E-1,7.255324584E-1,1.983802480E0
1.291747025E1,-1.525996547E0,6.317249930E-1,6.165666711E-1,1.762922683E0
1.292749225E1,-1.314150023E0,4.263146460E-1,9.144271986E-1,1.656777463E0
1.293751525E1,-9.998887139E-1,4.418647313E-1,1.218865698E0,1.637270738E0
1.294753725E1,-8.099351160E-1,5.414662027E-1,9.585789393E-1,1.366767765E0
1.295756025E1,-6.359903175E-1,6.796201211E-1,4.328651355E-1,1.026518104E0
1.296758225E1,-3.074425790E-1,8.159906387E-1,-1.765199853E-1,8.896746412E-1
1.297760425E1,2.436300874E-2,8.174547815E-1,-9.461701244E-1,1.250625356E0
1.298762725E1,2.196005161E-1,6.498677337E-1,-1.771913334E0,1.900060347E0
1.299764925E1,4.944253528E-1,3.454435605E-1,-2.162175364E0,2.244724925E0
1.300767125E1,4.970373771E-1,-6.296281815E-2,-2.177406045E0,2.234302476E0
1.301769425E1,3.333120498E-1,-4.565576148E-1,-1.602095866E0,1.698897567E0
1.302771625E1,-2.633775964E-2,-7.833421254E-1,-9.620967704E-1,1.240946719E0
1.303773925E1,-3.524277672E-1,-8.330305946E-1,-4.597180349E-1,1.014635883E0
1.304776125E1,-2.852311264E-1,-5.650287277E-1,-1.411849688E-1,6.484963022E-1
1.305778325E1,-2.899001281E-1,-3.555422866E-1,5.757738635E-2,4.623500376E-1
1.306780625E1,-1.211835444E-1,-9.502076268E-2,3.841034500E-1,4.138234613E-1
1.307782825E1,2.581458002E-2,1.338404274E-1,7.655298986E-1,7.775703686E-1
1.308785025E1,1.632602544E-1,3.199613947E-1,9.475367649E-1,1.013338604E0
1.309787325E1,2.551489560E-1,3.816109282E-1,9.234244555E-1,1.031232571E0
1.310789525E1,3.790394689E-1,3.356483048E-1,7.887806207E-1,9.372862802E-1
1.311791825E1,4.700084035E-1,2.590123576E-1,5.967137660E-1,8.025351203E-1
1.312794025E1,5.195052302E-1,2.383377725E-1,4.654928912E-1,7.371392065E-1
1.313796225E1,4.389085253E-1,2.865223378E-1,3.864331269E-1,6.512037355E-1
1.314798525E1,3.337440129E-1,3.886889827E-1,3.544241528E-1,6.229612119E-1
1.315800725E1,2.429095642E-1,4.735817832E-1,4.130226092E-1,6.737005547E-1
1.316803025E1,1.671717493E-1,5.070728803E-1,5.629775244E-1,7.758949624E-1
1.317805225E1,1.453535950E-1,5.677354038E-1,8.439004223E-1,1.027433248E0
1.318807425E1,1.162480558E-1,6.331558067E-1,1.064767957E0,1.244239000E0
1.319809725E1,9.346628040E-3,6.378195459E-1,1.073401809E0,1.248636287E0
1.320811925E1,-1.973406047E-2,5.827264953E-1,1.147241106E0,1.286903943E0
1.321814125E1,4.759428889E-2,5.703824383E-1,1.240992000E0,1.366624486E0
1.322816425E1,5.995808020E-2,5.079821223E-1,1.251458516E0,1.351957553E0
1.323818625E1,4.781092823E-2,4.482569075E-1,1.238064299E0,1.317582388E0
1.324820925E1,7.053423151E-2,3.901104409E-1,1.215982289E0,1.278973871E0
1.325823125E1,1.803285693E-1,3.887977409E-1,1.178189980E0,1.253719947E0
1.326825325E1,3.285263962E-1,3.756654793E-1,1.030937868E0,1.145376371E0
1.327827625E1,5.682562445E-1,3.499114180E-1,1.185146413E0,1.360119546E0
1.328829825E1,8.840398036E-1,2.768200529E-1,1.366752160E0,1.651110894E0
1.329832025E1,1.086099988E0,1.892334402E-1,1.425320796E0,1.801932810E0
1.330834325E1,1.147331154E0,1.366640478E-1,1.377050276E0,1.797585409E0
1.331836525E1,1.376758500E0,2.590825242E-1,1.552100126E0,2.090837756E0
1.332838825E1,1.263024163E0,3.447179210E-1,1.629853476E0,2.090569978E0
1.333841025E1,9.257267967E-1,4.357403576E-1,1.579069823E0,1.881568831E0
1.334843225E1,7.779866606E-1,5.094643915E-1,1.829826497E0,2.052579406E0
1.335845525E1,2.395510697E-1,3.610316527E-1,1.728594822E0,1.782068637E0
1.336847725E1,-5.428657338E-1,2.805219251E-1,1.374286298E0,1.504014157E0
1.337850025E1,-3.585081406E-1,4.401134902E-1,2.296728421E0,2.365837993E0
1.338852225E1,-3.638122961E-1,4.247996324E-1,2.769552405E0,2.825461845E0
1.339854425E1,-4.343906741E-1,4.082900190E-1,2.937566884E0,2.997448114E0
1.340856725E1,-4.898943454E-1,4.155657095E-1,2.963446076E0,3.032277028E0
1.341858925E1,5.800920323E-2,4.730993879E-1,3.304588425E0,3.338786120E0
1.342861125E1,7.536569810E-1,1.932534009E-1,3.406828744E0,3.494542576E0
1.343863425E1,1.442095434E0,-2.663699090E-2,3.004999899E0,3.333222639E0
1.344865625E1,1.662530056E0,-1.190814704E-1,2.446332357E0,2.960190633E0
1.345867925E1,2.100296474E0,-4.759984374E-2,2.373584223E0,3.169765463E0
1.346870125E1,2.420788211E0,-1.200363207E-1,1.765388426E0,2.998536405E0
1.347872325E1,2.401332478E0,-3.001814336E-1,5.553469080E-1,2.482925039E0
1.348874625E1,2.397446857E0,-4.842821878E-1,-5.415937086E-1,2.505115649E0
1.349876825E1,2.207068824E0,-5.414755583E-1,-1.302236322E0,2.619192244E0
1.350879025E1,1.877065567E0,-5.128072447E-1,-1.426845750E0,2.412930834E0
1.351881325E1,1.236367437E0,-6.730536979E-1,-1.091426656E0,1.781240541E0
1.352883525E1,3.817481916E-1,-9.715148807E-1,-3.872751260E-1,1.113352985E0
1.353885825E1,-4.573963979E-1,-1.345317437E0,3.420218430E-1,1.461529819E0
1.354888025E1,-1.160112144E0,-1.634697309E0,8.616427749E-1,2.181862450E0
1.355890225E1,-1.754915478E0,-1.714791884E0,1.116607105E0,2.695746830E0
1.356892525E1,-2.223040640E0,-1.412778518E0,1.141170089E0,2.870561269E0
1.357894725E1,-2.563394784E0,-7.630938023E-1,1.064989055E0,2.878802990E0
1.358896925E1,-2.586417318E0,1.296292627E-1,5.756823546E-1,2.652879278E0
1.359899225E1,-2.625725518E0,1.021393384E0,-2.874140382E-1,2.832010906E0
1.360901425E1,-2.824026235E0,1.462195677E0,-1.190922731E0,3.395797009E0
1.361903725E1,-3.013478946E0,1.447588747E0,-2.078515595E0,3.936596959E0
1.362905925E1,-3.104659550E0,1.034006998E0,-2.944987586E0,4.402389496E0
1.363908125E1,-2.976536238E0,1.116186690E-1,-3.361818048E0,4.491552881E0
1.364910425E1,-2.460998343E0,-1.150347878E0,-3.673264142E0,4.568663103E0
1.365912625E1,-1.726900299E0,-2.330157537E0,-3.978307536E0,4.923286467E0
1.366914825E1,-1.190256733E0,-3.419336523E0,-3.798367952E0,5.247492016E0
1.367917125E1,-7.834114149E-1,-4.422963728E0,-3.459757740E0,5.669767650E0
1.368919325E1,-1.170950250E-1,-4.957618509E0,-2.980437792E0,5.785732621E0
1.369921625E1,8.780635107E-1,-4.812277193E0,-2.297759577E0,5.404507969E0
1.370923825E1,1.800247041E0,-4.120428205E0,-1.971822621E0,4.909878048E0
1.371926025E1,2.485294986E0,-3.203374876E0,-1.999360667E0,4.520591205E0
1.372928325E1,2.872343532E0,-2.150110658E0,-2.201398340E0,4.209452205E0
1.373930525E1,2.890085154E0,-1.121132850E0,-2.055395705E0,3.719433098E0
1.374932725E1,2.656814286E0,-1.286118472E-1,-1.752361414E0,3.185274507E0
1.375935025E1,2.381182826E0,6.857474184E-1,-1.542346385E0,2.918752053E0
1.376937225E1,1.993043336E0,1.163174915E0,-1.158786872E0,2.582244109E0
1.377939425E1,1.414616006E0,1.336601577E0,-6.170905817E-1,2.041676519E0
1.378941717E1,4.812580079E-1,1.307502324E0,-2.569857126E-1,1.416761537E0
1.379943917E1,-2.761090314E-1,1.299554788E0,7.193566293E-2,1.330508769E0
1.380946217E1,-9.604327990E-1,1.294239669E0,4.670434266E-1,1.677980049E0
1.381948417E1,-1.713774469E0,1.224301708E0,6.932470572E-1,2.217324758E0
1.382950617E1,-2.050988512E0,1.135756152E0,7.174339186E-1,2.451776364E0
1.383952917E1,-2.277878898E0,9.387155092E-1,4.140407556E-1,2.498269166E0
1.384955117E1,-2.321036758E0,6.653020442E-1,-5.991992712E-2,2.415249229E0
1.385957317E1,-2.184229161E0,3.978609252E-1,-4.723901206E-1,2.269868448E0
1.386959617E1,-2.156512482E0,1.707299262E-1,-8.860698107E-1,2.337694270E0
1.387961817E1,-2.030216571E0,1.281703824E-1,-1.214371381E0,2.369156986E0
1.388964117E1,-1.709057374E0,3.069718051E-1,-1.495313721E0,2.291521748E0
1.389966317E1,-1.209111957E0,6.200539505E-1,-1.778261071E0,2.237997110E0
1.390968517E1,-6.707371042E-1,8.422820592E-1,-1.858923996E0,2.148237825E0
1.391970817E1,-3.195517972E-1,8.628250819E-1,-1.674235889E0,1.910404744E0
1.392973017E1,-2.254956789E-2,8.336457217E-1,-1.227892191E0,1.484315635E0
1.393975317E1,2.278965457E-1,9.191068715E-1,-6.667398745E-1,1.158117583E0
1.394977517E1,4.383877576E-1,1.145492350E0,-1.554862350E-1,1.236330263E0
1.395979717E1,5.610237504E-1,1.412490835E0,2.793934125E-1,1.545295663E0
1.396982017E1,5.754940011E-1,1.554755346E0,7.327284805E-1,1.812553050E0
1.397984217E1,4.826861172E-1,1.621834019E0,1.156552944E0,2.049620986E0
1.398986417E1,2.123761350E-1,1.621750989E0,1.437003533E0,2.177190631E0
1.399988717E1,-1.082899223E-1,1.522919011E0,1.524196628E0,2.157355877E0
1.400990917E1,-2.373716663E-1,1.341808523E0,1.541376771E0,2.057337544E0
1.401993117E1,-2.460904495E-1,1.110105001E0,1.362243518E0,1.774429775E0
1.402995417E1,-1.085644490E-1,9.373104233E-1,1.152849756E0,1.489764957E0
1.403997617E1,2.205789015E-1,9.233490264E-1,1.014169588E0,1.389161052E0
1.404999917E1,6.128885532E-1,7.345096886E-1,8.280777106E-1,1.265246836E0
1.406002117E1,9.747476600E-1,4.550542957E-1,6.753841057E-1,1.270177587E0
1.407004317E1,1.194503420E0,2.235244364E-1,4.927001318E-1,1.311318044E0
1.408006617E1,1.258978620E0,4.664206982E-2,2.700343591E-1,1.288456908E0
1.409008817E1,1.202822473E0,-1.763935393E-1,4.585035682E-2,1.216552028E0
1.410011017E1,1.010925041E0,-4.182220995E-1,-2.667792141E-3,1.094022980E0
1.411013317E1,6.877177108E-1,-6.628216553E-1,1.319406670E-1,9.642077245E-1
1.412015517E1,4.179502040E-1,-8.795738465E-1,3.759929234E-1,1.043888501E0
1.413017817E1,3.675990991E-1,-1.012835984E0,6.388065559E-1,1.252613126E0
1.414020017E1,6.937381502E-1,-9.187361580E-1,8.336539078E-1,1.421382280E0
1.415022217E1,1.272480133E0,-6.115269560E-1,1.025638463E0,1.745022970E0
1.416024517E1,1.822761306E0,-3.171892297E-1,1.391357536E0,2.314939217E0
1.417026717E1,2.244542606E0,-1.219413435E-1,1.839273258E0,2.904439244E0
1.418028917E1,2.459752302E0,-6.889832675E-2,2.266477266E0,3.345451772E0
1.419031217E1,2.547124906E0,6.219390929E-2,2.315990026E0,3.443185033E0
1.420033417E1,2.443896992E0,3.416177273E-2,1.898417260E0,3.094800095E0
1.421035717E1,2.235263075E0,-1.262858248E-1,1.202065624E0,2.541123941E0
1.422037917E1,1.971159839E0,-2.652986991E-1,4.295794389E-1,2.034795568E0
1.423040117E1,1.693522053E0,-2.970151663E-1,-2.498863158E-1,1.737434351E0
1.424042417E1,1.468573088E0,-1.364430231E-1,-5.788755190E-1,1.584430649E0
1.425044617E1,1.149891942E0,1.897012174E-1,-3.965242517E-1,1.231044074E0
1.426046817E1,9.291168661E-1,5.033528817E-1,1.077606761E-1,1.062183900E0
1.427049117E1,8.794374602E-1,6.513763154E-1,6.532946406E-1,1.274556879E0
1.428051317E1,9.074349520E-1,5.488477278E-1,1.099705436E0,1.527751310E0
1.429053617E1,8.771974649E-1,-2.181596160E-2,1.306152787E0,1.573526749E0
1.430055817E1,6.067483921E-1,-1.208601349E0,9.117826492E-1,1.631014541E0
1.431058017E1,2.932185692E-1,-2.478061103E0,1.399944757E-1,2.499272377E0
1.432060317E1,1.726843581E-2,-2.954156604E0,-3.668385226E-1,2.976896025E0
1.433062517E1,-5.113358659E-1,-2.166988646E0,-2.290459621E-1,2.238250703E0
1.434064717E1,-1.166096696E0,-9.279402602E-1,2.855451219E-1,1.517363057E0
1.435067017E1,-1.718199057E0,-5.891087312E-1,6.551660420E-1,1.930932324E0
1.436069217E1,-2.053931854E0,-1.277745259E0,1.298624496E0,2.745486221E0
1.437071417E1,-2.025831890E0,-1.917811890E0,2.091081262E0,3.486347391E0
1.438073717E1,-1.718112372E0,-1.860001053E0,2.489491240E0,3.550926735E0
1.439075917E1,-9.265867759E-1,-1.002628500E0,2.492972673E0,2.842312388E0
1.440078217E1,1.650186583E-1,2.368356228E-2,1.952415712E0,1.959520140E0
1.441080417E1,1.551987713E0,7.968187881E-1,4.477996552E-1,1.801141464E0
1.442082617E1,2.495831669E0,1.208859796E0,-2.117723515E0,3.489308042E0
1.443084917E1,2.647174859E0,6.970799071E-1,-4.881506472E0,5.596656195E0
1.444087117E1,2.373883893E0,-5.691644633E-1,-6.709096409E0,7.139415071E0
1.445089317E1,1.930518620E0,-1.497768382E0,-7.262751133E0,7.662751874E0
1.446091617E1,8.062444997E-1,-2.226871735E0,-6.073581836E0,6.519001782E0
1.447093817E1,-1.081607646E0,-2.871926626E0,-3.526241752E0,4.674635658E0
1.448096117E1,-3.049292265E0,-2.918923622E0,-1.226334346E0,4.395701805E0
1.449098317E1,-3.992765361E0,-2.367263383E0,-4.393977910E-2,4.641986844E0
1.450100517E1,-3.721043496E0,-1.619378189E0,6.555529815E-1,4.110754204E0
1.451102817E1,-3.074345537E0,-8.537110269E-1,9.340111318E-1,3.324575130E0
1.452105017E1,-2.555144362E0,-6.945907474E-3,7.833245838E-1,2.672528459E0
1.453107217E1,-1.947942007E0,7.766803926E-1,1.360654391E-1,2.101481453E0
1.454109517E1,-1.449172758E0,1.251035178E0,-4.503614666E-1,1.966727268E0
1.455111717E1,-1.264370922E0,1.655024570E0,-8.290568268E-1,2.241667990E0
1.456113917E1,-1.249656258E0,2.029033533E0,-7.868639034E-1,2.509536340E0
1.457116217E1,-1.483413029E0,1.890093749E0,-2.282239898E-1,2.413515027E0
1.458118417E1,-1.903254369E0,1.462897342E0,1.059018463E-1,2.402844362E0
1.459120717E1,-2.284460085E0,1.080487100E0,2.947522938E-2,2.527267110E0
1.460122917E1,-2.376365159E0,8.901736790E-1,1.402438594E-1,2.541493437E0
1.461125117E1,-2.224151903E0,8.511686575E-1,4.712580997E-1,2.427637528E0
1.462127417E1,-2.012348503E0,9.157616794E-1,6.358161436E-1,2.300527791E0
1.463129617E1,-1.796742074E0,9.427120811E-1,4.961206068E-1,2.088809183E0
1.464131817E1,-1.724793547E0,8.011889970E-1,1.893913150E-3,1.901793936E0
1.465134117E1,-1.564867813E0,4.784414041E-1,-4.653127970E-1,1.701244676E0
1.466136317E1,-1.010880529E0,3.231522202E-2,-9.872760504E-1,1.413378123E0
1.467138517E1,-3.180924053E-1,-4.877893478E-1,-1.855867656E0,1.945087655E0
1.468140817E1,2.570946901E-1,-9.539013129E-1,-2.548757156E0,2.733530398E0
1.469143017E1,3.992117051E-1,-1.214837989E0,-2.971269066E0,3.234755197E0
1.470145317E1,3.762788522E-1,-1.164681158E0,-2.945776960E0,3.189932581E0
1.471147517E1,4.686341617E-1,-8.762935585E-1,-2.001937535E0,2.235008339E0
1.472149717E1,6.015505828E-1,-3.663368315E-1,-6.758510059E-1,9.761354209E-1
1.473152017E1,7.136982787E-1,2.547859901E-1,3.529262424E-1,8.359653499E-1
1.474154217E1,7.422799073E-1,8.256186640E-1,9.668276064E-1,1.472202860E0
1.475156417E1,7.785330829E-1,1.296325956E0,1.381313920E0,2.048072970E0
1.476158717E1,7.790607941E-1,1.566506495E0,1.698173367E0,2.438169622E0
1.477160917E1,7.015158972E-1,1.570778471E0,1.901515407E0,2.564221208E0
1.478163217E1,4.488577089E-1,1.139160985E0,1.893533373E0,2.254912333E0
1.479165454E1,3.297439326E-1,6.533175910E-1,1.602272159E0,1.761485455E0
1.480167654E1,2.894991553E-1,3.422252530E-1,1.234162891E0,1.313044525E0
1.481169954E1,2.615466870E-1,1.353221118E-1,9.365210491E-1,9.817282816E-1
1.482172154E1,3.238576868E-1,8.664871931E-2,6.607201660E-1,7.409068360E-1
1.483174354E1,4.553769158E-1,1.677630490E-1,3.741288310E-1,6.127682745E-1
1.484176654E1,5.777076839E-1,2.459192723E-1,2.761474769E-1,6.859153632E-1
1.485178854E1,6.287633783E-1,1.783248746E-1,3.541407090E-1,7.433429818E-1
1.486181154E1,5.192431287E-1,-2.222409725E-2,3.704363143E-1,6.382244121E-1
1.487183354E1,5.797784753E-1,-1.109626114E-1,3.692072296E-1,6.962540915E-1
1.488185554E1,6.690645812E-1,-1.128436607E-1,4.240323316E-1,8.001153191E-1
1.489187854E1,7.104538049E-1,-2.245798588E-2,3.929285064E-1,8.121833421E-1
1.490190054E1,7.552037157E-1,3.358348310E-2,4.853224075E-1,8.983308643E-1
1.491192254E1,6.352665053E-1,2.325022513E-1,5.737023412E-1,8.869922243E-1
1.492194554E1,3.073540668E-1,6.171601635E-1,6.751633734E-1,9.649864095E-1
1.493196754E1,-4.363747805E-2,1.061937393E0,8.543407720E-1,1.363639766E0
1.494198954E1,-1.035565281E-1,1.339197156E0,1.003272424E0,1.676522751E0
1.495201254E1,6.557257667E-2,1.425330151E0,1.102187871E0,1.802965309E0
1.496203454E1,2.889134105E-1,1.229779379E0,1.034911416E0,1.633055394E0
1.497205654E1,5.398376070E-1,7.801074457E-1,8.503399609E-1,1.273997770E0
1.498207954E1,7.412082589E-1,2.411333263E-1,7.459977132E-1,1.078910354E0
1.499210154E1,8.005995977E-1,-2.172761017E-1,5.236431585E-1,9.810049835E-1
1.500212454E1,4.632494608E-1,-5.624120986E-1,-1.492852628E-2,7.287868636E-1
1.501214654E1,-1.347442608E-1,-7.280800903E-1,-6.667663331E-1,9.964105462E-1
1.502216854E1,-6.173779723E-1,-6.608523130E-1,-7.984495765E-1,1.206400873E0
1.503219154E1,-9.360181886E-1,-3.728751880E-1,-3.309079671E-1,1.060502729E0
1.504221354E1,-9.690843393E-1,-6.346918702E-2,5.997009623E-1,1.141400034E0
1.505223554E1,-6.937759379E-1,1.328195035E-1,1.617307836E0,1.764837304E0
1.506225854E1,-1.489279979E-1,1.327124995E-1,2.677962204E0,2.685381485E0
1.507228054E1,5.784659216E-1,-3.618841767E-2,3.563997223E0,3.610818277E0
1.508230354E1,1.289215303E0,-2.984120661E-1,4.006097597E0,4.218997964E0
1.509232554E1,1.712204199E0,-5.298910546E-1,3.841874453E0,4.239389940E0
1.510234754E1,1.829069721E0,-6.525586224E-1,3.002456945E0,3.575762367E0
1.511237054E1,1.889118141E0,-7.207125986E-1,2.243114131E0,3.019893211E0
1.512239254E1,1.854164947E0,-8.005259228E-1,1.952384722E0,2.809016822E0
1.513241454E1,1.683179790E0,-7.934484529E-1,1.868574241E0,2.637086337E0
1.514243754E1,1.368216595E0,-5.478496081E-1,1.758008071E0,2.294068051E0
1.515245954E1,9.553765655E-1,-3.162753099E-1,1.604660162E0,1.894124782E0
1.516248154E1,6.876194045E-1,-3.007696635E-1,1.465303618E0,1.646328500E0
1.517250454E1,6.910936739E-1,-3.927738476E-1,1.296588642E0,1.520862870E0
1.518252654E1,7.132850267E-1,-3.495471364E-1,9.430577246E-1,1.233011193E0
1.519254954E1,5.706901480E-1,-1.637413341E-1,5.073892877E-1,7.809880657E-1
1.520257154E1,3.433080111E-1,3.078149736E-2,1.866208311E-1,3.919632964E-1
1.521259354E1,2.193113713E-1,1.876476753E-1,4.906398654E-3,2.886749043E-1
1.522261654E1,1.737593687E-1,3.740253353E-1,-1.269799624E-1,4.315219351E-1
1.523263854E1,1.572604264E-1,5.211617464E-1,5.986964107E-3,5.444044924E-1
1.524266054E1,8.387494639E-2,5.068588722E-1,5.260915339E-1,7.353320508E-1
1.525268354E1,-3.257749888E-1,2.777597004E-1,1.083545778E0,1.165054183E0
1.526270554E1,-7.477777518E-1,-1.293848491E-1,1.511487558E0,1.691303238E0
1.527272754E1,-8.673834251E-1,-5.356716120E-1,1.621010147E0,1.914933936E0
1.528275054E1,-7.196954754E-1,-6.569767785E-1,1.325823405E0,1.645414162E0
1.529277254E1,-4.901631711E-1,-3.537816900E-1,7.404329181E-1,9.558568537E-1
1.530279554E1,-3.974146365E-1,-5.120231330E-2,3.059800442E-1,5.041664979E-1
1.531281754E1,-4.006645189E-1,3.702035952E-1,-1.719129641E-1,5.719587624E-1
1.532283954E1,-5.943816040E-1,7.250676048E-1,-7.194794208E-1,1.181805043E0
1.533286254E1,-8.466956837E-1,9.360211122E-1,-1.217245946E0,1.753487039E0
1.534288454E1,-1.101667177E0,9.951253527E-1,-1.653856588E0,2.222428098E0
1.535290654E1,-1.307813250E0,8.886177349E-1,-1.945394229E0,2.506905599E0
1.536292954E1,-1.488941718E0,4.631094199E-1,-2.110781116E0,2.624274127E0
1.537295154E1,-1.634614425E0,-2.522921526E-1,-2.286265559E0,2.821812513E0
1.538297354E1,-1.803284377E0,-1.174381104E0,-2.329209704E0,3.171154895E0
1.539299654E1,-2.053184872E0,-2.311732961E0,-2.276976965E0,3.839830921E0
1.540301854E1,-2.263943667E0,-3.248503101E0,-2.412046623E0,4.636397550E0
1.541304154E1,-2.071033937E0,-3.686453122E0,-2.150166206E0,4.743662393E0
1.542306354E1,-1.241685041E0,-3.641037798E0,-1.565169530E0,4.153154662E0
1.543308554E1,-3.405934413E-1,-3.251890978E0,-1.393463703E0,3.554228456E0
1.544310854E1,2.970283225E-1,-2.842729724E0,-1.776286174E0,3.365194004E0
1.545313054E1,8.336679411E-1,-2.452472518E0,-2.404694042E0,3.534427411E0
1.546315254E1,1.258705994E0,-2.185474033E0,-3.057416386E0,3.963386492E0
1.547317554E1,1.514368920E0,-1.974239275E0,-3.738152449E0,4.490514188E0
1.548319754E1,1.558077296E0,-1.638000986E0,-4.060430510E0,4.647337734E0
1.549321954E1,1.307357313E0,-1.076885800E0,-3.332350127E0,3.738104271E0
1.550324254E1,9.948674174E-1,-3.379439217E-1,-2.113358861E0,2.360138332E0
1.551326454E1,5.579456299E-1,3.581928295E-1,-1.333235335E0,1.489000298E0
1.552328754E1,1.260041352E-1,9.958691186E-1,-9.654109722E-1,1.392713427E0
1.553330954E1,-1.856246848E-1,1.474899337E0,-7.000625718E-1,1.643128779E0
1.554333154E1,-4.456678335E-1,1.722497930E0,-2.092560607E-1,1.791481799E0
1.555335454E1,-5.794453302E-1,1.781555977E0,4.389335221E-1,1.924152080E0
1.556337654E1,-6.686528642E-1,1.689720193E0,1.085585287E0,2.116777362E0
1.557339854E1,-7.874068174E-1,1.351247098E0,1.022265497E0,1.868396361E0
1.558342154E1,-7.666081251E-1,9.778953624E-1,8.919898242E-1,1.529579421E0
1.559344354E1,-7.177560271E-1,7.657887840E-1,9.036684680E-1,1.384999233E0
1.560346554E1,-6.298581232E-1,7.796110171E-1,6.587926313E-1,1.199384144E0
1.561348854E1,-5.569914374E-1,9.272111124E-1,1.729072832E-1,1.095379768E0
1.562351054E1,-3.862269395E-1,1.204928713E0,-2.895472486E-1,1.298022365E0
1.563353254E1,-1.285904317E-1,1.489208643E0,-7.379890743E-1,1.667005026E0
1.564355554E1,1.211691456E-1,1.676087410E0,-1.164345236E0,2.044419427E0
1.565357754E1,3.568829801E-1,1.702144357E0,-1.405976014E0,2.236387584E0
1.566360054E1,5.926677120E-1,1.501318812E0,-1.358855642E0,2.109905649E0
1.567362254E1,6.007723184E-1,9.156324559E-1,-7.797308850E-1,1.344355022E0
1.568364454E1,5.794169712E-1,4.100406754E-1,-1.362665834E-1,7.227904010E-1
1.569366754E1,6.966280635E-1,2.033199674E-1,2.803044087E-1,7.779461610E-1
1.570368954E1,7.980703846E-1,1.226014942E-1,6.156936818E-1,1.015394591E0
1.571371154E1,8.191876770E-1,5.015039921E-2,8.896526921E-1,1.210398870E0
1.572373454E1,8.119127905E-1,8.995356560E-3,1.080056599E0,1.351223724E0
1.573375654E1,8.545499562E-1,4.057265997E-2,1.107310617E0,1.399299314E0
1.574377854E1,9.477496035E-1,1.402092147E-1,9.612436616E-1,1.357157807E0
1.575380154E1,1.133882485E0,2.132947326E-1,7.511051099E-1,1.376714574E0
1.576382354E1,1.390318924E0,3.133288980E-1,6.167686924E-1,1.552921547E0
1.577384654E1,1.721153655E0,5.398897934E-1,6.814333427E-1,1.928264062E0
1.578386854E1,2.062441307E0,8.084085542E-1,8.176972948E-1,2.361316879E0
1.579389038E1,2.211004146E0,6.391000861E-1,7.409509814E-1,2.417849584E0
1.580391337E1,2.376276866E0,4.560553390E-1,6.820518319E-1,2.513935743E0
1.581393538E1,2.483336169E0,2.670113486E-1,7.637434280E-1,2.611811175E0
1.582395737E1,2.645480921E0,2.544433433E-1,8.381030542E-1,2.786705482E0
1.583398038E1,2.691350281E0,3.770600402E-1,7.992196548E-1,2.832718247E0
1.584400237E1,2.551637203E0,4.933465415E-1,8.248174493E-1,2.726640249E0
1.585402438E1,2.311076319E0,6.487263572E-1,8.301805155E-1,2.539905377E0
1.586404738E1,2.081290391E0,8.073461151E-1,8.594347201E-1,2.392113183E0
1.587406937E1,1.900395081E0,9.785338783E-1,1.089453659E0,2.399153869E0
1.588409238E1,1.799185333E0,1.137944764E0,1.430737072E0,2.564955110E0
1.589411437E1,1.775575445E0,1.205681834E0,1.774030611E0,2.784514582E0
1.590413638E1,1.734155378E0,1.116635756E0,1.931903533E0,2.826025751E0
1.591415938E1,1.584566498E0,6.123853272E-1,1.778254640E0,2.459279638E0
1.592418138E1,1.269497176E0,-2.676562965E-1,1.277073414E0,1.820488802E0
1.593420337E1,8.992561591E-1,-1.233401145E0,5.435855260E-1,1.620316404E0
1.594422637E1,5.543585093E-1,-1.900162654E0,-1.470223904E-1,1.984829225E0
1.595424838E1,9.933323041E-2,-2.195445875E0,-7.671605408E-1,2.327742463E0
1.596427038E1,-4.531978778E-1,-2.202554920E0,-1.114571397E0,2.509762118E0
1.597429338E1,-9.294036721E-1,-2.299788854E0,-1.155173585E0,2.736283240E0
1.598431537E1,-1.143702152E0,-2.622031247E0,-9.296230888E-1,3.007873262E0
1.599433738E1,-1.111241846E0,-2.955492108E0,-5.146095027E-1,3.199158481E0
1.600436038E1,-7.714802445E-1,-3.123663293E0,1.432307634E-1,3.220709423E0
1.601438238E1,-2.373854072E-1,-2.855881281E0,8.675317982E-1,2.994164516E0
1.602440538E1,1.757836747E-1,-2.065116116E0,1.154637250E0,2.372507461E0
1.603442737E1,4.703756087E-1,-1.205132781E0,8.147713481E-1,1.528872324E0
1.604444938E1,4.027718554E-1,-9.599198520E-1,-1.295000392E-1,1.049019328E0
1.605447237E1,-2.602654159E-2,-1.210680619E0,-1.159589695E0,1.676625540E0
1.606449438E1,-6.892716815E-1,-1.533788400E0,-1.728443379E0,2.411455747E0
1.607451637E1,-1.431827431E0,-1.765469118E0,-1.826666662E0,2.916114211E0
1.608453937E1,-2.183752759E0,-1.759483908E0,-1.758726109E0,3.310238248E0
1.609456138E1,-2.635718409E0,-1.662645831E0,-1.683139737E0,3.541802093E0
1.610458338E1,-2.751447086E0,-1.586572385E0,-1.720741426E0,3.612287926E0
1.611460638E1,-2.684806370E0,-1.484081805E0,-1.881685014E0,3.598808488E0
1.612462837E1,-2.396740513E0,-1.174921387E0,-1.897992314E0,3.275237423E0
1.613465038E1,-1.899247272E0,-6.335007924E-1,-1.794607694E0,2.688694893E0
1.614467337E1,-1.424407753E0,-2.892500639E-2,-1.678611068E0,2.201705980E0
1.615469538E1,-1.204440397E0,5.611929542E-1,-1.665383497E0,2.130520217E0
1.616471838E1,-1.117597039E0,1.228468434E0,-1.743178362E0,2.407660407E0
1.617474038E1,-1.229121129E0,1.975667165E0,-1.740646664E0,2.905830399E0
1.618476237E1,-1.447691073E0,2.493258601E0,-1.487312976E0,3.244109706E0
1.619478537E1,-1.639918288E0,2.551812619E0,-1.081884731E0,3.220489746E0
1.620480738E1,-1.809967014E0,2.242586128E0,-6.009885192E-1,2.943868260E0
1.621482937E1,-1.966784952E0,1.750482704E0,2.668142974E-2,2.633086524E0
1.622485238E1,-2.001933150E0,1.167353920E0,5.064209157E-1,2.372111645E0
1.623487437E1,-1.942309823E0,7.939852273E-1,1.008144178E0,2.327946450E0
1.624489638E1,-1.893572842E0,6.659347129E-1,1.627315346E0,2.584036065E0
1.625491938E1,-1.941687825E0,6.285528785E-1,1.546372778E0,2.560566168E0
1.626494138E1,-1.872827213E0,5.531536174E-1,1.297629885E0,2.344633023E0
1.627496337E1,-1.636668990E0,4.572072405E-1,1.355927356E0,2.173996973E0
1.628498637E1,-1.380852428E0,4.167977178E-1,1.355606782E0,1.979430099E0
1.629500838E1,-9.874535865E-1,3.953641641E-1,1.218270451E0,1.617269396E0
1.630503138E1,-5.094086237E-1,3.269341993E-1,6.462670183E-1,8.854626901E-1
1.631505338E1,-1.229404134E-1,2.433956140E-1,-2.259780742E-1,3.541494885E-1
1.632507537E1,-3.968797624E-5,1.154766619E-1,-1.137277743E0,1.143125333E0
1.633509837E1,2.331555314E-2,-9.549614131E-2,-1.831796424E0,1.834432137E0
1.634512038E1,-6.063416451E-2,-3.931065542E-1,-2.232170775E0,2.267332272E0
1.635514238E1,-2.754784092E-1,-6.889996397E-1,-2.367945169E0,2.481486083E0
1.636516538E1,-4.649083158E-1,-8.701849723E-1,-2.191531164E0,2.403366487E0
1.637518737E1,-5.017722331E-1,-9.020721781E-1,-1.684280090E0,1.975426286E0
1.638520938E1,-4.946840921E-1,-7.675914806E-1,-1.259624445E0,1.555815791E0
1.639523237E1,-4.321523599E-1,-4.995983845E-1,-8.983790767E-1,1.115096038E0
1.640525438E1,-3.484137999E-1,2.573359609E-3,-4.654298875E-1,5.813981237E-1
1.641527738E1,-3.951013318E-1,3.662187177E-1,-2.301493317E-2,5.392132219E-1
1.642529937E1,-4.885013925E-1,4.515828037E-1,2.242664480E-1,7.020370922E-1
1.643532138E1,-4.898766576E-1,5.379420859E-1,3.769657539E-1,8.194290738E-1
1.644534437E1,-3.808895279E-1,6.546712214E-1,5.201811683E-1,9.188360509E-1
1.645536638E1,-1.697915943E-1,7.232497054E-1,7.441839069E-1,1.051536499E0
