"Time (s)","Linear Acceleration x (m/s^2)","Linear Acceleration y (m/s^2)","Linear Acceleration z (m/s^2)","Absolute acceleration (m/s^2)"
2.357791665E-2,-2.095155309E-1,8.431743443E-2,5.101257116E-1,5.578838849E-1
3.360191666E-2,-2.074210583E-1,8.722671658E-2,3.431052589E-1,4.103086816E-1
4.362591666E-2,6.509763658E-2,-3.177464694E-2,1.555751127E-1,1.716127797E-1
5.364991666E-2,3.089138116E-1,-1.016623226E-1,4.337756932E-2,3.280923412E-1
6.367391667E-2,4.441908999E-1,-1.658688435E-1,-5.286526144E-2,4.770877955E-1
7.369791665E-2,5.572972468E-1,-1.134041163E-1,3.660707831E-2,5.698954229E-1
8.372191666E-2,6.451531237E-1,-4.882161945E-2,-5.641276717E-2,6.494524647E-1
9.374591666E-2,6.632683825E-1,-3.051018655E-2,-1.617983043E-1,6.833992318E-1
1.037699167E-1,6.748327133E-1,-4.060715854E-2,-2.553566784E-1,7.226722393E-1
1.137939167E-1,5.802601397E-1,-2.884636134E-2,-3.763934577E-1,6.922470493E-1
1.238179167E-1,4.979424530E-1,5.214546919E-2,-4.223069644E-1,6.549877928E-1
1.338419167E-1,4.536797614E-1,6.380452484E-2,-4.410437822E-1,6.359370733E-1
1.438669167E-1,4.455006762E-1,4.156493247E-3,-6.339931279E-1,7.748776776E-1
1.538909167E-1,4.048832850E-1,-2.787367702E-3,-7.482962537E-1,8.508146256E-1
1.639149167E-1,2.665421095E-1,-1.144498909E-1,-4.410350114E-1,5.278781630E-1
1.739389167E-1,3.619603367E-1,-1.588299653E-1,-4.179858720E-1,5.752863917E-1
1.839629167E-1,4.269993550E-1,-1.338410121E-1,-2.674446273E-1,5.213141992E-1
1.939869167E-1,4.694408581E-1,-2.992736533E-1,-3.060374200E-2,5.575625776E-1
2.040109167E-1,4.032041840E-1,-2.398466465E-1,3.808525443E-2,4.706915279E-1
2.140349167E-1,3.626321818E-1,-4.353836775E-2,1.043768924E-1,3.798581635E-1
2.240589167E-1,3.487642673E-1,-8.285943121E-2,1.244030213E-1,3.794447407E-1
2.340829167E-1,4.654319340E-1,-1.709421802E-1,2.107494396E-1,5.387610235E-1
2.441069167E-1,7.024673123E-1,-1.928473118E-1,2.962369019E-1,7.863883980E-1
2.541309167E-1,8.849214906E-1,-1.814955273E-1,4.106517094E-1,9.923011123E-1
2.641549167E-1,9.910287935E-1,-2.246731219E-1,5.698181820E-1,1.165035983E0
2.741789167E-1,1.123456168E0,-2.733547005E-1,5.977181715E-1,1.301592704E0
2.842029167E-1,1.213166416E0,-3.456090367E-1,5.015800059E-1,1.357498016E0
2.942269167E-1,1.473761761E0,-4.549195173E-1,2.432178587E-1,1.561435373E0
3.042509167E-1,1.566783653E0,-5.401005855E-1,-3.689593077E-2,1.657673360E0
3.142749167E-1,1.656343117E0,-6.299474394E-1,-3.638611203E-1,1.809060865E0
3.242989167E-1,1.807465867E0,-6.835169980E-1,-5.834223139E-1,2.018541539E0
3.343229167E-1,1.816541477E0,-7.184997198E-1,-7.244577402E-1,2.083483574E0
3.443469167E-1,1.654689963E0,-7.547977728E-1,-7.725762320E-1,1.976004197E0
3.543709167E-1,1.364545275E0,-7.056794071E-1,-9.248915219E-1,1.793151293E0
3.643949167E-1,1.140966679E0,-6.360954943E-1,-9.580364639E-1,1.619955649E0
3.744189167E-1,1.049387879E0,-7.236046314E-1,-8.837288779E-1,1.551062640E0
3.844429167E-1,8.531723522E-1,-8.616246486E-1,-1.028295438E0,1.589871569E0
3.944669167E-1,6.938299515E-1,-1.009838994E0,-1.212605522E0,1.723829153E0
4.044909167E-1,8.975211440E-1,-1.119758170E0,-1.277028390E0,1.920990388E0
4.145149167E-1,1.049422086E0,-1.237379883E0,-1.690901331E0,2.343404147E0
4.245389167E-1,1.198264349E0,-1.310604272E0,-1.434826614E0,2.283034914E0
4.345629167E-1,1.571533493E0,-1.238871507E0,-7.559870964E-1,2.139167273E0
4.445869167E-1,1.791790651E0,-1.179571970E0,-3.607211655E-1,2.175321477E0
4.546119167E-1,1.503432142E0,-1.655717757E0,8.260712385E-2,2.237975298E0
4.646359167E-1,9.134251320E-1,-1.863889744E0,2.015418291E-2,2.075773745E0
4.746599167E-1,-1.048610419E-2,-1.523865383E0,-2.972888160E-1,1.552628836E0
4.846839167E-1,-8.621009043E-1,-1.347579725E0,-7.125802910E-1,1.751273752E0
4.947079167E-1,-9.928697893E-1,-1.385539703E0,-1.010735080E0,1.981690210E0
5.047319167E-1,-6.567139462E-1,-1.369286928E0,-1.400147363E0,2.065582856E0
5.147559167E-1,-5.375205016E-1,-1.371530212E0,-1.605634893E0,2.179010515E0
5.247799167E-1,-7.389678982E-1,-1.397457644E0,-1.711059607E0,2.329524930E0
5.348039167E-1,-1.267985379E0,-1.229478686E0,-1.634091538E0,2.406171215E0
5.448279167E-1,-1.873260492E0,-1.269922269E0,-1.060172703E0,2.499154577E0
5.548519167E-1,-2.137713391E0,-9.881399766E-1,-2.530119449E-1,2.368597518E0
5.648759167E-1,-2.303122351E0,-4.128494585E-1,5.053988224E-1,2.393793059E0
5.748999167E-1,-2.265593167E0,-1.567521572E-1,1.575574358E0,2.764040194E0
5.849239167E-1,-1.999178234E0,-3.677375320E-1,2.320814272E0,3.085145602E0
5.949479167E-1,-2.071406550E0,-6.982186523E-1,2.789238226E0,3.543738741E0
6.049719167E-1,-2.012375985E0,-7.556098048E-1,2.876223160E0,3.590719001E0
6.149959167E-1,-1.499566986E0,-6.906526476E-2,2.844037746E0,3.215901407E0
6.250228750E-1,-7.190321088E-1,2.285792081E0,2.502925803E0,3.465038266E0
6.350468750E-1,-1.049813191E0,2.178534850E0,1.936513039E0,3.098096929E0
6.450708750E-1,-8.278932309E-1,2.166293119E0,1.471693894E0,2.746655420E0
6.550948750E-1,6.713188291E-2,1.711529430E0,1.003196265E0,1.985004389E0
6.651188750E-1,7.990185106E-1,6.175241527E-1,1.320629908E0,1.662477071E0
6.751428750E-1,1.217294405E0,-2.348647457E-1,2.862496821E0,3.119431866E0
6.851668750E-1,1.381457908E0,-5.071244089E-1,3.509641507E0,3.805677945E0
6.951908750E-1,1.943520343E0,-4.353480826E-1,3.270583942E0,3.829297402E0
7.052148750E-1,3.019195184E0,-6.351429829E-1,2.806742451E0,4.170941063E0
7.152388750E-1,3.724403306E0,-2.234621635E-1,1.343878437E0,3.965743887E0
7.252628750E-1,4.236995373E0,-5.228020366E-1,3.807233208E-1,4.286070695E0
7.352868750E-1,3.566384057E0,-9.037902363E-1,1.180361052E0,3.863830256E0
7.453118750E-1,2.181023133E0,-3.207649483E-1,1.976280538E0,2.960648041E0
7.553358750E-1,6.531176162E-1,6.860925503E-1,2.477321430E0,2.652245667E0
7.653598750E-1,2.929186070E-1,1.566822245E0,2.504901577E0,2.969051224E0
7.753838750E-1,8.791516775E-1,5.441974372E-1,3.730190295E0,3.870836881E0
7.854078750E-1,1.169935466E0,2.575559916E0,-1.116622893E0,3.041234052E0
7.954318750E-1,1.917028363E0,4.100998200E0,-2.973234315E0,5.416023105E0
8.054558750E-1,1.651854209E0,2.477160047E0,-1.691200123E0,3.424193640E0
8.154798750E-1,7.520840800E-1,9.877510636E-1,-5.338057655E-1,1.351381228E0
8.255038750E-1,8.170197487E-2,-3.640521050E-1,4.259111881E-2,3.755304931E-1
8.355278750E-1,5.715290773E-1,1.454182068E0,-6.298731798E-1,1.684645718E0
8.455518750E-1,9.152652508E-1,1.476586551E0,-1.515229923E0,2.305198482E0
8.555758750E-1,7.646965241E-1,1.075420195E0,-1.570448688E0,2.051243148E0
8.655998750E-1,5.324497962E-1,9.967899819E-1,-1.055209002E0,1.546143296E0
8.756238750E-1,1.260466737E-1,1.140001450E0,-1.399115622E0,1.809147753E0
8.856478750E-1,-1.273944569E-1,1.126124545E0,-1.916491588E0,2.226505299E0
8.956718750E-1,-5.379888636E-1,7.729093771E-1,-1.943815919E0,2.159916955E0
9.056958750E-1,-1.100942414E0,1.992258932E-1,-1.689284576E0,2.026190399E0
9.157198750E-1,-1.361190873E0,-2.901457112E-1,-1.648994921E0,2.157825150E0
9.257438750E-1,-1.731590935E0,-9.355287766E-1,-1.465260787E0,2.453693223E0
9.357678750E-1,-2.060323153E0,-1.647389275E0,-1.385181414E0,2.979521853E0
9.457918750E-1,-2.595531666E0,-1.136190161E0,-7.832403839E-1,2.939588102E0
9.558158750E-1,-2.424171410E0,-4.401169986E-2,6.533327937E-2,2.425450987E0
9.658398750E-1,-2.083496253E0,4.394126283E-1,1.293263769E-1,2.133252308E0
9.758638750E-1,-1.642181745E0,7.788712712E-1,1.588244104E-1,1.824452393E0
9.858888750E-1,-1.006429775E0,1.198807336E0,2.004811442E-1,1.578047087E0
9.959128750E-1,-1.845819801E-1,1.263816460E0,1.377615702E-1,1.284632556E0
1.005936875E0,6.543233120E-1,1.109841000E0,1.134123609E0,1.716427220E0
1.015960875E0,1.685135976E0,1.104282856E0,1.706556666E0,2.640352162E0
1.025984875E0,2.883792965E0,1.353690065E0,1.973898090E0,3.747667585E0
1.036008875E0,3.738083451E0,1.215426511E0,2.299765465E0,4.554058705E0
1.046032875E0,3.024150699E0,1.183889554E0,2.651652072E0,4.192653174E0
1.056056875E0,2.605622790E0,3.041432145E-1,1.654176431E0,3.101301805E0
1.066080875E0,1.597123101E0,4.420157357E-1,1.263473960E0,2.083877769E0
1.076104875E0,7.680534106E-1,3.319103260E-1,5.916071002E-1,1.024728973E0
1.086128875E0,1.294591087E-1,-8.036221696E-1,-1.003280611E0,1.291952103E0
1.096152875E0,2.455783796E-1,-1.836287232E0,-1.262982501E-1,1.856935859E0
1.106176875E0,-2.371303225E-1,-3.039383281E0,3.977643000E-1,3.074458970E0
1.116200875E0,-1.464695361E0,-3.343611572E0,3.255197579E-1,3.664837508E0
1.126224875E0,-1.337987368E0,-2.555008707E0,6.245415424E-1,2.950988280E0
1.136248875E0,-4.257737786E-1,-1.803740314E0,6.236732309E-1,1.955436199E0
1.146272875E0,-2.011471421E-1,-6.699844944E-1,7.110161608E-1,9.974384074E-1
1.156296875E0,-4.162814087E-1,3.520438975E-1,8.435843803E-1,1.004420093E0
1.166320875E0,-7.740696108E-1,1.076750144E0,1.500405477E0,2.002446311E0
1.176344875E0,-5.630675715E-1,1.407796690E0,2.150442195E0,2.631223716E0
1.186368875E0,1.550968105E-1,1.481011432E0,2.438853768E0,2.857526480E0
1.196392875E0,1.906467122E0,1.211587814E0,2.642875401E0,3.476686973E0
1.206416875E0,3.527156256E0,1.645836547E0,1.790116886E0,4.284171759E0
1.216440875E0,3.967000190E0,1.701995838E0,1.445842622E0,4.552399502E0
1.226465875E0,4.451779976E0,1.139373239E0,1.343696589E0,4.787696404E0
1.236489875E0,4.170155851E0,8.849641022E-1,1.033549599E0,4.386523231E0
1.246513875E0,4.471589173E0,8.859800559E-1,9.896424186E-1,4.664703904E0
1.256537875E0,3.985734669E0,1.466798020E0,-5.126680809E-1,4.277897363E0
1.266561875E0,1.916550061E0,2.197191854E0,-2.725941532E0,3.991437512E0
1.276585875E0,-5.124988625E0,1.051957950E0,-4.438120880E0,6.860688076E0
1.286609875E0,-9.897079074E0,-1.128565246E-1,-5.320758668E0,1.123723203E1
1.296633875E0,-8.257587633E0,3.194135106E-1,-6.933683869E0,1.078729579E1
1.306657875E0,-8.685967516E0,-2.297090364E-1,-7.126481772E0,1.123768394E1
1.316681875E0,-9.460017831E0,-9.337237412E-1,-5.164155614E0,1.081814589E1
1.326705875E0,-8.042955058E0,-1.255643953E0,-2.658976879E0,8.563639754E0
1.336729875E0,-5.909750454E0,-1.113551935E0,-4.300901932E-1,6.029106561E0
1.346753875E0,-4.055982533E0,-8.108977139E-2,1.037987198E0,4.187479825E0
1.356777875E0,-2.275076766E0,1.589723450E0,2.694592854E0,3.868336282E0
1.366801875E0,-8.104948407E-1,1.917098529E0,3.003078504E0,3.653854014E0
1.376825875E0,1.905609335E0,1.633115637E0,3.372573416E0,4.203886900E0
1.386849875E0,5.073200421E0,2.008068341E0,4.532738770E0,7.093336431E0
1.396873875E0,6.450791565E0,2.915009496E0,5.868718788E0,9.195208121E0
1.406897875E0,6.078355502E0,3.186406256E0,6.509032756E0,9.458704872E0
1.416921875E0,4.445612918E0,2.421412109E0,4.615450559E0,6.850481346E0
1.426945875E0,2.342773490E0,1.129550502E0,-2.321701294E-1,2.611201817E0
1.436969875E0,2.735467815E-1,9.744718176E-1,-2.981926201E0,3.149016836E0
1.446993875E0,-1.961940826E0,1.814583390E0,-5.120853474E0,5.776250080E0
1.457018875E0,-3.621596975E0,5.436324792E0,-5.590038151E0,8.597564680E0
1.467042875E0,-2.334437115E0,6.284869804E0,-2.843514420E0,7.282496780E0
1.477066875E0,-3.711071654E0,6.352071269E0,-4.485625414E0,8.616362201E0
1.487090875E0,-3.268111154E0,7.266345416E0,-5.172245237E0,9.499076114E0
1.497114875E0,-1.783604257E0,7.174118453E0,-3.234080944E0,8.068983782E0
1.507138875E0,-1.521777050E0,5.220913367E0,-2.555279433E0,6.008593409E0
1.517162875E0,-1.795118009E0,2.005316641E0,-9.188004774E-1,2.843929995E0
1.527186875E0,-1.521796346E0,-1.315372676E0,9.928139484E-1,2.243156020E0
1.537210875E0,-1.228640342E0,-4.713380311E0,3.444997029E0,5.966030136E0
1.547234875E0,1.621783733E-2,-6.023834894E0,3.102767683E0,6.775988278E0
1.557258875E0,1.770213549E0,-6.155128275E0,9.671189439E-1,6.477235455E0
1.567282875E0,3.338199390E0,-3.877521418E0,1.023664443E0,5.217914948E0
1.577306875E0,4.531130785E0,-1.691577269E0,1.579939889E0,5.088102780E0
1.587330875E0,3.663116884E0,-1.411841210E0,1.668473166E0,4.265621129E0
1.597354875E0,2.395932282E0,-1.815439423E0,1.540473522E0,3.377775965E0
1.607378875E0,5.238660836E-1,-1.189596729E0,1.997144573E0,2.382889526E0
1.617400917E0,-7.157921666E-1,4.342955106E-1,2.449695675E0,2.588818247E0
1.627424917E0,-1.992592515E0,1.401285231E0,-2.122772622E-1,2.445217141E0
1.637448917E0,-3.384621604E0,3.425231686E0,-4.519972544E0,6.604394545E0
1.647472917E0,-4.456865299E0,5.031622624E0,-5.110218558E0,8.443648989E0
1.657496917E0,-3.290425299E0,6.230873106E0,-4.870313147E0,8.565665676E0
1.667521917E0,-2.371445897E0,5.479209441E0,-2.379993356E0,6.427274704E0
1.677545917E0,-2.426920186E0,3.126557665E0,-2.496772961E-1,3.965809271E0
1.687569917E0,-2.828694652E0,2.358368599E0,1.285424992E0,3.900734968E0
1.697593917E0,-2.541138819E0,1.577202222E0,-1.759029579E-1,2.995979840E0
1.707617917E0,-1.516992858E0,-6.307900232E-1,-1.851642458E0,2.475427878E0
1.717641917E0,2.988830593E-1,-4.223056780E0,2.093728296E0,4.723053867E0
1.727665917E0,-2.174801695E-1,-7.949145253E0,1.117221063E0,8.030217356E0
1.737689917E0,-2.179475082E0,-1.149797188E1,1.627554350E0,1.181534604E1
1.747713917E0,-7.270448408E-1,-1.183694315E1,3.172550694E0,1.227627367E1
1.757737917E0,1.476831257E-1,-9.227563527E0,4.431746246E0,1.023768107E1
1.767761917E0,8.737628835E-1,-7.287812299E0,5.568936719E0,9.213507794E0
1.777785917E0,1.889057037E0,-5.075983695E0,4.148624648E0,6.822406719E0
1.787809917E0,2.496375460E0,-3.407908140E0,7.163458979E-1,4.284726336E0
1.797833917E0,1.590932362E0,-2.047123649E0,-2.738680276E0,3.771226679E0
1.807857917E0,-3.199672419E-1,-1.177109415E0,-4.479741361E0,4.642849155E0
1.817881917E0,-1.148629674E0,-1.035451845E0,-4.431556211E0,4.693634104E0
1.827905917E0,-8.570565113E-1,1.383386904E-1,-2.761532949E0,2.894779384E0
1.837929917E0,-1.260096900E0,4.987908840E-1,-9.582428706E-1,1.659778884E0
1.847953917E0,-1.017390965E0,2.991856527E-1,2.566278630E-1,1.091079416E0
1.857977917E0,-1.028955296E0,-1.214875996E-1,1.313496451E0,1.672955817E0
1.868001917E0,-1.209738340E0,-4.901334965E-1,2.422558748E0,2.751815506E0
1.878025917E0,-1.899101092E0,-3.631758267E-1,2.862999682E0,3.454742945E0
1.888050917E0,-1.850070727E0,-1.851070601E-1,2.413461649E0,3.046608516E0
1.898074917E0,-1.836659261E0,-3.417855424E-1,1.620114938E0,2.472833801E0
1.908098917E0,-1.466674059E0,-4.509729391E-1,6.370939064E-1,1.661444562E0
1.918122917E0,-5.098011911E-1,-2.241711384E-1,-9.084648659E-1,1.065578888E0
1.928146917E0,8.757170230E-1,7.587218392E-1,-2.816996713E0,3.045982537E0
1.938170917E0,1.721957062E0,1.684257140E0,-3.106647896E0,3.931045584E0
1.948194917E0,2.164106846E0,2.394238928E0,-2.177987258E0,3.893503176E0
1.958218917E0,2.231194290E0,2.744462587E0,-9.016814379E-1,3.650114007E0
1.968242917E0,2.012682379E0,2.501635907E0,2.555641083E-1,3.220929304E0
1.978266917E0,1.434698268E0,1.865632507E0,1.267040176E0,2.672888808E0
1.988290917E0,9.495702803E-1,1.176061594E0,2.996369993E0,3.356044953E0
1.998314917E0,-3.455198666E-1,2.414496607E-1,4.287302477E0,4.307974518E0
2.008338917E0,-2.974501699E0,-4.546508378E-1,5.472660559E0,6.245348776E0
2.018362917E0,-2.569939865E0,-1.251367300E0,5.618954971E0,6.304218111E0
2.028386917E0,-6.267001882E-1,-9.614184934E-1,3.421880647E0,3.609202932E0
2.038410917E0,1.016721459E0,-1.321456119E0,-4.076318564E0,4.404127818E0
2.048434917E0,2.670615762E0,-1.858435169E0,-8.348460381E0,8.960064763E0
2.058458917E0,3.038010939E0,-1.908424770E0,-7.619392696E0,8.421801507E0
2.068482917E0,1.190078247E0,-2.460454552E0,-4.663317035E0,5.405242697E0
2.078507917E0,-5.309944242E-1,-1.832775248E0,-1.790690059E0,2.616790224E0
2.088531917E0,-1.086286953E0,-9.037181693E-1,-2.506239420E-1,1.435109137E0
2.098555917E0,-1.962290490E-1,-1.531070030E-1,3.447446720E-1,4.252016967E-1
2.108579917E0,3.744548133E-1,3.537863678E-1,-6.264253691E-2,5.189463254E-1
2.118603917E0,2.035333908E-1,6.731449145E-1,3.475218071E-1,7.844241987E-1
2.128627917E0,-1.515072048E-2,9.004934299E-1,7.599561864E-1,1.178410526E0
2.138651917E0,1.176643977E-1,8.755205566E-1,8.599020588E-1,1.232806841E0
2.148675917E0,3.538679364E-1,5.509556490E-1,1.704153460E-1,6.766210415E-1
2.158699917E0,3.752976894E-1,2.943184304E-1,-4.482001895E-1,6.544884293E-1
2.168723917E0,3.828253949E-1,2.438125205E-1,-7.239765143E-1,8.544833652E-1
2.178747917E0,5.782326177E-1,1.288369650E-1,-8.191914046E-1,1.010953254E0
2.188771917E0,4.058356503E-1,-3.910266995E-2,-9.186496192E-1,1.005061549E0
2.198795917E0,6.565434998E-1,6.809667349E-2,-7.766953030E-1,1.019285101E0
2.208819917E0,7.759682018E-1,1.519363904E-1,-9.191070177E-1,1.212422792E0
2.218843917E0,3.511451805E-1,2.418285602E-1,-7.497042632E-1,8.624618673E-1
2.228867917E0,7.887540159E-1,5.894104475E-1,-2.953107029E-1,1.027981510E0
2.238891917E0,1.076993681E0,7.249003744E-1,-1.066497052E-1,1.302601282E0
2.248916917E0,1.244880399E0,2.768510431E-1,-1.212700832E-1,1.281046502E0
2.258940917E0,1.122392633E0,-1.047142768E-1,-5.906664294E-1,1.272641793E0
2.268964917E0,6.117932966E-1,-1.585525149E-1,-7.377291656E-1,9.714289781E-1
2.278988917E0,8.133821958E-1,1.064088584E0,-7.794689298E-1,1.549660260E0
2.289012917E0,1.057157294E0,5.084750426E-1,-6.534731269E-1,1.342816272E0
2.299036917E0,3.842091385E-1,-4.821801138E-1,-3.762142405E-1,7.222544420E-1
2.309060917E0,6.177314365E-1,-3.328533357E-1,-2.231195167E-1,7.363190813E-1
2.319084917E0,7.967781499E-1,-3.285205489E-1,-5.946691409E-1,1.047097206E0
2.329108917E0,7.706001654E-1,-6.830155993E-1,-9.089449954E-1,1.373504979E0
2.339132917E0,9.286264309E-1,-1.029007629E0,-9.983652949E-1,1.708197006E0
2.349156917E0,8.685910213E-1,-1.396323869E0,-1.047515528E0,1.949733184E0
2.359180917E0,5.769210872E-1,-1.092379752E0,-9.497392648E-1,1.558247777E0
2.369204917E0,6.266575035E-1,-2.184385282E-1,-7.700581285E-1,1.016565069E0
2.379228917E0,5.103508294E-1,1.031323126E0,-7.394155025E-1,1.367779458E0
2.389252917E0,5.831474948E-1,2.197857851E0,-9.844401509E-1,2.477854424E0
2.399276917E0,1.235734476E0,1.427663775E0,-1.339265569E0,2.314928900E0
2.409300917E0,1.199543427E0,3.509001821E-1,-1.581849151E0,2.016006475E0
2.419324917E0,1.330283369E0,1.557440972E-1,-1.465153198E0,1.985090416E0
2.429349917E0,2.655202209E0,-1.068455284E0,-1.123109794E0,3.074584699E0
2.439373917E0,4.536228680E0,-1.670993900E-1,-5.866365284E-1,4.577055305E0
2.449397917E0,3.782493054E0,-1.913805377E-1,-1.202026740E-1,3.789238564E0
2.459421917E0,9.833285952E-1,1.426972049E-1,-1.155333945E0,1.523841902E0
2.469445917E0,-5.686504930E-2,7.742742634E-1,-1.846613853E0,2.003176725E0
2.479469917E0,7.604879907E-1,6.141067475E-1,-1.523405646E0,1.810036973E0
2.489493917E0,2.259733380E0,9.050946039E-1,-1.330752169E0,2.774255310E0
2.499517917E0,2.420606947E-1,1.414234475E0,-1.265784925E0,1.913338446E0
2.509541917E0,-3.070738975E0,3.699364359E0,-1.415547906E0,5.011837027E0
2.519565917E0,5.469859743E-1,1.550810230E-1,-1.870578374E-1,5.985268702E-1
2.529589917E0,1.627961024E0,-1.973698992E0,1.242631413E0,2.844271020E0
2.539613917E0,1.878220392E0,-1.471142501E0,7.100694966E-1,2.489210877E0
2.549637917E0,1.026518176E0,-1.163179008E0,9.186566359E-1,1.802957289E0
2.559661917E0,1.328458745E0,-1.653944589E0,1.606769692E0,2.661211037E0
2.569685917E0,1.089523095E0,-2.109906957E0,1.449359869E0,2.781979865E0
2.579709917E0,4.793722808E-2,2.303159773E-2,6.145581526E-1,6.168550520E-1
2.589734917E0,-6.286633909E-3,1.715300592E0,-3.493192412E-2,1.715667766E0
2.599758917E0,1.139408323E0,1.108602267E0,8.415669447E-1,1.798745461E0
2.609782917E0,1.713195010E0,-3.132874412E0,1.613226918E0,3.918219023E0
2.619805250E0,1.003414658E0,-3.441855905E0,-3.792697030E-1,3.605143347E0
2.629829250E0,-4.272575095E-1,-1.005721677E0,-3.049176782E-1,1.134460163E0
2.639853250E0,3.563056699E0,-7.215898563E0,2.582476003E0,8.451848757E0
2.649877250E0,4.077114370E-1,-5.307264463E0,3.744960362E-1,5.336059593E0
2.659901250E0,-2.291810328E0,5.183150294E0,6.297059494E-1,5.702102344E0
2.669925250E0,-2.057782538E0,5.674905224E0,1.311528132E0,6.177307206E0
2.679949250E0,-2.056031297E0,4.733756104E0,2.188316365E0,5.605750624E0
2.689973250E0,-2.626912795E0,4.349289980E0,2.665991199E0,5.737987734E0
2.699997250E0,7.611934572E-1,-2.466860762E0,8.464388448E-1,2.716850422E0
2.710021250E0,-8.566048139E-1,-4.046111848E0,-1.346065296E0,4.349331521E0
2.720045250E0,-1.312564259E0,-2.741222645E0,-1.214407049E0,3.272905590E0
2.730069250E0,-1.110315501E0,-1.164204025E0,-7.897974515E-1,1.792191825E0
2.740093250E0,-1.030157191E0,-4.192880470E-1,-1.102691317E0,1.566191063E0
2.750117250E0,-1.111956815E0,-1.666169947E-1,-1.195062121E0,1.640848151E0
2.760142250E0,-1.247121929E0,1.193416715E-2,-1.120590813E0,1.676657180E0
2.770166250E0,-1.676756624E0,-5.566467440E-1,-9.112324262E-1,1.987891573E0
2.780190250E0,-1.991041541E0,-3.437414360E-1,-9.275794870E-1,2.223242744E0
2.790214250E0,-1.700134084E0,-2.547462291E-1,-4.799453080E-1,1.784852667E0
2.800238250E0,-1.530350530E0,-3.665906006E-1,-2.244903964E-1,1.589577727E0
2.810262250E0,-1.098870454E0,-3.444378394E-1,-1.903023112E-1,1.167205495E0
2.820286250E0,-6.272056800E-1,-2.361526680E-1,-2.809610327E-1,7.267008666E-1
2.830310250E0,-9.236115664E-2,-8.822571337E-2,-5.180141902E-1,5.335288755E-1
2.840334250E0,1.481479794E-1,1.018076259E-1,-8.075928676E-1,8.273565473E-1
2.850358250E0,2.806730756E-1,1.906221539E-1,-9.383377790E-1,9.977935500E-1
2.860382250E0,1.595272458E-1,3.147304755E-1,-8.925575888E-1,9.597725062E-1
2.870406250E0,-4.032830483E-1,5.462229127E-1,-8.639600265E-1,1.098828292E0
2.880430250E0,-1.002409814E0,7.031902474E-1,-7.483442008E-1,1.435033450E0
2.890454250E0,-1.459084665E0,7.268223542E-1,-5.556504516E-1,1.722192271E0
2.900478250E0,-1.786316488E0,7.912358665E-1,-3.227487624E-1,1.980188768E0
2.910502250E0,-1.906120090E0,7.464941418E-1,-2.235039711E-1,2.059247757E0
2.920527250E0,-1.711182691E0,6.295626926E-1,-8.316845655E-2,1.825215707E0
2.930551250E0,-1.403986352E0,5.422280949E-1,8.174414791E-2,1.507272733E0
2.940575250E0,-9.966637552E-1,3.798205107E-1,3.661632422E-1,1.127686916E0
2.950599250E0,-5.040758899E-1,1.961635602E-1,7.015032526E-1,8.858213468E-1
2.960623250E0,-3.145611987E-1,2.694800431E-1,9.179251492E-1,1.007052541E0
2.970647250E0,-8.491531223E-2,4.061856061E-1,1.011339170E0,1.093162510E0
2.980671250E0,4.666502014E-1,3.691177672E-1,9.541685307E-1,1.124476732E0
2.990695250E0,4.440863809E-1,4.106721747E-1,8.902350748E-1,1.076281951E0
3.000719250E0,1.928283083E-1,5.348225963E-1,7.369970942E-1,9.307968000E-1
3.010743250E0,-2.451728752E-1,6.572527671E-1,3.491477716E-1,7.835783975E-1
3.020767250E0,-5.225218087E-1,7.344284123E-1,-1.790113378E-1,9.189446079E-1
3.030791250E0,-6.737726131E-1,7.982659739E-1,-6.422381406E-1,1.226241383E0
3.040815250E0,-7.602526402E-1,8.055071658E-1,-1.042171465E0,1.520837675E0
3.050839250E0,-7.226638144E-1,7.737526917E-1,-1.174169947E0,1.581015901E0
3.060863250E0,-6.472379485E-1,7.262972742E-1,-1.097063810E0,1.466278860E0
3.070887250E0,-5.810112146E-1,6.058183193E-1,-9.490978253E-1,1.267034549E0
3.080911250E0,-4.991601357E-1,4.791576880E-1,-8.270792985E-1,1.078338118E0
3.090936250E0,-3.738420251E-1,3.856227028E-1,-8.371669149E-1,9.946412279E-1
3.100960250E0,-1.231359297E-1,3.613596815E-1,-8.971475800E-1,9.749959266E-1
3.110984250E0,1.361009610E-1,3.750947911E-1,-1.034229631E0,1.108535296E0
3.121008250E0,3.676968938E-1,4.021919578E-1,-1.187073582E0,1.306178803E0
3.131032250E0,4.671454605E-1,4.694764531E-1,-1.262747151E0,1.425890384E0
3.141056250E0,4.776520300E-1,5.358481979E-1,-1.228491822E0,1.422841140E0
3.151080250E0,4.701287100E-1,5.537710834E-1,-1.084389532E0,1.305214187E0
3.161104250E0,4.373372322E-1,5.477279860E-1,-8.892656795E-1,1.132282319E0
3.171128250E0,4.117290589E-1,5.050322020E-1,-7.726124847E-1,1.010696985E0
3.181152250E0,4.019016436E-1,4.269128162E-1,-7.012636629E-1,9.140843553E-1
3.191176250E0,3.676936778E-1,2.635673386E-1,-7.279444349E-1,8.570702906E-1
3.201200250E0,3.772974372E-1,5.857506752E-2,-8.931130743E-1,9.713060064E-1
3.211224250E0,5.480244398E-1,-9.559788287E-2,-1.084570795E0,1.218919010E0
3.221248250E0,7.484117362E-1,-2.149483252E-1,-1.289275822E0,1.506172319E0
3.231272250E0,8.268348849E-1,-2.483435279E-1,-1.395951401E0,1.641344190E0
3.241296250E0,7.832763442E-1,-2.005963343E-1,-1.552847400E0,1.750741491E0
3.251321250E0,6.254342660E-1,-1.572427386E-1,-1.634009092E0,1.756667018E0
3.261345250E0,4.905869481E-1,-1.108667171E-1,-1.752691197E0,1.823429027E0
3.271369250E0,3.513279060E-1,9.236846566E-3,-1.777523153E0,1.811934098E0
3.281393250E0,2.668093273E-1,1.343462116E-1,-1.804136170E0,1.828699932E0
3.291417250E0,2.741344267E-1,2.361333722E-1,-1.821710562E0,1.857293198E0
3.301441250E0,3.668215656E-1,2.889085865E-1,-1.782210281E0,1.842362537E0
3.311465250E0,4.815930533E-1,3.437934762E-1,-1.795483460E0,1.890472608E0
3.321489250E0,6.114205366E-1,4.669498712E-1,-1.877126963E0,2.028665298E0
3.331513250E0,7.487540907E-1,6.005388683E-1,-2.025149227E0,2.241095494E0
3.341537250E0,9.406500605E-1,6.101967144E-1,-2.153110864E0,2.427560290E0
3.351561250E0,1.131400853E0,3.093627316E-1,-2.104506469E0,2.409298792E0
3.361585250E0,1.102004561E0,-2.232016701E-1,-1.876208950E0,2.187325550E0
3.371609250E0,6.749753854E-1,-8.093230587E-1,-1.637133844E0,1.946998410E0
3.381633250E0,1.073502016E-1,-1.266330324E0,-1.383770335E0,1.878812630E0
3.391657250E0,-5.100564221E-1,-1.648681510E0,-9.804913799E-1,1.984860605E0
3.401681250E0,-9.351633257E-1,-1.896992878E0,-4.719406159E-1,2.166988780E0
3.411706250E0,-1.170872775E0,-2.292385109E0,-9.325972751E-2,2.575785302E0
3.421730250E0,-1.349207005E0,-2.863898399E0,2.133707464E-1,3.172979776E0
3.431754250E0,-1.457584855E0,-3.579361952E0,4.506846714E-1,3.890951332E0
3.441778250E0,-1.850432962E0,-4.455787073E0,2.967567194E-1,4.833860273E0
3.451802250E0,-2.148233702E0,-4.911599168E0,5.817979574E-3,5.360853315E0
3.461826250E0,-2.342420903E0,-4.660355421E0,-2.580306101E-1,5.222301038E0
3.471850250E0,-2.587312527E0,-3.569772518E0,-2.693017030E-1,4.417010907E0
3.481874250E0,-2.815170920E0,-1.782121988E0,-2.397848853E-1,3.340455490E0
3.491898250E0,-2.765382463E0,-1.208315420E-1,-3.574694558E-1,2.791007854E0
3.501922250E0,-2.262652895E0,8.925733763E-1,-1.193697381E-1,2.435268874E0
3.511946250E0,-1.535877903E0,1.380808282E0,5.540084803E-1,2.138335296E0
3.521970250E0,-9.977346727E-1,1.557494767E0,1.392064172E0,2.314974532E0
3.531994250E0,-6.063834527E-1,1.533850381E0,2.240572346E0,2.782186608E0
3.542018250E0,-3.428649384E-1,1.320942149E0,3.089913164E0,3.377870319E0
3.552042250E0,-2.438122281E-1,9.746109813E-1,3.850848759E0,3.979742094E0
3.562066250E0,-3.019899774E-1,5.856120962E-1,4.381405227E0,4.430671646E0
3.572091250E0,-5.304690519E-1,2.243915784E-1,4.474770058E0,4.511686610E0
3.582115250E0,-8.396818024E-1,-3.867348433E-2,3.960475867E0,4.048694883E0
3.592139250E0,-1.076264533E0,-2.175842500E-1,2.810927303E0,3.017780733E0
3.602163250E0,-1.360189245E0,-4.556407714E-1,1.352748663E0,1.971713022E0
3.612187250E0,-1.639153472E0,-7.653859109E-1,5.111051202E-2,1.809765726E0
3.622211542E0,-1.814964044E0,-9.699799865E-1,-7.721411991E-1,2.197989465E0
3.632235542E0,-1.929879666E0,-1.162852149E0,-1.047643290E0,2.484797196E0
3.642259542E0,-1.909710865E0,-1.360354722E0,-9.829415095E-1,2.542387572E0
3.652283542E0,-1.750315181E0,-1.384880868E0,-7.317883945E-1,2.348832158E0
3.662307542E0,-1.590711045E0,-1.218368538E0,-3.206718314E-1,2.029190466E0
3.672331542E0,-1.484785810E0,-8.953858870E-1,1.082179284E-1,1.737243767E0
3.682355542E0,-1.337109700E0,-4.301521736E-1,4.799242580E-1,1.484324943E0
3.692379542E0,-9.552806711E-1,1.630542862E-1,7.337928200E-1,1.215565615E0
3.702403542E0,-7.643521231E-1,6.151978379E-1,9.237326038E-1,1.347584681E0
3.712427542E0,-7.295810705E-1,8.873015267E-1,1.053889285E0,1.558933983E0
3.722452542E0,-6.833307642E-1,1.080699354E0,1.125680814E0,1.703528492E0
3.732476542E0,-7.572717297E-1,1.137118553E0,1.259020720E0,1.857856897E0
3.742500542E0,-8.971435601E-1,1.186512907E0,1.337411417E0,2.000337158E0
3.752524542E0,-1.084183417E0,1.170812548E0,1.246901196E0,2.025097109E0
3.762548542E0,-1.247689109E0,1.105378697E0,1.028521140E0,1.958684740E0
3.772572542E0,-1.380879618E0,8.693324482E-1,6.610049254E-1,1.760538252E0
3.782596542E0,-1.479057585E0,5.492465079E-1,3.024524921E-1,1.606474580E0
3.792620542E0,-1.487581656E0,2.263258374E-1,1.098300789E-1,1.508703156E0
3.802644542E0,-1.463562756E0,-1.160789251E-1,5.538446121E-3,1.468169245E0
3.812668542E0,-1.384505769E0,-4.142980331E-1,-1.121578554E-1,1.449509734E0
3.822692542E0,-1.299884571E0,-5.377257389E-1,-2.644725607E-1,1.431361102E0
3.832716542E0,-1.259543169E0,-5.637189513E-1,-4.500081486E-1,1.451459742E0
3.842740542E0,-1.187940212E0,-5.188392323E-1,-6.114042375E-1,1.433251980E0
3.852764542E0,-1.020531212E0,-5.090357906E-1,-7.352406637E-1,1.356900964E0
3.862788542E0,-7.190008262E-1,-4.560524154E-1,-7.043147401E-1,1.104991062E0
3.872813542E0,-4.411963946E-1,-4.201668835E-1,-6.270308483E-1,8.742780755E-1
3.882837542E0,-1.896219876E-1,-4.334260297E-1,-5.340683786E-1,7.134729528E-1
3.892861542E0,-1.306414157E-2,-3.457575560E-1,-4.485978001E-1,5.665323871E-1
3.902885542E0,5.182474941E-2,-3.040674931E-1,-4.476622456E-1,5.436398911E-1
3.912909542E0,4.087379158E-2,-3.668315059E-1,-4.741178267E-1,6.008525061E-1
3.922933542E0,-3.852730393E-3,-4.864883423E-1,-4.612359720E-1,6.703912086E-1
3.932957542E0,-2.987459421E-2,-5.057297748E-1,-5.909878801E-1,7.784097706E-1
3.942981542E0,-1.079983655E-1,-5.303079611E-1,-8.825138996E-1,1.035239568E0
3.953005542E0,-1.128117934E-1,-5.220949620E-1,-1.229955381E0,1.340932470E0
3.963029542E0,-1.067429683E-1,-5.325111920E-1,-1.489475569E0,1.585402063E0
3.973053542E0,-3.324200571E-2,-5.471385866E-1,-1.678844957E0,1.766065133E0
3.983077542E0,2.066218901E-1,-4.172461993E-1,-1.739943244E0,1.801163371E0
3.993101542E0,5.372176158E-1,-2.568939114E-1,-1.590216955E0,1.698053949E0
4.003125542E0,7.294252422E-1,2.146512866E-2,-1.342723612E0,1.528210926E0
4.013149542E0,6.364059815E-1,3.247742379E-1,-1.085113271E0,1.299215798E0
4.023174542E0,5.995898652E-1,6.033478707E-1,-9.083649516E-1,1.244453111E0
4.033198542E0,6.358630675E-1,8.873605835E-1,-7.208845067E-1,1.308206833E0
4.043222542E0,7.456258303E-1,1.123528454E0,-6.059699084E-1,1.478334738E0
4.053246542E0,9.865773082E-1,1.381816927E0,-5.198297507E-1,1.775662066E0
4.063270542E0,1.283819931E0,1.592064675E0,-4.966252215E-1,2.104637773E0
4.073294542E0,1.544736142E0,1.528543448E0,-3.702782933E-1,2.204486524E0
4.083318542E0,1.364758552E0,9.878584331E-1,-3.384853739E-1,1.718430254E0
4.093342542E0,6.410422388E-1,7.132492125E-2,-5.120400900E-1,8.235335148E-1
4.103366542E0,2.629668295E-2,-7.713553333E-1,-5.741907299E-1,9.619644276E-1
4.113390542E0,-5.407990354E-1,-1.718380321E0,-2.230132435E-1,1.815221593E0
4.123414542E0,-1.107082283E0,-2.769537202E0,2.860142148E-1,2.996292981E0
4.133438542E0,-1.556698961E0,-3.697849930E0,9.070750558E-1,4.113415967E0
4.143462542E0,-2.300231195E0,-4.360767480E0,1.591855345E0,5.180864793E0
4.153486542E0,-2.874815735E0,-4.536351764E0,2.010459267E0,5.734544385E0
4.163511542E0,-2.865859555E0,-4.512932496E0,2.486772285E0,5.896078960E0
4.173535542E0,-1.968177759E0,-3.846442298E0,2.690172359E0,5.089780876E0
4.183559542E0,-8.539723974E-1,-2.408987360E0,2.711290748E0,3.726068501E0
4.193583542E0,-2.769533694E-1,-1.368061352E0,2.631807207E0,2.979044176E0
4.203607542E0,2.913726032E-2,-8.128208631E-1,2.299396505E0,2.439006155E0
4.213631542E0,-2.888676560E-1,-2.529932338E-1,1.568439000E0,1.614760353E0
4.223655542E0,-8.673923421E-1,3.310968322E-1,7.018436337E-1,1.163863855E0
4.233679542E0,-1.435144410E0,5.959154749E-1,2.136478313E-1,1.568566265E0
4.243703542E0,-2.176607023E0,7.033323348E-1,1.874265774E-1,2.295086758E0
4.253727542E0,-2.601451387E0,7.201272923E-1,2.697495997E-1,2.712728789E0
4.263751542E0,-3.070434920E0,6.401180863E-1,1.522335020E-1,3.140142799E0
4.273775542E0,-3.512979974E0,3.825266021E-1,-5.489486653E-2,3.534171522E0
4.283799542E0,-3.433908370E0,-4.962824285E-2,-1.650622201E-1,3.438231404E0
4.293823542E0,-2.760048633E0,-4.384002560E-1,-8.335677344E-2,2.795891914E0
4.303847542E0,-2.105387352E0,-7.977894258E-1,-1.018614203E-1,2.253774527E0
4.313871542E0,-1.571337173E0,-9.737327296E-1,-1.774448687E-1,1.857079056E0
4.323896542E0,-1.027591433E0,-1.109409183E0,-2.158458728E-1,1.527521629E0
4.333920542E0,-6.401210099E-1,-1.219436240E0,-1.586870374E-1,1.386348162E0
4.343944542E0,-2.589883840E-1,-1.288070857E0,-1.205397660E-1,1.319367784E0
4.353968542E0,6.682695061E-2,-1.071833805E0,-1.422890327E-1,1.083300382E0
4.363992542E0,1.867571443E-2,-6.646635282E-1,-1.333737830E-1,6.781702987E-1
4.374016542E0,-3.913807485E-1,-5.750444233E-2,3.818001587E-2,3.974208912E-1
4.384040542E0,-5.131048679E-1,4.695963210E-1,3.208975339E-1,7.660107946E-1
4.394064542E0,-6.031055036E-1,8.155614531E-1,5.383256632E-1,1.148334120E0
4.404088542E0,-7.314270365E-1,8.462979269E-1,7.453434098E-1,1.344151215E0
4.414112542E0,-1.073987627E0,6.725824124E-1,9.397878885E-1,1.577662131E0
4.424136542E0,-1.423952547E0,4.026655823E-1,9.112534761E-1,1.737861711E0
4.434160542E0,-1.581266914E0,2.897663730E-1,8.155626225E-1,1.802640285E0
4.444184542E0,-1.429592187E0,3.085961616E-1,4.956298427E-1,1.544219658E0
4.454209542E0,-1.144345711E0,3.692347115E-1,3.320786162E-1,1.247452439E0
4.464233542E0,-1.064187986E0,3.620940918E-1,3.798620260E-1,1.186551036E0
4.474257542E0,-9.107447684E-1,3.543289894E-1,4.751260694E-1,1.086623140E0
4.484281542E0,-7.886344403E-1,2.761680883E-1,5.640118238E-1,1.008128182E0
4.494305542E0,-7.604251331E-1,3.138165557E-1,5.028932174E-1,9.641725996E-1
4.504329542E0,-7.403691834E-1,5.442377830E-1,9.030783378E-2,9.233075311E-1
4.514353542E0,-7.294240728E-1,7.044450599E-1,-2.321835049E-1,1.040293949E0
4.524377542E0,-6.522908199E-1,6.494847411E-1,-2.372496787E-1,9.505793774E-1
4.534401542E0,-5.303135160E-1,5.155419874E-1,-1.885797945E-1,7.632681737E-1
4.544425542E0,-4.041931674E-1,4.492176050E-1,-2.417845599E-1,6.508673802E-1
4.554449542E0,-4.231089100E-1,3.027811056E-1,-3.597019228E-1,6.325211624E-1
4.564473542E0,-4.382464743E-1,1.393140060E-1,-3.558486807E-1,5.814607881E-1
4.574497542E0,-3.848932627E-1,-1.592723072E-2,-3.349307784E-1,5.104655979E-1
4.584521542E0,-1.703212059E-1,-8.209490776E-3,-3.835668218E-1,4.197620942E-1
4.594545542E0,4.860878080E-2,6.250439644E-2,-4.380721907E-1,4.451705936E-1
4.604570542E0,6.121976316E-2,2.527283549E-2,-3.211583197E-1,3.279165167E-1
4.614594542E0,2.362889081E-2,-1.336416221E-1,-1.787026048E-1,2.243948052E-1
4.624618500E0,1.424969378E-1,-2.265123636E-1,-2.512876010E-1,3.670949285E-1
4.634642500E0,4.207013190E-1,-2.797664648E-1,-4.128391163E-1,6.524530715E-1
4.644666500E0,6.202515864E-1,-3.845456457E-1,-3.652439868E-1,8.160824432E-1
4.654690500E0,7.284692225E-1,-5.331198871E-1,-2.129929797E-1,9.274967555E-1
4.664714500E0,7.834754419E-1,-6.002751589E-1,-3.313148602E-1,1.041121305E0
4.674738500E0,7.745569763E-1,-5.972913247E-1,-5.870440062E-1,1.140752428E0
4.684762500E0,7.114634728E-1,-5.355909204E-1,-7.467187480E-1,1.162164703E0
4.694786500E0,5.165500474E-1,-4.176560891E-1,-7.779404676E-1,1.022962331E0
4.704810500E0,3.363993797E-1,-3.090855736E-1,-7.666926905E-1,8.924775157E-1
4.714834500E0,3.987859547E-2,-2.113522875E-1,-7.007841182E-1,7.330473874E-1
4.724858500E0,-5.298030540E-1,-1.078635871E-1,-5.329573345E-1,7.591899301E-1
4.734883500E0,-1.118198133E0,-4.820561528E-2,-2.442371015E-1,1.145575230E0
4.744907500E0,-1.429863498E0,1.091031969E-2,-5.865583219E-2,1.431107670E0
4.754931500E0,-1.450962883E0,2.850400686E-2,-1.400985561E-2,1.451310457E0
4.764955500E0,-1.309659654E0,1.754749417E-3,-1.099393487E-2,1.309706973E0
4.774979500E0,-1.113707763E0,3.670414209E-2,-8.944018006E-2,1.117896114E0
4.785003500E0,-9.477874643E-1,1.042160940E-1,-1.260027464E-1,9.617893552E-1
4.795027500E0,-8.566893062E-1,7.012799621E-2,-1.371114329E-1,8.704217646E-1
4.805051500E0,-8.332200444E-1,-2.020154536E-2,-2.668937465E-1,8.751548530E-1
4.815075500E0,-7.463541010E-1,-7.603485346E-2,-4.207691467E-1,8.601583679E-1
4.825099500E0,-7.465698633E-1,-1.506470793E-1,-4.099376913E-1,8.649335316E-1
4.835123500E0,-6.709115705E-1,-1.338304871E-1,-3.238177796E-1,7.568955602E-1
4.845147500E0,-5.737849331E-1,-9.266258061E-2,-2.869791515E-1,6.482071711E-1
4.855171500E0,-6.148347259E-1,-3.708245695E-2,-2.333952673E-1,6.586882415E-1
4.865195500E0,-6.400563982E-1,4.985979259E-2,-2.083514965E-1,6.749581749E-1
4.875220500E0,-5.921396354E-1,1.514241743E-1,-2.289312105E-1,6.526623380E-1
4.885244500E0,-5.350287107E-1,2.628580713E-1,-2.123800819E-1,6.328154439E-1
4.895268500E0,-5.202454877E-1,3.853490531E-1,-1.826915753E-1,6.727001352E-1
4.905292500E0,-4.805598503E-1,4.575264984E-1,-1.719126718E-1,6.854357980E-1
4.915316500E0,-4.783121806E-1,4.868824446E-1,-2.063388848E-1,7.130307093E-1
4.925340500E0,-5.885254714E-1,4.698255318E-1,-2.411730874E-1,7.907355556E-1
4.935364500E0,-6.278412724E-1,4.828478658E-1,-2.288974428E-1,8.244517961E-1
4.945388500E0,-5.571411261E-1,4.385160309E-1,-1.432251354E-1,7.233367011E-1
4.955412500E0,-4.703976819E-1,3.566170049E-1,-1.131810451E-1,6.010487636E-1
4.965436500E0,-4.979708120E-1,2.954966444E-1,-1.815444247E-1,6.068373543E-1
4.975460500E0,-5.936967489E-1,2.418408394E-1,-2.795109415E-1,6.993491172E-1
4.985484500E0,-5.694407442E-1,2.644631320E-1,-3.767922378E-1,7.322403293E-1
4.995508500E0,-4.225890926E-1,2.894599789E-1,-5.090911929E-1,7.221789690E-1
5.005532500E0,-1.682167929E-1,2.352369940E-1,-6.283009366E-1,6.916613331E-1
5.015557500E0,5.590025872E-2,1.452389896E-1,-6.452952111E-1,6.637959871E-1
5.025581500E0,2.338380477E-1,1.103504080E-1,-5.432868795E-1,6.016793818E-1
5.035605500E0,8.823156059E-2,-1.269605935E-2,-5.489880610E-1,5.561779295E-1
5.045629500E0,-2.156678250E-1,-8.247848511E-2,-7.213218784E-1,7.573774248E-1
5.055653500E0,-4.205373046E-1,-5.545850158E-2,-9.715697714E-1,1.060129752E0
5.065677500E0,-2.907112831E-1,2.150664389E-2,-1.073592063E0,1.112463709E0
5.075701500E0,-1.215136197E-1,1.011813891E-1,-9.554303598E-1,9.684267684E-1
5.085725500E0,-3.371387601E-2,1.466779894E-1,-8.384521329E-1,8.518527086E-1
5.095749500E0,6.986545622E-3,2.185975724E-1,-7.982525253E-1,8.276719185E-1
5.105773500E0,-7.140181214E-2,2.731678820E-1,-9.375823188E-1,9.791728729E-1
5.115797500E0,-1.549403974E-1,3.104848123E-1,-1.110581549E0,1.163528566E0
5.125821500E0,-1.858347461E-1,3.221991241E-1,-1.080238008E0,1.142480190E0
5.135845500E0,-1.973294950E-1,3.811431509E-1,-1.181236891E0,1.256793390E0
5.145870500E0,-1.934811500E-1,4.812305260E-1,-1.339781878E0,1.436674373E0
5.155894500E0,-8.619643718E-2,4.750260454E-1,-1.408294873E0,1.488749146E0
5.165918500E0,5.011356175E-2,4.816515255E-1,-1.352000220E0,1.436107292E0
5.175942500E0,1.771218100E-1,4.885459775E-1,-1.268783816E0,1.371080479E0
5.185966500E0,1.947052646E-1,4.398176211E-1,-1.315416530E0,1.400596419E0
5.195990500E0,-3.441700369E-2,3.355009550E-1,-1.471743010E0,1.509891688E0
5.206014500E0,-4.417510030E-1,2.493422323E-1,-1.702927884E0,1.776873342E0
5.216038500E0,-9.065660557E-1,1.516592324E-1,-1.791461746E0,2.013503842E0
5.226062500E0,-1.346262347E0,-2.076463223E-1,-1.398891381E0,1.952546132E0
5.236086500E0,-1.581246741E0,-7.243215001E-1,-8.649751031E-1,1.942463596E0
5.246110500E0,-1.510415033E0,-1.095634312E0,-7.681440425E-1,2.017873481E0
5.256134500E0,-1.375164549E0,-1.414073676E0,-1.056380199E0,2.237547994E0
5.266158500E0,-1.146879602E0,-1.636037491E0,-1.552184325E0,2.530064757E0
5.276183500E0,-8.670315689E-1,-1.775349158E0,-1.929275941E0,2.761469542E0
5.286207500E0,-4.817737323E-1,-1.744593973E0,-2.107128945E0,2.777716049E0
5.296231500E0,-5.042346418E-3,-1.552656780E0,-2.031149055E0,2.556625704E0
5.306255500E0,4.359134352E-1,-1.178578820E0,-1.677165052E0,2.095698253E0
5.316279500E0,6.557909632E-1,-6.402905792E-1,-1.246379040E0,1.547092280E0
5.326303500E0,6.259046745E-1,-1.802848613E-1,-7.382536608E-1,9.845190504E-1
5.336327500E0,3.707473862E-1,1.591460073E-1,-2.863896060E-1,4.947727584E-1
5.346351500E0,1.902947098E-2,4.126000017E-1,1.267436252E-1,4.320472529E-1
5.356375500E0,-4.147345278E-1,5.525911152E-1,3.598323888E-1,7.790000110E-1
5.366399500E0,-7.870451671E-1,6.609254032E-1,4.332236795E-1,1.115322931E0
5.376423500E0,-9.819085988E-1,8.269880819E-1,4.886248783E-1,1.373611319E0
5.386447500E0,-1.043855463E0,8.160707456E-1,5.334946936E-1,1.428363496E0
5.396471500E0,-1.004327408E0,5.305944747E-1,5.656654894E-1,1.268929267E0
5.406496500E0,-7.687933758E-1,7.320772469E-2,7.550796086E-1,1.080068443E0
5.416520500E0,-3.953530544E-1,-1.718432361E-1,9.833087146E-1,1.073652720E0
5.426544500E0,-2.733982623E-2,-2.198126239E-1,1.097226509E0,1.119361902E0
5.436568500E0,2.304437390E-1,-1.392759991E-1,1.018527079E0,1.053517694E0
5.446592500E0,3.471816453E-1,-1.784891814E-1,8.328440684E-1,9.197949364E-1
5.456616500E0,3.823292586E-1,-4.252329111E-1,6.119380152E-1,8.375361635E-1
5.466640500E0,2.945961732E-1,-7.003520089E-1,4.630452468E-1,8.897700502E-1
5.476664500E0,1.950116587E-1,-9.022815084E-1,2.981923570E-1,9.700825477E-1
5.486688500E0,1.205125764E-1,-1.034217498E0,6.076484978E-2,1.042986807E0
5.496712500E0,-8.891188413E-2,-1.092196734E0,-1.403062785E-1,1.104755575E0
5.506736500E0,-4.478104725E-1,-1.093029377E0,-2.035994643E-1,1.198624287E0
5.516760500E0,-6.483524278E-1,-1.011091175E0,-2.696523897E-1,1.231007167E0
5.526784500E0,-5.815193376E-1,-9.364725173E-1,-4.263144998E-1,1.181900828E0
5.536809500E0,-4.421477365E-1,-8.601599211E-1,-6.051053976E-1,1.140842782E0
5.546833500E0,-3.145421952E-1,-6.580076426E-1,-5.758203489E-1,9.292362049E-1
5.556857500E0,-1.432322252E-1,-4.066089445E-1,-4.780451091E-1,6.437184403E-1
5.566881500E0,1.516416907E-2,-1.181365603E-1,-3.118485291E-1,3.338198676E-1
5.576905500E0,1.111362737E-1,1.359764153E-1,-6.552536041E-3,1.757378519E-1
5.586929500E0,1.570731694E-1,4.398041725E-1,2.566506672E-1,5.328876576E-1
5.596953500E0,6.814812899E-2,5.338852876E-1,3.700112218E-1,6.531354929E-1
5.606977500E0,-3.412113458E-2,4.519055700E-1,4.199604768E-1,6.178589629E-1
5.617001500E0,-1.632718027E-1,1.936720616E-1,1.996539094E-1,3.225340796E-1
5.627025667E0,-2.759090567E-1,-3.292906272E-1,-3.439057428E-1,5.502992683E-1
5.637049667E0,-2.755269411E-1,-6.874752706E-1,-8.738305651E-1,1.145476844E0
5.647073667E0,-1.660261336E-1,-9.246096861E-1,-1.219225740E0,1.539148841E0
5.657097667E0,-7.985893250E-2,-1.241143443E0,-1.792604730E0,2.181798848E0
5.667122667E0,-1.273874402E-2,-1.425780387E0,-2.444911484E0,2.830301070E0
5.677146667E0,1.666509086E-1,-1.294371817E0,-2.558978966E0,2.872550135E0
5.687170667E0,4.733283064E-1,-8.306326514E-1,-2.148151841E0,2.351286162E0
5.697194667E0,9.458420956E-1,-2.707863110E-1,-1.619927096E0,1.895285280E0
5.707218667E0,1.416610783E0,4.102581918E-1,-1.296073356E0,1.963390955E0
5.717242667E0,1.795420018E0,9.675703490E-1,-9.832338703E-1,2.264171872E0
5.727266667E0,1.847794113E0,1.574963323E0,-8.178770967E-1,2.561986632E0
5.737290667E0,1.751707696E0,2.133141453E0,-8.713234252E-1,2.894473497E0
5.747314667E0,1.340327716E0,2.511322405E0,-1.006050875E0,3.019164946E0
5.757338667E0,8.648482186E-1,2.836190198E0,-1.133164227E0,3.174271325E0
5.767362667E0,5.201165566E-1,2.955969241E0,-1.065077055E0,3.184755018E0
5.777386667E0,2.813516450E-1,2.874164355E0,-7.834925450E-1,2.992296786E0
5.787411667E0,1.621795428E-1,2.649126660E0,-5.538454892E-1,2.711257843E0
5.797435667E0,3.620391279E-2,2.202374241E0,-5.585086437E-1,2.272376493E0
5.807459667E0,1.237709373E-2,1.923117068E0,-6.779234053E-1,2.039145065E0
5.817483667E0,1.091873968E-1,1.725795760E0,-9.196798986E-1,1.958597459E0
5.827507667E0,3.328992364E-1,1.483985910E0,-1.266336903E0,1.979051600E0
5.837531667E0,6.507451084E-1,1.043103511E0,-1.650312299E0,2.057927310E0
5.847555667E0,8.810564080E-1,5.317300040E-1,-2.050261995E0,2.294029520E0
5.857579667E0,9.561948833E-1,-2.024183267E-1,-2.780250471E0,2.947045048E0
5.867603667E0,9.812566343E-1,-9.386289704E-1,-3.717473770E0,3.957714007E0
5.877627667E0,9.545056227E-1,-1.433317448E0,-4.335030960E0,4.664544277E0
5.887651667E0,1.036541766E0,-1.377240311E0,-4.697519154E0,5.003788156E0
5.897675667E0,1.456980837E0,-7.988740844E-1,-4.698617553E0,4.983773658E0
5.907700667E0,1.648159061E0,-3.253536969E-1,-4.150596914E0,4.477693387E0
5.917724667E0,1.701887957E0,-2.263240832E-1,-2.646680769E0,3.154768502E0
5.927748667E0,1.787337997E0,-5.100029200E-1,-1.097441759E0,2.158485235E0
5.937772667E0,1.600099334E0,-1.397408527E0,-1.870354718E-1,2.132615938E0
5.947796667E0,1.363649335E0,-2.539070367E0,2.184437907E-1,2.890352146E0
5.957820667E0,1.309358815E0,-3.805521728E0,2.715107810E-1,4.033625446E0
5.967844667E0,1.334434015E0,-5.170219177E0,1.771735579E-1,5.342590284E0
5.977868667E0,1.237600030E0,-6.038216121E0,3.412283027E-1,6.173179450E0
5.987892667E0,1.450928384E0,-4.776758282E0,1.375483807E0,5.178278533E0
5.997916667E0,2.063625368E0,-1.827811546E0,2.560610340E0,3.762468607E0
6.007940667E0,1.973250218E0,1.988959640E-1,2.898318619E0,3.511912135E0
6.017964667E0,1.346600901E0,1.009670302E0,3.099188603E0,3.526717751E0
6.027988667E0,5.654190293E-1,1.869594580E-1,3.419801377E0,3.471266912E0
6.038013667E0,-3.496383530E-1,-7.640024596E-1,3.440018710E0,3.541140418E0
6.048037667E0,-1.027448761E0,-7.406135970E-1,3.473248436E0,3.696973648E0
6.058061667E0,-1.437866874E0,-3.866599989E-1,3.622126733E0,3.916218734E0
6.068085667E0,-1.820387337E0,-1.260601223E-2,3.651063434E0,4.079734448E0
6.078109667E0,-2.079567217E0,2.147530282E-1,3.618397379E0,4.178937456E0
6.088133667E0,-2.264503246E0,1.462903190E-1,3.347668371E0,4.044287246E0
6.098157667E0,-2.406365469E0,-3.024495685E-1,2.785645697E0,3.693493259E0
6.108181667E0,-2.333481095E0,-8.060334152E-1,2.163014293E0,3.282294124E0
6.118205667E0,-1.852449959E0,-1.024917501E0,1.354617434E0,2.513367288E0
6.128229667E0,-1.157687888E0,-1.176979607E0,1.144157431E0,2.008635972E0
6.138253667E0,-5.172669160E-1,-9.323519844E-1,9.821339359E-1,1.449631799E0
6.148277667E0,1.904116541E-2,-4.424921376E-1,9.222199291E-1,1.023059849E0
6.158302667E0,5.355909204E-1,-3.942192793E-2,1.128827128E0,1.250064961E0
6.168326667E0,9.533291629E-1,3.569497114E-1,1.219129845E0,1.588246571E0
6.178350667E0,1.201618896E0,7.193735862E-1,9.273279836E-1,1.679679588E0
6.188374667E0,1.186790358E0,7.853056204E-1,3.690359062E-1,1.470157737E0
6.198398667E0,9.698691818E-1,6.879722840E-1,-1.295263517E-1,1.196130916E0
6.208422667E0,8.329803085E-1,5.851624453E-1,-5.185773502E-1,1.142450765E0
6.218446667E0,6.980560997E-1,6.894007587E-1,-7.615660711E-1,1.241989777E0
6.228470667E0,4.563438991E-1,9.733731258E-1,-1.052266683E0,1.504317177E0
6.238494667E0,2.522722721E-2,1.325844455E0,-1.395451464E0,1.925041485E0
6.248518667E0,-4.676313642E-1,1.651030337E0,-1.780624516E0,2.472893838E0
6.258542667E0,-1.096464324E0,2.101016266E0,-2.012884108E0,3.109373859E0
6.268566667E0,-1.681572975E0,2.426262959E0,-2.014883271E0,3.574100476E0
6.278591667E0,-2.133986084E0,2.587996944E0,-1.869668255E0,3.840219286E0
6.288615667E0,-2.423904777E0,2.549897071E0,-1.663410646E0,3.891558096E0
6.298639667E0,-2.201309463E0,2.554143319E0,-1.502067840E0,3.691289645E0
6.308663667E0,-1.228085441E0,2.503493568E0,-9.518945485E-1,2.946485555E0
6.318687667E0,-5.595621657E-1,2.305750675E0,-3.934848690E-1,2.405083436E0
6.328711667E0,-1.782231331E-1,2.203572335E0,8.423266808E-2,2.212371954E0
6.338735667E0,1.012302133E-1,2.083186936E0,3.751000535E-1,2.119107221E0
6.348759667E0,2.596233916E-1,1.867819950E0,2.092005122E-1,1.897345653E0
6.358783667E0,3.747372338E-1,1.648202038E0,-1.730191477E-1,1.699097872E0
6.368807667E0,5.773292229E-1,1.382136769E0,-4.455332744E-1,1.562725497E0
6.378831667E0,7.886493507E-1,9.673961020E-1,-7.540551764E-1,1.458225711E0
6.388856667E0,1.038689448E0,4.540146607E-1,-1.048078907E0,1.543850536E0
6.398880667E0,1.427759962E0,-1.973727643E-1,-1.337839433E0,1.966537278E0
6.408904667E0,1.912297088E0,-9.022774154E-1,-1.629499719E0,2.669504453E0
6.418928667E0,2.319993907E0,-1.595421562E0,-1.894715973E0,3.393772282E0
6.428952667E0,2.658013550E0,-1.968227168E0,-2.051891468E0,3.892198969E0
6.438976667E0,2.817409234E0,-1.801994335E0,-2.035124577E0,3.914934280E0
6.449000667E0,2.515729451E0,-1.379525988E0,-1.940351152E0,3.463661244E0
6.459024667E0,2.084760714E0,-1.070889480E0,-1.713846390E0,2.903498056E0
6.469048667E0,1.559633093E0,-6.050084800E-1,-1.536359421E0,2.271319202E0
6.479072667E0,1.055176550E0,-1.618982917E-1,-1.164515097E0,1.579779738E0
6.489096667E0,8.087295663E-1,5.002994657E-2,-6.749212986E-1,1.054545052E0
6.499120667E0,5.260605437E-1,1.067514467E-1,-6.194101721E-1,8.196368271E-1
6.509145667E0,4.829183248E-1,3.052515543E-1,-8.224360245E-1,1.001393846E0
6.519169667E0,6.929935804E-1,4.654354423E-1,-8.346648914E-1,1.180481145E0
6.529193667E0,8.605271262E-1,1.903379792E-1,-4.169649482E-1,9.749847431E-1
6.539217667E0,4.890099540E-1,-6.653675330E-1,4.035935354E-1,9.190932656E-1
6.549241667E0,-1.526860034E-1,-1.678467811E0,1.276641304E0,2.114327371E0
6.559265667E0,-6.490330437E-1,-2.534078599E0,1.589111831E0,3.060731064E0
6.569289667E0,-7.260940835E-1,-2.727287561E0,9.688099587E-1,2.983940816E0
6.579313667E0,-9.304153866E-1,-2.230898128E0,-1.411237558E-1,2.421259004E0
6.589337667E0,-1.395954325E0,-1.974716408E0,-5.070740497E-1,2.470894061E0
6.599361667E0,-1.268426259E0,-1.777942398E0,6.925535774E-1,2.291203789E0
6.609385667E0,-5.992051184E-1,-1.428111672E0,2.345472565E0,2.810656733E0
6.619409667E0,-1.677770823E-2,-1.163358518E0,3.206477408E0,3.411038244E0
6.629435000E0,2.533680403E-1,-1.048649011E0,3.262414212E0,3.436161609E0
6.639459000E0,3.971311927E-1,-1.033302408E0,3.028895130E0,3.224846161E0
6.649483000E0,5.617516556E-1,-1.144996507E0,2.807311385E0,3.083436254E0
6.659507000E0,8.054115638E-1,-1.439621916E0,2.659466291E0,3.129530316E0
6.669531000E0,1.175109082E0,-1.752842640E0,2.710052893E0,3.434781705E0
6.679555000E0,1.470997198E0,-2.061539959E0,2.827805291E0,3.796085157E0
6.689579000E0,1.506131363E0,-2.221063696E0,3.012397796E0,4.034364399E0
6.699603000E0,1.453009701E0,-1.978604221E0,3.144244323E0,3.989032993E0
6.709627000E0,1.381041586E0,-1.428855438E0,2.697864372E0,3.350727666E0
6.719651000E0,1.251712285E0,-8.260507733E-1,1.860752420E0,2.389883490E0
6.729675000E0,9.425998145E-1,-2.638556063E-1,1.105888574E0,1.476856029E0
6.739699000E0,8.515221217E-1,3.208887631E-1,6.708849657E-1,1.130551263E0
6.749724000E0,8.671689785E-1,8.546091592E-1,5.722050885E-1,1.345272283E0
6.759748000E0,6.253980133E-1,1.315438165E0,7.144572473E-1,1.622328388E0
6.769772000E0,4.845879972E-3,1.970576579E0,5.661303431E-1,2.050292443E0
6.779796000E0,-5.487056404E-1,2.692880205E0,2.617118709E-1,2.760647529E0
6.789820000E0,-1.147240376E0,3.313655117E0,-1.431559190E-2,3.506661611E0
6.799844000E0,-1.644482917E0,3.794238941E0,-4.766014315E-2,4.135558571E0
6.809868000E0,-1.819388925E0,3.892572736E0,4.474692875E-1,4.320014737E0
6.819892000E0,-1.854077824E0,3.749912953E0,1.212760473E0,4.355483865E0
6.829916000E0,-1.770848849E0,3.875400048E0,1.546227913E0,4.532709117E0
6.839940000E0,-1.827973514E0,3.893381406E0,1.171096577E0,4.457731837E0
6.849964000E0,-2.009735675E0,3.542536772E0,1.900707614E-1,4.077343640E0
6.859989000E0,-2.041052485E0,3.083673016E0,-6.483813715E-1,3.754375170E0
6.870013000E0,-1.858843305E0,2.646751521E0,-1.029554197E0,3.394197090E0
6.880037000E0,-1.453835620E0,2.162830106E0,-1.012437204E0,2.795800631E0
6.890061000E0,-9.578291801E-1,1.562800530E0,-8.068830156E-1,2.002708775E0
6.900085000E0,-4.242885858E-1,9.080538797E-1,-6.077199800E-1,1.172137461E0
6.910109000E0,3.970142484E-2,4.247885227E-1,-4.278121179E-1,6.041892919E-1
6.920133000E0,4.381143272E-1,1.038822180E-1,-2.648870552E-1,5.223991107E-1
6.930157000E0,7.669781077E-1,-4.811439872E-2,-2.077568346E-1,7.960736872E-1
6.940181000E0,9.963254938E-1,-1.635115385E-1,-3.075182274E-1,1.055446812E0
6.950205000E0,1.229955088E0,-2.766148156E-1,-5.745105726E-1,1.385412456E0
6.960229000E0,1.510905907E0,-4.341598552E-1,-9.141168576E-1,1.818499675E0
6.970254000E0,1.813368924E0,-6.249948478E-1,-1.183170639E0,2.253623343E0
6.980278000E0,2.080625855E0,-7.961124444E-1,-1.475650705E0,2.672142207E0
6.990302000E0,2.235357507E0,-8.018123102E-1,-1.845352609E0,3.007499363E0
7.000326000E0,2.206185164E0,-6.083764762E-1,-2.224625528E0,3.191603617E0
7.010350000E0,2.013086129E0,-4.490538830E-1,-2.444918062E0,3.198716849E0
7.020374000E0,1.786968160E0,-4.515564913E-1,-2.419426540E0,3.041510029E0
7.030398000E0,1.586297566E0,-4.610845292E-1,-2.215563220E0,2.763631541E0
7.040422000E0,1.431757118E0,-2.907984066E-1,-1.761386592E0,2.288443769E0
7.050446000E0,1.414924154E0,2.315672815E-2,-1.289866537E0,1.914759065E0
7.060470000E0,1.384266910E0,2.953750223E-1,-9.893892342E-1,1.726943062E0
7.070494000E0,1.320450398E0,5.864780688E-1,-8.614018697E-1,1.682129294E0
7.080519000E0,1.329479376E0,7.496270800E-1,-7.470673151E-1,1.699283892E0
7.090543000E0,1.487085812E0,8.367096627E-1,-6.526989555E-1,1.826888940E0
7.100567000E0,1.746964434E0,7.750162750E-1,-6.740383691E-1,2.026539584E0
7.110591000E0,1.949509938E0,4.976243645E-1,-8.890432660E-1,2.199685645E0
7.120615000E0,2.083378724E0,1.643202084E-1,-1.231452414E0,2.425684045E0
7.130639000E0,2.191868548E0,-7.227567852E-2,-1.666427810E0,2.754358937E0
7.140663000E0,2.245675212E0,-3.428900814E-1,-2.062443500E0,3.068273774E0
7.150687000E0,2.215448615E0,-6.877366412E-1,-2.248717664E0,3.230777830E0
7.160711000E0,2.171387214E0,-1.117692933E0,-2.146648960E0,3.251501450E0
7.170735000E0,2.176443301E0,-1.462993237E0,-1.581444962E0,3.062388418E0
7.180759000E0,2.278958440E0,-1.614574701E0,-5.862441802E-1,2.853801899E0
7.190783000E0,2.461555291E0,-1.771885267E0,6.390895611E-1,3.099559213E0
7.200808000E0,2.666864773E0,-2.004390442E0,1.922243348E0,3.850294567E0
7.210832000E0,2.763126607E0,-2.260129529E0,3.129717500E0,4.747439917E0
7.220856000E0,2.835129513E0,-2.378767780E0,4.088362074E0,5.514635070E0
7.230880000E0,2.884363654E0,-2.165516317E0,4.770760208E0,5.980733029E0
7.240904000E0,2.526590070E0,-1.570991310E0,5.015401863E0,5.831460103E0
7.250928000E0,1.505518282E0,-1.018597831E0,4.465060757E0,4.820881081E0
7.260952000E0,1.282785559E-1,-4.730537796E-1,3.947486862E0,3.977799365E0
7.270976000E0,-1.171625019E0,4.330506384E-2,3.408221551E0,3.604241204E0
7.281000000E0,-2.285662565E0,-6.610066795E-1,2.160138633E0,3.213624450E0
7.291024000E0,-2.927553820E0,-1.506100665E0,1.418008268E0,3.584641966E0
7.301048000E0,-3.297806824E0,-1.720157874E0,1.119924231E0,3.884418006E0
7.311073000E0,-3.615001901E0,-2.023064695E0,6.596091950E-1,4.194772198E0
7.321097000E0,-3.922779160E0,-2.177213087E0,8.776319861E-2,4.487332787E0
7.331121000E0,-4.206020040E0,-2.194226730E0,-5.843455893E-1,4.779821680E0
7.341145000E0,-3.992485572E0,-1.903147658E0,-1.117758422E0,4.561939931E0
7.351169000E0,-2.687351663E0,-1.158729862E0,-9.139174676E-1,3.065902638E0
7.361193000E0,-1.692116090E0,-7.749560487E-1,8.664285382E-2,1.863148068E0
7.371217000E0,-1.371099857E0,-7.163219243E-1,1.198555248E0,1.956927847E0
7.381241000E0,-1.207198310E0,-6.464009196E-1,1.940170473E0,2.374747012E0
7.391265000E0,-9.834598652E-1,-4.353778303E-1,2.296839518E0,2.536181960E0
7.401289000E0,-6.455302691E-1,9.311983287E-2,2.152416215E0,2.249061181E0
7.411313000E0,-3.760098803E-1,6.558856881E-1,1.506158552E0,1.685254595E0
7.421338000E0,-2.425325650E-1,1.106585562E0,8.297713566E-1,1.404234366E0
7.431362000E0,-7.411901325E-2,1.482678473E0,2.880969564E-1,1.512226484E0
7.441386000E0,1.792171597E-1,2.001168042E0,-6.804002859E-2,2.010328771E0
7.451410000E0,3.641391554E-1,2.503272543E0,-3.370685204E-1,2.551976868E0
7.461434000E0,3.854127878E-1,2.739193661E0,-4.559705544E-1,2.803503893E0
7.471458000E0,2.074454704E-1,2.811464662E0,-4.370086187E-1,2.852778243E0
7.481482000E0,-4.643127769E-2,2.747470395E0,-4.118942428E-1,2.778561913E0
7.491506000E0,-3.119185495E-1,2.613393155E0,-4.828958130E-1,2.675874685E0
7.501530000E0,-4.677512321E-1,2.526817526E0,-6.592249598E-1,2.652956007E0
7.511554000E0,-6.495601702E-1,2.462718009E0,-8.236048830E-1,2.676795362E0
7.521578000E0,-8.301236513E-1,2.515607829E0,-9.298084456E-1,2.807477831E0
7.531603000E0,-9.721542737E-1,2.555181200E0,-9.705518442E-1,2.901035294E0
7.541627000E0,-1.093350974E0,2.546178242E0,-1.001833279E0,2.946542026E0
7.551651000E0,-9.728699729E-1,2.276722172E0,-9.148085833E-1,2.639472405E0
7.561675000E0,-6.948649818E-1,1.875766901E0,-6.025414666E-1,2.089113455E0
7.571699000E0,-3.948501939E-1,1.518918346E0,-4.080683365E-1,1.621585454E0
7.581723000E0,-1.513776889E-1,1.281646521E0,-6.505635524E-1,1.445256360E0
7.591747000E0,2.571693152E-2,1.198390356E0,-1.170894921E0,1.675647852E0
7.601771000E0,2.319005728E-1,1.126200047E0,-1.619056007E0,1.985811365E0
7.611795000E0,4.024188298E-1,9.410263288E-1,-1.960746240E0,2.211785994E0
7.621818917E0,6.239145747E-1,7.273380786E-1,-2.147127408E0,2.351264805E0
7.631842917E0,8.967272383E-1,5.624419194E-1,-2.190926562E0,2.433232388E0
7.641867917E0,1.134280607E0,3.413189346E-1,-2.219656856E0,2.515942700E0
7.651891917E0,1.270211414E0,3.962658048E-3,-2.226218017E0,2.563103470E0
7.661915917E0,1.230698562E0,-4.703775090E-1,-2.095545026E0,2.475314709E0
7.671939917E0,8.885230100E-1,-1.017321968E0,-1.806130071E0,2.255332117E0
7.681963917E0,3.294005549E-1,-1.147767502E0,-1.381426333E0,1.825982934E0
7.691987917E0,6.305461943E-2,-1.016790456E0,-9.986734432E-1,1.426599931E0
7.702011917E0,1.996034771E-1,-1.007431403E0,-8.406378222E-1,1.327189334E0
7.712035917E0,6.455077574E-1,-1.055809511E0,-1.038853170E0,1.615744379E0
7.722059917E0,1.299591626E0,-1.039168335E0,-1.611417205E0,2.316349419E0
7.732083917E0,2.005937323E0,-8.563405198E-1,-2.365895720E0,3.217851175E0
7.742108917E0,2.618549230E0,-5.775213039E-1,-3.019527306E0,4.038301138E0
7.752132917E0,2.980070295E0,-2.242559230E-1,-3.343131516E0,4.484154102E0
7.762156917E0,3.006925094E0,-1.378907937E-1,-3.199713349E0,4.393037436E0
7.772180917E0,2.421631379E0,-7.413579476E-1,-2.290787065E0,3.414910763E0
7.782204917E0,1.339127282E0,-1.815108470E0,-6.274191034E-1,2.341267898E0
7.792228917E0,4.552873072E-1,-2.840086783E0,1.072026179E0,3.069628576E0
7.802252917E0,-1.863861385E-1,-3.560609931E0,1.809217401E0,3.998243424E0
7.812276917E0,-9.829537886E-1,-3.848806327E0,1.594031678E0,4.280238929E0
7.822300917E0,-1.914990608E0,-3.838526922E0,1.167049280E0,4.445613791E0
7.832324917E0,-2.429023429E0,-3.798157745E0,1.025171343E0,4.623541214E0
7.842348917E0,-2.043429962E0,-3.416695336E0,1.466116819E0,4.242512411E0
7.852373917E0,-9.705050665E-1,-2.520011367E0,2.131554519E0,3.440328769E0
7.862397917E0,-2.125015578E-1,-1.590378923E0,2.403262936E0,2.889659975E0
7.872421917E0,9.585632980E-3,-9.404193878E-1,2.410037520E0,2.587037177E0
7.882445917E0,2.065432450E-1,-3.699036330E-1,2.435491619E0,2.472065581E0
7.892469917E0,3.868184584E-1,1.925698614E-1,2.752722949E0,2.786430567E0
7.902493917E0,3.793132648E-1,6.331961524E-1,3.333641485E0,3.414378636E0
7.912517917E0,5.372927526E-1,9.911761433E-1,4.171714718E0,4.321379102E0
7.922541917E0,5.678491321E-1,1.202855290E0,5.029422902E0,5.202346414E0
7.932565917E0,5.846595848E-1,1.272445343E0,5.521462006E0,5.696269539E0
7.942589917E0,8.307741541E-1,1.120474454E0,5.801711451E0,5.967034813E0
7.952613917E0,6.807427865E-1,7.946360224E-1,5.335045754E0,5.436687443E0
7.962638917E0,4.744100413E-1,3.332690728E-1,4.198949295E0,4.238786187E0
7.972662917E0,3.413858852E-1,3.778880060E-2,2.872405513E0,2.892868083E0
7.982686917E0,2.058231604E-1,3.507159948E-3,1.696697091E0,1.709139108E0
7.992710917E0,5.661274195E-3,-7.832345366E-3,6.554869080E-1,6.555581455E-1
8.002734917E0,-2.498383686E-1,6.228863418E-2,-1.208548578E-1,2.844380091E-1
8.012758917E0,-5.519052368E-1,2.816878599E-1,-5.624764180E-1,8.368555202E-1
8.022782917E0,-8.370628345E-1,4.242476553E-1,-9.728206370E-1,1.351680529E0
8.032806917E0,-9.026408198E-1,7.984940153E-1,-1.354650178E0,1.813127201E0
8.042830917E0,-6.081496042E-1,1.373030900E0,-1.523411931E0,2.139122181E0
8.052854917E0,-1.926166391E-1,1.815987892E0,-1.555607285E0,2.398922095E0
8.062879917E0,1.387298691E-1,2.167965131E0,-1.286539471E0,2.524777732E0
8.072903917E0,4.288909292E-1,2.405924588E0,-7.142099831E-1,2.546078643E0
8.082927917E0,6.751130873E-1,2.486953549E0,-1.695382637E-1,2.582529546E0
8.092951917E0,9.520921844E-1,2.505429581E0,3.365347427E-1,2.701279798E0
8.102975917E0,1.093413247E0,2.409724109E0,4.260690629E-1,2.680271937E0
8.112999917E0,9.390800831E-1,2.244055533E0,1.240019023E-1,2.435781827E0
8.123023917E0,8.318541348E-1,2.149139435E0,-1.183546615E-1,2.307550528E0
8.133047917E0,8.389400831E-1,1.975933798E0,-2.905604980E-1,2.166231807E0
8.143071917E0,7.457462829E-1,1.703773976E0,-4.561143959E-1,1.914947420E0
8.153095917E0,5.904813650E-1,1.440963267E0,-5.549774370E-1,1.653191863E0
8.163119917E0,4.759037125E-1,1.241660337E0,-5.370294817E-1,1.434086957E0
8.173144917E0,3.908419275E-1,1.109535483E0,-4.240586440E-1,1.250460768E0
8.183168917E0,1.876810044E-1,9.202897632E-1,-3.868364386E-1,1.015775486E0
8.193192917E0,-6.152849615E-2,6.792675340E-1,-3.472346357E-1,7.653509201E-1
8.203216917E0,-1.317091173E-1,5.211319256E-1,-3.531576459E-1,6.431532464E-1
8.213240917E0,-1.437499961E-1,2.922409147E-1,-4.869409168E-1,5.858159012E-1
8.223264917E0,-1.021707380E-1,2.144875646E-2,-8.206866107E-1,8.273000797E-1
8.233288917E0,3.525695622E-2,-1.201351386E-1,-1.367763144E0,1.373481533E0
8.243312917E0,3.092107040E-1,-1.547073859E-1,-1.998551998E0,2.028239562E0
8.253336917E0,6.165286642E-1,-1.614615047E-1,-2.522964796E0,2.602216127E0
8.263360917E0,9.797167701E-1,-1.250245804E-1,-2.833546672E0,3.000743714E0
8.273385917E0,1.403567107E0,-1.202047205E-1,-2.868924081E0,3.196118768E0
8.283409917E0,1.914777769E0,-1.294708031E-1,-2.643694596E0,3.266842162E0
8.293433917E0,2.414293708E0,-3.735142887E-2,-2.067641528E0,3.178891431E0
8.303457917E0,2.698804604E0,-1.115882635E-2,-1.393230107E0,3.037229155E0
8.313481917E0,2.633724801E0,-7.621377826E-2,-9.501320516E-1,2.800904458E0
8.323505917E0,2.414729326E0,-9.506227791E-2,-8.603757564E-1,2.565190246E0
8.333529917E0,2.261037309E0,-7.033440292E-2,-1.042803695E0,2.490918744E0
8.343553917E0,2.309311337E0,2.184051991E-2,-1.416400137E0,2.709166884E0
8.353577917E0,2.352675457E0,-5.782837808E-2,-1.731107370E0,2.921499385E0
8.363601917E0,2.356358618E0,-5.545353144E-1,-1.693080588E0,2.954057757E0
8.373626917E0,2.220003011E0,-1.336429085E0,-1.165862369E0,2.841424138E0
8.383650917E0,2.047311052E0,-2.213703806E0,-2.731515098E-1,3.027635848E0
8.393674917E0,1.965723098E0,-2.925552025E0,7.332004970E-1,3.600070127E0
8.403698917E0,1.927230000E0,-3.329160764E0,1.484896907E0,4.123402198E0
8.413722917E0,2.191062510E0,-3.306337327E0,2.071967298E0,4.475005020E0
8.423746917E0,2.744958431E0,-2.998705956E0,2.693050944E0,4.876428773E0
8.433770917E0,3.144966454E0,-2.277807416E0,3.514052061E0,5.237154047E0
8.443794917E0,2.368639233E0,-2.099352148E0,4.021633065E0,5.117740103E0
8.453818917E0,1.091676332E0,-2.180191659E0,4.315117097E0,4.956332157E0
8.463842917E0,-5.154349834E-2,-1.767103415E0,4.755643986E0,5.073604333E0
8.473866917E0,-1.275939054E0,-1.718208413E0,4.686991827E0,5.152489981E0
8.483891917E0,-2.611059824E0,-2.146115840E0,3.760558394E0,5.056208663E0
8.493915917E0,-3.596149016E0,-2.408729498E0,2.707210561E0,5.105218365E0
8.503939917E0,-4.244768954E0,-2.357884449E0,1.908012541E0,5.217105941E0
8.513963917E0,-4.739269443E0,-2.214462190E0,1.283032311E0,5.386157216E0
8.523987917E0,-5.170682276E0,-2.133955386E0,7.498902047E-1,5.643762585E0
8.534011917E0,-5.366982661E0,-2.087660056E0,2.490153730E-1,5.764098893E0
8.544035917E0,-5.053260246E0,-1.963669848E0,-3.262395501E-2,5.421485286E0
8.554059917E0,-3.812009799E0,-1.388945852E0,2.000940585E-1,4.062096370E0
8.564083917E0,-2.845249582E0,-8.280160224E-1,6.964057231E-1,3.044016532E0
8.574107917E0,-1.966494053E0,-3.738610286E-1,9.918965203E-1,2.233994099E0
8.584132917E0,-9.753860298E-1,9.378875434E-2,9.972046226E-1,1.398066986E0
8.594156917E0,-1.886180207E-1,5.016519266E-1,8.610539603E-1,1.014221542E0
8.604180917E0,3.967122397E-1,9.051144844E-1,7.330817986E-1,1.230455913E0
8.614204917E0,7.918226346E-1,1.426483222E0,4.854299963E-1,1.702198505E0
8.624232792E0,1.063287223E0,1.998248527E0,2.184285879E-1,2.274046601E0
8.634256792E0,1.162412438E0,2.286109877E0,7.826965928E-2,2.565857983E0
8.644280792E0,1.170302671E0,2.547066434E0,3.720758279E-2,2.803308789E0
8.654304792E0,9.660281458E-1,2.690044305E0,1.889831793E-1,2.864483092E0
8.664328792E0,4.696077231E-1,2.661653734E0,4.155452442E-1,2.734521871E0
8.674352792E0,-1.302400044E-1,2.566046496E0,3.200216210E-1,2.589202757E0
8.684377792E0,-7.185400656E-1,2.519471084E0,1.968067539E-1,2.627311795E0
8.694401792E0,-1.274628985E0,2.390207857E0,1.543419349E-1,2.713225771E0
8.704425792E0,-1.607741645E0,2.283354669E0,-1.231166339E-1,2.795299527E0
8.714449792E0,-1.788738697E0,2.140118936E0,-3.444220519E-1,2.810395299E0
8.724473792E0,-1.865719338E0,1.952221584E0,-3.677232063E-1,2.725306977E0
8.734497792E0,-1.527386576E0,1.896844944E0,-2.972864771E-1,2.453428161E0
8.744521792E0,-1.059108218E0,1.765131149E0,-5.969426114E-2,2.059359511E0
8.754545792E0,-6.371944785E-1,1.512601599E0,2.194027340E-1,1.655934166E0
8.764569792E0,-5.817160964E-2,1.243651899E0,2.369011299E-1,1.267350041E0
8.774593792E0,5.549934438E-1,9.222164208E-1,-4.138542295E-2,1.077132119E0
8.784618792E0,9.426910311E-1,6.589952374E-1,-4.817392337E-1,1.247001922E0
8.794642792E0,1.025810663E0,7.269065541E-1,-1.049224377E0,1.637544640E0
8.804666792E0,1.039848074E0,9.768452024E-1,-1.556394321E0,2.111367767E0
8.814690792E0,9.317035282E-1,7.916609591E-1,-2.334082189E0,2.634907627E0
8.824714792E0,5.248305818E-1,7.031575030E-1,-3.134884100E0,3.255361107E0
8.834738792E0,1.508403298E-1,1.209366750E0,-3.245541487E0,3.466822794E0
8.844762792E0,3.591263375E-1,1.317684081E0,-2.589471027E0,2.927562683E0
8.854786792E0,6.138877693E-1,1.039515660E0,-1.678843203E0,2.067840782E0
8.864810792E0,4.216906679E-1,9.239360869E-1,-6.824460804E-1,1.223606785E0
8.874834792E0,1.304513812E-1,6.650243014E-1,1.943602423E-1,7.050182892E-1
8.884859792E0,1.755880854E-1,3.789592159E-1,6.211719382E-1,7.485291175E-1
8.894883792E0,9.289120674E-2,-1.191972452E-1,5.032979544E-1,5.254955665E-1
8.904907792E0,1.149521667E-1,1.961974740E-2,1.364132754E-1,1.794645280E-1
8.914931792E0,4.581711540E-1,1.962267101E-2,-1.930936988E-1,4.975852008E-1
8.924955792E0,1.051592791E0,-4.131724441E-1,-5.152051878E-1,1.241771015E0
8.934979792E0,1.726449771E0,-9.004945993E-1,-1.010879506E0,2.193945466E0
8.945003792E0,2.184304590E0,-1.291027209E0,-1.602009619E0,3.000728681E0
8.955027792E0,2.575957527E0,-1.163201228E0,-2.225248987E0,3.597266647E0
8.965051792E0,2.780153699E0,-9.532546109E-1,-2.818577800E0,4.072140685E0
8.975075792E0,2.572791844E0,-9.145624155E-1,-3.569395373E0,4.494025546E0
8.985100792E0,2.207847819E0,-7.933771169E-1,-4.171913524E0,4.786324445E0
8.995124792E0,1.791444789E0,-6.408916730E-1,-4.516226817E0,4.900644981E0
9.005148792E0,1.235939713E0,-7.789017498E-1,-4.095355929E0,4.348123170E0
9.015172792E0,3.514910433E-1,-1.235495033E0,-2.903668821E0,3.175104179E0
9.025196792E0,-2.898494035E-1,-1.744427912E0,-1.151599913E0,2.110266281E0
9.035220792E0,-8.732366341E-1,-2.184054914E0,4.405594866E-1,2.393058869E0
9.045244792E0,-1.723419159E0,-2.290449681E0,1.457445545E0,3.215661806E0
9.055268792E0,-2.718782786E0,-2.740553724E0,2.335216695E0,4.511723790E0
9.065292792E0,-3.344825162E0,-3.668386395E0,3.056026211E0,5.829597783E0
9.075316792E0,-3.716939627E0,-4.406956390E0,2.819841968E0,6.417819999E0
9.085341792E0,-3.779646337E0,-4.159271259E0,1.910641011E0,5.935976155E0
9.095365792E0,-3.228080531E0,-3.200513248E0,8.750242741E-1,4.629196091E0
9.105389792E0,-2.435398648E0,-1.717145973E0,-2.727888362E-1,2.992352021E0
9.115413792E0,-1.741969158E0,-3.394197589E-1,-1.009685358E0,2.041843981E0
9.125437792E0,-1.374948495E0,-3.170085508E-1,-6.107736884E-1,1.537537734E0
9.135461792E0,-1.518422795E0,-1.146389313E0,3.491021633E-1,1.934344478E0
9.145485792E0,-1.515138121E0,-1.767061899E0,1.149709216E0,2.596147639E0
9.155509792E0,-1.315061897E0,-2.042272214E0,1.971649689E0,3.128524586E0
9.165533792E0,-1.232179661E0,-2.051994379E0,2.880779310E0,3.745375427E0
9.175558792E0,-1.074970837E0,-1.683440284E0,3.627588032E0,4.141126468E0
9.185582792E0,-8.325961465E-1,-1.470810964E0,3.978925002E0,4.323001897E0
9.195606792E0,-1.001631257E0,-1.164383535E0,3.510453393E0,3.831753804E0
9.205630792E0,-9.909855241E-1,-7.541779679E-1,2.778021512E0,3.044378465E0
9.215654792E0,-7.106863779E-1,4.113048434E-2,1.915229613E0,2.043250184E0
9.225678792E0,-5.091518578E-1,7.997915125E-1,1.123455949E0,1.470052838E0
9.235702792E0,-4.885006616E-1,1.315436411E0,6.848808610E-1,1.561431280E0
9.245726792E0,-6.159997836E-1,1.481911903E0,5.258142297E-1,1.688786317E0
9.255750792E0,-8.051782599E-1,1.412237651E0,4.887827897E-1,1.697538167E0
9.265774792E0,-9.736885831E-1,1.309572238E0,4.971503015E-1,1.705932978E0
9.275799792E0,-1.080734145E0,1.294634941E0,6.924179220E-1,1.823049232E0
9.285823792E0,-1.177547664E0,1.455144519E0,8.476638365E-1,2.054896117E0
9.295847792E0,-1.168435363E0,1.601933606E0,9.213071056E-1,2.186375827E0
9.305871792E0,-1.210493508E0,1.872736289E0,8.682880624E-1,2.392981383E0
9.315895792E0,-1.225008051E0,2.130314324E0,8.134142824E-1,2.588537549E0
9.325919792E0,-1.257159844E0,2.257991202E0,7.700770589E-1,2.696663460E0
9.335943792E0,-1.281309429E0,2.315038977E0,6.682888019E-1,2.729060138E0
9.345967792E0,-1.160372637E0,2.283213167E0,4.831273627E-1,2.606326739E0
9.355991792E0,-8.898263544E-1,2.083064144E0,3.454101948E-1,2.291343574E0
9.366015792E0,-4.718556851E-1,1.843215451E0,2.762072281E-1,1.922597571E0
9.376040792E0,3.198660851E-2,1.542215407E0,3.124097157E-1,1.573865095E0
9.386064792E0,4.043507499E-1,1.289752516E0,4.232063027E-1,1.416356119E0
9.396088792E0,4.883883950E-1,1.055166902E0,3.864717185E-1,1.225259485E0
9.406112792E0,4.688081163E-1,8.918465674E-1,2.996978688E-1,1.051185123E0
9.416136792E0,5.611850604E-1,9.359842747E-1,1.156988561E-1,1.097443147E0
9.426160792E0,7.207827652E-1,1.007338432E0,-1.466434908E-1,1.247302219E0
9.436184792E0,1.216296870E0,1.035320283E0,-5.483735186E-1,1.688780530E0
9.446208792E0,1.512246965E0,9.671996355E-1,-8.107451016E-1,1.969688716E0
9.456232792E0,1.421917132E0,7.537458587E-1,-9.116551799E-1,1.849620587E0
9.466257792E0,9.229780206E-1,4.097430521E-1,-8.731547731E-1,1.334982042E0
9.476281792E0,5.249600977E-1,1.453442395E-1,-9.326437604E-1,1.080061311E0
9.486305792E0,1.940994930E-1,-3.039031863E-2,-1.169782269E0,1.186165562E0
9.496329792E0,1.875260532E-2,-1.139838678E-1,-1.434638919E0,1.439282046E0
9.506353792E0,-1.261682957E-2,-1.453968644E-1,-1.672614164E0,1.678969200E0
9.516377792E0,-2.816925377E-2,-2.258925587E-1,-1.823480514E0,1.837634931E0
9.526401792E0,-1.953548902E-1,-3.902770865E-1,-1.950042327E0,1.998285469E0
9.536425792E0,-3.172865859E-1,-4.311222267E-1,-2.049249696E0,2.118008845E0
9.546449792E0,-3.056403941E-1,-6.745108241E-1,-2.047829407E0,2.177610200E0
9.556473792E0,-5.857068211E-2,-9.438055104E-1,-1.920381156E0,2.140575425E0
9.566498792E0,2.755976924E-1,-1.097276795E0,-1.908795483E0,2.218889508E0
9.576522792E0,6.554874927E-1,-1.228572514E0,-2.111125517E0,2.529012697E0
9.586546792E0,1.239669652E0,-1.296851621E0,-2.378459047E0,2.979206675E0
9.596570792E0,1.981959354E0,-1.073723041E0,-2.462608082E0,3.338485077E0
9.606594792E0,2.699939841E0,-7.271258247E-1,-2.319455379E0,3.632941007E0
9.616618792E0,3.320715922E0,-4.009412384E-1,-2.164248641E0,3.983952848E0
9.626641917E0,3.649777924E0,-2.105360162E-1,-2.065416663E0,4.198946332E0
9.636665917E0,3.588554067E0,-1.867682540E-1,-2.095474859E0,4.159761719E0
9.646689917E0,3.448938053E0,-4.126789391E-2,-2.056351140E0,4.015651471E0
9.656714917E0,3.175095110E0,-3.681056142E-2,-1.777111509E0,3.638778543E0
9.666738917E0,2.728106171E0,-2.671318012E-1,-1.304643620E0,3.035789462E0
9.676762917E0,1.979814010E0,-7.945208323E-1,-6.673041308E-1,2.235222958E0
9.686786917E0,1.027369239E0,-1.405868279E0,1.167770461E-1,1.745161897E0
9.696810917E0,1.242340368E-1,-1.882389457E0,8.679291165E-1,2.076565702E0
9.706834917E0,-8.049581122E-1,-2.418706602E0,1.502370726E0,2.958921592E0
9.716858917E0,-1.736283326E0,-3.038942986E0,2.019069293E0,4.040605779E0
9.726882917E0,-2.560475269E0,-3.505409292E0,2.552895523E0,5.035990812E0
9.736906917E0,-3.153144370E0,-3.726698338E0,3.117407942E0,5.792135374E0
9.746930917E0,-3.518471679E0,-3.482917977E0,3.368190343E0,5.987910051E0
9.756955917E0,-3.156518798E0,-2.285799390E0,3.421737975E0,5.186210615E0
9.766979917E0,-2.631940816E0,-1.099528558E0,3.454691713E0,4.480063653E0
9.777003917E0,-2.528846802E0,-4.994820249E-1,3.448766145E0,4.305640064E0
9.787027917E0,-2.554036315E0,-3.903911072E-1,3.173117874E0,4.091965757E0
9.797051917E0,-2.511525303E0,-6.683846962E-1,2.579101574E0,3.661456320E0
9.807075917E0,-2.487214919E0,-9.646268606E-1,1.849843855E0,3.246331056E0
9.817099917E0,-2.461956702E0,-1.191954326E0,1.237841666E0,3.002372047E0
9.827123917E0,-2.256874384E0,-1.397923082E0,8.530292416E-1,2.788427839E0
9.837147917E0,-1.792678259E0,-1.568536649E0,5.478034882E-1,2.444195414E0
9.847172917E0,-1.198684179E0,-1.759253528E0,1.023894238E-1,2.131267306E0
9.857196917E0,-6.193818131E-1,-1.737928147E0,-3.523450291E-1,1.878343711E0
9.867220917E0,-2.536954844E-1,-1.446910470E0,-7.387511858E-1,1.644282403E0
9.877244917E0,-6.931727976E-2,-9.793349469E-1,-9.866449897E-1,1.391894450E0
9.887268917E0,4.007038414E-2,-4.567628521E-1,-9.249840541E-1,1.032392096E0
9.897292917E0,1.470738459E-1,3.186615586E-2,-5.599936903E-1,5.798612775E-1
9.907316917E0,2.504856554E-1,4.214480084E-1,1.151068255E-2,4.904018588E-1
9.917340917E0,4.300492626E-1,1.078838185E0,6.206503665E-1,1.316829934E0
9.927364917E0,3.921522886E-1,1.602912430E0,9.452198057E-1,1.901723470E0
9.937388917E0,4.759428889E-2,1.730644271E0,8.926451509E-1,1.947873244E0
9.947413917E0,-4.008716565E-1,1.859038017E0,9.544784331E-1,2.127850914E0
9.957437917E0,-6.712963173E-1,1.963969810E0,1.068489783E0,2.334413540E0
9.967461917E0,-6.459606242E-1,1.998621579E0,1.259961537E0,2.449337956E0
9.977485917E0,-5.255173373E-1,1.845006453E0,1.308031351E0,2.321887874E0
9.987509917E0,-3.255563030E-1,1.836936711E0,1.148151079E0,2.190564833E0
9.997533917E0,-2.480561373E-1,1.977264624E0,8.838252108E-1,2.179966570E0
1.000755792E1,-5.136410576E-1,2.107878558E0,4.151651752E-1,2.208923103E0
1.001758192E1,-9.807549432E-1,2.279372131E0,-6.124607563E-2,2.482170149E0
1.002760592E1,-1.509672436E0,2.524533019E0,-3.854626353E-1,2.966641076E0
1.003763092E1,-1.994189975E0,2.708350768E0,-6.703831284E-1,3.429485541E0
1.004765492E1,-2.343302663E0,2.713868201E0,-7.258968861E-1,3.658288435E0
1.005767892E1,-2.439389958E0,2.447959637E0,-8.246129429E-1,3.552902512E0
1.006770292E1,-1.998637367E0,2.071846846E0,-7.838085870E-1,2.983530891E0
1.007772692E1,-1.211755045E0,1.965703509E0,-5.725217883E-1,2.379101043E0
1.008775092E1,-4.680938789E-1,1.899208973E0,-4.368256009E-1,2.004226337E0
1.009777492E1,9.849547058E-2,1.711778229E0,-5.272867048E-1,1.793855438E0
1.010779892E1,4.528922877E-1,1.511660782E0,-7.058219330E-1,1.728703082E0
1.011782292E1,5.697316432E-1,1.427963153E0,-9.086597975E-1,1.785871087E0
1.012784792E1,5.780273804E-1,1.369954680E0,-9.416354625E-1,1.759991143E0
1.013787192E1,5.024228820E-1,1.444693791E0,-9.993978401E-1,1.827119302E0
1.014789592E1,4.087238824E-1,1.537720653E0,-9.811861023E-1,1.869322387E0
1.015791992E1,3.271669185E-1,1.418510544E0,-9.805231011E-1,1.755174039E0
1.016794392E1,1.193600902E-1,1.188226726E0,-8.707860661E-1,1.477970892E0
1.017796792E1,-8.598184437E-2,9.616558903E-1,-8.276745450E-1,1.271699682E0
1.018799192E1,-3.759935081E-1,6.285201341E-1,-1.064230671E0,1.291896125E0
1.019801592E1,-5.393424940E-1,1.977627736E-1,-1.456191902E0,1.565405792E0
1.020803992E1,-7.213198319E-1,1.277897286E-1,-1.933366653E0,2.067495859E0
1.021806392E1,-7.024570066E-1,2.038479710E-1,-2.078703876E0,2.203635551E0
1.022808892E1,-4.675334233E-1,9.767715275E-2,-1.914045113E0,1.972738458E0
1.023811292E1,-1.974005386E-1,-2.818357944E-2,-1.668074970E0,1.679951009E0
1.024813692E1,4.963379771E-2,-2.095636243E-1,-1.542334106E0,1.557297313E0
1.025816092E1,2.060032547E-1,-5.144701928E-1,-1.709552779E0,1.797133168E0
1.026818492E1,3.669975668E-1,-7.963831705E-1,-2.197553358E0,2.366041869E0
1.027820892E1,4.922928733E-1,-9.342447281E-1,-2.668479774E0,2.869834453E0
1.028823292E1,6.808515447E-1,-8.851035583E-1,-2.976437420E0,3.179016648E0
1.029825692E1,7.768520084E-1,-7.919416255E-1,-3.173114365E0,3.361446914E0
1.030828092E1,8.594515309E-1,-6.702055192E-1,-3.298756996E0,3.474137316E0
1.031830592E1,9.196193799E-1,-4.847411942E-1,-3.340223111E0,3.498251600E0
1.032832992E1,1.020188858E0,-3.656334114E-1,-3.381944164E0,3.551340511E0
1.033835392E1,1.067903015E0,4.994691610E-2,-3.291528668E0,3.460790736E0
1.034837792E1,9.508364949E-1,3.476637483E-1,-2.931179971E0,3.101092733E0
1.035840192E1,5.739419308E-1,1.957677037E-1,-2.301433675E0,2.379985566E0
1.036842592E1,2.547892061E-1,-3.849800938E-1,-1.242887814E0,1.325857206E0
1.037844992E1,-3.229177469E-1,-1.319305514E0,-4.091735333E-3,1.358256107E0
1.038847392E1,-1.256956361E0,-2.360514527E0,8.721543145E-1,2.812938192E0
1.039849792E1,-2.359404433E0,-3.068015926E0,1.517391053E0,4.157160884E0
1.040852292E1,-3.289139496E0,-3.505099974E0,2.288835118E0,5.323807909E0
1.041854692E1,-3.802974097E0,-4.003666325E0,2.784541157E0,6.184304769E0
1.042857092E1,-3.903857278E0,-4.503313242E0,2.400288750E0,6.425053920E0
1.043859492E1,-3.451599705E0,-4.273711794E0,1.226479211E0,5.628712488E0
1.044861892E1,-2.607027584E0,-2.990319294E0,-3.264981432E-1,3.980603389E0
1.045864292E1,-2.021891159E0,-1.585011179E0,-1.593646932E0,3.023245746E0
1.046866692E1,-2.052480283E0,-9.476787060E-1,-1.067085282E0,2.499888245E0
1.047869092E1,-1.976789538E0,-1.305555201E0,1.039167020E0,2.586897631E0
1.048871492E1,-1.680220807E0,-1.761442725E0,2.572453290E0,3.541657573E0
1.049873992E1,-1.607230891E0,-2.173273233E0,3.086206030E0,4.102557171E0
1.050876392E1,-1.502733253E0,-2.641289636E0,3.357666525E0,4.528635850E0
1.051878792E1,-1.378505356E0,-3.135455373E0,3.790763941E0,5.108938115E0
1.052881192E1,-1.204010115E0,-3.516792651E0,4.159064852E0,5.578108224E0
1.053883592E1,-9.086090729E-1,-3.738847682E0,4.225393327E0,5.714761693E0
1.054885992E1,-4.762735489E-1,-3.651980862E0,3.744162802E0,5.251909728E0
1.055888392E1,2.087429675E-1,-3.117174638E0,2.667400378E0,4.107964962E0
1.056890792E1,8.958402157E-1,-2.478316627E0,1.299853581E0,2.938401321E0
1.057893192E1,1.261851942E0,-1.780657260E0,4.878931358E-2,2.182977554E0
1.058895692E1,1.324872355E0,-8.380539376E-1,-5.676137817E-1,1.667275192E0
1.059898092E1,1.102497189E0,2.187209487E-1,-4.908809169E-1,1.226500298E0
1.060900492E1,7.155761120E-1,8.951215929E-1,-1.783985496E-1,1.159792171E0
1.061902892E1,3.139954805E-1,1.241915860E0,3.014636549E-1,1.315989552E0
1.062904967E1,2.228373885E-3,1.411162348E0,7.934787854E-1,1.618948029E0
1.063907367E1,-1.950797787E-1,1.589745669E0,8.833271011E-1,1.829102015E0
1.064909767E1,-2.263960040E-1,1.778144712E0,6.903339744E-1,1.920836995E0
1.065912167E1,-1.866282132E-1,1.867543377E0,5.688229859E-1,1.961149648E0
1.066914567E1,-8.085032791E-2,1.963178097E0,4.394474924E-1,2.013384989E0
1.067917067E1,-1.605586946E-1,1.876845127E0,2.319345232E-1,1.897925275E0
1.068919467E1,-1.626862040E-1,1.778836437E0,1.669052625E-1,1.794041036E0
1.069921867E1,3.141317207E-1,1.894060500E0,1.447057235E-1,1.925378836E0
1.070924267E1,5.609897634E-1,1.804742526E0,2.387991178E-1,1.904948850E0
1.071926667E1,5.932292640E-1,1.627806950E0,2.910358036E-1,1.756809115E0
1.072929067E1,1.723525286E-1,1.289461910E0,-2.056787525E-1,1.317088137E0
1.073931467E1,-1.692356703E-1,1.026138985E0,-3.547909194E-1,1.098853277E0
1.074933867E1,-2.247909433E-1,1.091992666E0,-3.110595936E-1,1.157470095E0
1.075936267E1,-3.294122493E-1,1.182489438E0,-4.145921481E-1,1.295638974E0
1.076938767E1,-4.808226827E-1,1.090549573E0,-5.254530180E-1,1.302532033E0
1.077941167E1,-6.086413550E-1,1.224123368E0,-5.670331532E-1,1.480016525E0
1.078943567E1,-7.267478022E-1,1.468798937E0,-5.266107666E-1,1.721293579E0
1.079945967E1,-1.036460197E0,1.603792436E0,-5.050479895E-1,1.975214770E0
1.080948367E1,-1.250456888E0,1.634999610E0,-3.805128211E-1,2.093240588E0
1.081950767E1,-1.219845837E0,1.591219752E0,-2.411682269E-2,2.005139842E0
1.082953167E1,-1.229418021E0,1.446064963E0,1.240358162E-1,1.902092908E0
1.083955567E1,-1.008089799E0,1.586001112E0,1.529660851E-1,1.885482218E0
1.084957967E1,-6.455548275E-1,1.727363398E0,-5.452528596E-2,1.844857271E0
1.085960467E1,-3.295648617E-1,1.590332145E0,-4.437270695E-1,1.683645759E0
1.086962867E1,-1.421314868E-1,1.302403552E0,-6.931295282E-1,1.482189230E0
1.087965267E1,-6.151417047E-2,1.050566897E0,-8.070040530E-1,1.326171309E0
1.088967667E1,2.908960551E-2,8.902713275E-1,-9.836028296E-1,1.326990493E0
1.089970067E1,1.074545744E-1,6.899691081E-1,-1.289064299E0,1.466045914E0
1.090972467E1,1.953636611E-1,4.298370087E-1,-1.675624895E0,1.740874953E0
1.091974867E1,3.316833079E-1,2.991055459E-1,-2.055805594E0,2.103762008E0
1.092977267E1,4.458922935E-1,2.558156848E-1,-2.282888061E0,2.340051175E0
1.093979667E1,5.132028088E-1,1.486999565E-1,-2.466722767E0,2.523927497E0
1.094982167E1,5.085101259E-1,-6.265642405E-2,-2.594197916E0,2.644309211E0
1.095984567E1,4.263786730E-1,-3.024092227E-1,-2.617538247E0,2.669223966E0
1.096986967E1,3.364791942E-1,-4.050167477E-1,-2.621704388E0,2.674058846E0
1.097989367E1,3.151428504E-1,-3.261097419E-1,-2.509509768E0,2.550157222E0
1.098991767E1,4.037777227E-1,-2.718382251E-1,-2.327203524E0,2.377563609E0
1.099994167E1,5.795752846E-1,-2.291453648E-1,-2.014931218E0,2.109114251E0
1.100996567E1,7.340367950E-1,-2.904323709E-1,-1.610930132E0,1.793950074E0
1.101998967E1,8.964625056E-1,-3.527747995E-1,-1.227085567E0,1.560075021E0
1.103001367E1,1.305769648E0,-2.835940522E-1,-8.371540511E-1,1.576796393E0
1.104003867E1,1.918680201E0,-1.303648424E-1,-5.378666568E-1,1.996904917E0
1.105006267E1,2.533138659E0,-7.778960288E-2,-3.695317501E-1,2.561131859E0
1.106008667E1,3.056898615E0,-8.272406816E-2,-3.253496039E-1,3.075276375E0
1.107011067E1,3.356019072E0,-1.696423441E-1,-3.265821970E-1,3.376136618E0
1.108013467E1,3.177154207E0,-4.424693334E-1,-4.191342652E-1,3.235082919E0
1.109015867E1,2.531621599E0,-1.000138755E0,-4.732700900E-1,2.762855412E0
1.110018267E1,1.823510188E0,-1.821474334E0,-2.823404274E-1,2.592812040E0
1.111020667E1,1.399310042E0,-2.625160092E0,5.590522885E-3,2.974821903E0
1.112023067E1,1.224286651E0,-3.023717421E0,1.367149186E-1,3.265032284E0
1.113025567E1,1.204487102E0,-3.017517618E0,1.419195253E-1,3.252128980E0
1.114027967E1,1.276265036E0,-3.058098464E0,4.896270911E-1,3.349709442E0
1.115030367E1,1.354468183E0,-3.276319476E0,1.364830180E0,3.798896522E0
1.116032767E1,1.375970442E0,-3.416021737E0,2.479725221E0,4.439767599E0
1.117035167E1,1.291278055E0,-3.158644261E0,3.522138761E0,4.904069130E0
1.118037567E1,6.431065983E-1,-2.443298237E0,4.033425145E0,4.759391848E0
1.119039967E1,-3.725135377E-1,-1.316197718E0,3.902301334E0,4.135105617E0
1.120042367E1,-1.016134399E0,-4.486170959E-1,3.609693214E0,3.776727619E0
1.121044767E1,-1.449628256E0,-1.677402449E-1,3.131409684E0,3.454748252E0
1.122047267E1,-1.896042413E0,-3.239638138E-1,2.667316763E0,3.288541941E0
1.123049667E1,-2.346370112E0,-5.969960403E-1,2.297104982E0,3.337446370E0
1.124052067E1,-2.694109874E0,-7.448972672E-1,2.165892878E0,3.536126682E0
1.125054467E1,-2.927626325E0,-9.388833243E-1,2.163276833E0,3.759290419E0
1.126056867E1,-3.093804779E0,-1.277481549E0,2.108227637E0,3.955781956E0
1.127059267E1,-3.126737174E0,-1.471605601E0,1.836767727E0,3.913543673E0
1.128061667E1,-2.769165319E0,-1.533732852E0,1.383669909E0,3.454729431E0
1.129064067E1,-1.855520039E0,-1.469436284E0,9.764353126E-1,2.560395190E0
1.130066567E1,-8.411908226E-1,-1.140160859E0,7.542031109E-1,1.605114051E0
1.131068967E1,-7.329455584E-2,-9.403199852E-1,5.846560399E-1,1.109683041E0
1.132071367E1,4.966714145E-1,-7.266668183E-1,5.025553215E-1,1.013552668E0
1.133073767E1,7.407672326E-1,-5.095199400E-1,4.368531193E-1,9.995935724E-1
1.134076167E1,8.297608316E-1,-3.628898978E-1,3.173920916E-1,9.596509029E-1
1.135078567E1,1.013544959E0,8.102428257E-2,-4.239351947E-2,1.017661795E0
1.136080967E1,1.226972277E0,3.022180188E-1,-2.499298775E-1,1.288123303E0
1.137083367E1,1.191619134E0,1.731535971E-1,-4.292043400E-1,1.278340602E0
1.138085767E1,8.933751757E-1,2.899482214E-1,-5.493284054E-1,1.088095066E0
1.139088267E1,5.951315095E-1,3.732312834E-1,-5.491476899E-1,8.916536827E-1
1.140090667E1,2.895466639E-1,5.298319978E-1,-5.612478815E-1,8.243533228E-1
1.141093067E1,1.682126999E-2,5.221967036E-1,-4.760276735E-1,7.068059835E-1
1.142095467E1,1.577271804E-2,4.867029351E-1,-3.367469966E-1,5.920532623E-1
1.143097867E1,7.392035410E-2,7.452387446E-1,-3.334386420E-1,8.197721227E-1
1.144100267E1,-5.125903130E-2,1.235968072E0,-5.835146999E-1,1.367747773E0
1.145102667E1,-4.123354152E-1,1.679840738E0,-8.974575555E-1,1.948670178E0
1.146105067E1,-6.004102296E-1,1.935351782E0,-1.153196057E0,2.331510264E0
1.147107467E1,-6.696900871E-1,1.869548387E0,-1.101905451E0,2.271099207E0
1.148109967E1,-8.834406102E-1,1.573227870E0,-8.432644645E-1,1.991634555E0
1.149112367E1,-1.041873696E0,1.521335585E0,-7.158652568E-1,1.977985295E0
1.150114767E1,-9.292563222E-1,1.602530022E0,-2.284307619E-1,1.866494146E0
1.151117167E1,-9.172730385E-1,1.483647357E0,8.732356109E-2,1.746489253E0
1.152119567E1,-8.470544104E-1,1.494438978E0,6.060989857E-2,1.718872477E0
1.153121967E1,-6.947192399E-1,1.672124752E0,1.946127324E-1,1.821128805E0
1.154124367E1,-6.149797368E-1,1.763286352E0,4.553447561E-1,1.922164843E0
1.155126767E1,-6.023080896E-1,1.818477051E0,5.419396079E-1,1.990811985E0
1.156129167E1,-6.206651308E-1,1.953256541E0,4.626514368E-1,2.101067032E0
1.157131667E1,-5.529273301E-1,2.145377337E0,4.216776578E-1,2.255257102E0
1.158134067E1,-5.986464170E-1,2.074704965E0,9.639142312E-2,2.161497058E0
1.159136467E1,-5.146365461E-1,1.976906775E0,-1.429655921E-1,2.047791574E0
1.160138867E1,-2.519101833E-1,1.840770730E0,-3.944134068E-1,1.899330818E0
1.161141267E1,-1.482064515E-2,1.780657845E0,-7.220853786E-1,1.921553878E0
1.162143667E1,3.801254430E-1,1.609975281E0,-9.024965398E-1,1.884413904E0
1.163146462E1,2.392987624E-1,1.483763131E0,-1.104011472E0,1.864848052E0
1.164148862E1,6.141564488E-2,1.471672844E0,-1.429101605E0,2.052297308E0
1.165151362E1,3.831389518E-1,1.639113711E0,-1.661274658E0,2.365020656E0
1.166153762E1,8.324467501E-1,1.887778251E0,-2.000100925E0,2.873513186E0
1.167156163E1,1.245111071E0,1.860543090E0,-2.518899812E0,3.369981963E0
1.168158562E1,1.767093036E0,1.783154022E0,-2.728846428E0,3.707945373E0
1.169160962E1,1.454012644E0,2.043949780E0,-3.097726214E0,3.985949218E0
1.170163362E1,2.533082525E-1,1.505774975E0,-2.393936627E0,2.839446411E0
1.171165762E1,4.682922457E-1,1.151191632E0,-2.184146569E0,2.512973545E0
1.172168163E1,1.138859269E0,1.044144316E0,-2.153821739E0,2.650695356E0
1.173170562E1,1.515154640E0,7.780919105E-1,-1.600327960E0,2.337128619E0
1.174173062E1,1.817150026E0,3.075015628E-1,-8.494169779E-1,2.029310383E0
1.175175462E1,1.940142114E0,-2.493837476E-2,-3.295658849E-1,1.968092228E0
1.176177862E1,1.476790473E0,-1.100358278E-1,-3.309196615E-1,1.517407594E0
1.177180262E1,8.274371481E-1,1.200409985E-1,-7.446357505E-1,1.119618005E0
1.178182662E1,5.888245565E-1,3.600826496E-1,-1.320345587E0,1.489861182E0
1.179185062E1,6.409985308E-1,3.596680820E-1,-2.228886101E0,2.346949829E0
1.180187462E1,4.631930351E-1,3.405476868E-1,-2.661040946E0,2.722436305E0
1.181189862E1,1.916521409E-1,4.263672709E-1,-3.092961903E0,3.128087742E0
1.182192262E1,3.362131459E-1,4.938131493E-1,-3.278765658E0,3.332745857E0
1.183194762E1,5.210551809E-1,4.294393981E-1,-3.166578348E0,3.237766998E0
1.184197162E1,3.521585029E-1,3.302624345E-2,-2.677984715E0,2.701242025E0
1.185199562E1,-1.808495562E-1,-7.354048973E-1,-1.368335001E0,1.563926981E0
1.186201962E1,-4.303036165E-1,-1.713987892E0,8.805792752E-1,1.974420309E0
1.187204362E1,-6.173040050E-1,-2.853563445E0,2.792645691E0,4.040143379E0
1.188206762E1,-7.628552359E-1,-4.259323550E0,4.195802908E0,6.027316755E0
1.189209162E1,-4.087399623E-1,-5.651319310E0,5.447935023E0,7.860310065E0
1.190211562E1,-6.507050550E-1,-7.147639337E0,5.739797623E0,9.190073009E0
1.191214062E1,-5.304623276E-1,-6.240859566E0,3.932577339E0,7.395598889E0
1.192216462E1,-1.773135987E-1,-4.005090707E0,1.489313893E0,4.276709899E0
1.193218862E1,-6.016992483E-1,-3.358536006E0,6.383112967E-3,3.412015069E0
1.194221262E1,-9.745662501E-1,-3.460029636E0,-1.493454891E-1,3.597761600E0
1.195223662E1,-7.339100567E-1,-3.450295191E0,7.795469901E-1,3.612596627E0
1.196226062E1,-3.962739909E-1,-3.350069237E0,1.827861540E0,3.836805283E0
1.197228462E1,-6.443426996E-2,-3.066013255E0,2.728460220E0,4.104763602E0
1.198230862E1,3.322838169E-1,-2.710375074E0,3.493222525E0,4.433863912E0
1.199233262E1,7.182158375E-1,-2.341357294E0,4.173580857E0,4.839066557E0
1.200235762E1,1.101162562E0,-2.192091327E0,4.204937428E0,4.868194958E0
1.201238162E1,1.318245413E0,-1.711171288E0,3.337338972E0,3.975387976E0
1.202240562E1,1.505843972E0,-9.047969806E-1,1.938748138E0,2.616288972E0
1.203242962E1,1.306880765E0,-2.380296242E-1,8.317149711E-1,1.567273183E0
1.204245362E1,6.594361174E-1,3.023583519E-1,4.306471404E-1,8.436430083E-1
1.205247762E1,9.892816454E-2,6.155779070E-1,4.526812032E-1,7.704824547E-1
1.206250162E1,-9.444218069E-2,1.181808822E0,5.923138824E-1,1.325302665E0
1.207252562E1,-1.260381952E-1,1.636257346E0,6.421719208E-1,1.762273675E0
1.208255062E1,-2.811829528E-1,1.605261256E0,5.102036257E-1,1.707698830E0
1.209257462E1,-5.867113727E-1,1.454088512E0,5.681224895E-1,1.667743025E0
1.210259862E1,-1.025311604E0,1.844308296E0,3.595251176E-1,2.140559573E0
1.211262262E1,-1.293873341E0,2.673997791E0,1.383673418E-1,2.973805295E0
1.212264662E1,-1.533218297E0,3.311303952E0,1.009460387E-1,3.650435907E0
1.213267062E1,-1.654648301E0,3.335172871E0,1.458003223E-1,3.725922277E0
1.214269462E1,-1.681992805E0,2.984411268E0,3.465622790E-1,3.443242051E0
1.215271862E1,-1.471602969E0,2.695329019E0,5.991795368E-1,3.128806472E0
1.216274262E1,-9.783464751E-1,2.093670993E0,1.093751216E0,2.556738504E0
1.217276762E1,-9.082936156E-1,2.991367115E0,9.537744284E-1,3.268479795E0
1.218279162E1,-1.806049964E-1,2.957278433E0,6.938634999E-1,3.042952588E0
1.219281562E1,-2.329355299E-2,2.797560568E0,4.603058262E-1,2.835272328E0
1.220283962E1,-1.467051789E-1,2.826579714E0,4.678522427E-1,2.868790862E0
1.221286362E1,-2.063774765E-1,2.390521853E0,4.302569850E-1,2.437684858E0
1.222288762E1,-1.906239080E-1,2.022356597E0,3.425781325E-2,2.031609529E0
1.223291162E1,-1.392923713E-1,1.635349274E0,-6.689388661E-1,1.772356854E0
1.224293562E1,-2.241132510E-1,1.325007718E0,-1.429584439E0,1.962035645E0
1.225296062E1,-5.295010453E-1,1.186129915E0,-2.210897727E0,2.564243415E0
1.226298462E1,-8.857540610E-1,1.127209861E0,-2.685055461E0,3.043794533E0
1.227300862E1,-1.235180745E0,9.962205362E-1,-2.702090447E0,3.133595317E0
1.228303262E1,-1.248303359E0,5.556585646E-1,-2.438629235E0,2.795340813E0
1.229305662E1,-1.017108252E0,2.516635770E-1,-2.302787744E0,2.529955562E0
1.230308062E1,-5.365805617E-1,7.553433180E-3,-2.220277684E0,2.284208561E0
1.231310462E1,-1.572944865E-1,-1.403208965E-1,-2.065336117E0,2.076064736E0
1.232312862E1,3.761487517E-1,-3.755081892E-2,-2.094614003E0,2.128451496E0
1.233315262E1,9.349083871E-1,-3.419258755E-1,-1.991809427E0,2.226717717E0
1.234317762E1,1.213172995E0,-6.445871133E-1,-1.884630987E0,2.332191077E0
1.235320162E1,1.642447209E0,-8.966646731E-1,-1.816802409E0,2.608143279E0
1.236322562E1,1.919447648E0,-7.122084081E-1,-1.816318259E0,2.736883649E0
1.237324962E1,2.379932838E0,-4.711201054E-1,-1.778165177E0,3.007973714E0
1.238327362E1,2.685724675E0,-2.094320619E-1,-1.830015947E0,3.256675787E0
1.239329762E1,2.850416474E0,4.508782142E-1,-1.826099482E0,3.415084853E0
1.240332162E1,3.242613201E0,1.004901313E0,-2.231593362E0,4.062557809E0
1.241334562E1,3.701600626E0,1.590806354E0,-2.675469536E0,4.836388042E0
1.242337062E1,4.144975109E0,1.951933317E0,-2.855535711E0,5.398605980E0
1.243339462E1,4.525344088E0,1.359572364E0,-2.383794193E0,5.292414466E0
1.244341863E1,4.736819167E0,2.128339720E-1,-1.013666289E0,4.848739369E0
1.245344262E1,3.691831976E0,-3.759882456E-1,4.382067132E-1,3.736711873E0
1.246346662E1,2.664312171E0,-1.337207349E0,1.558527239E0,3.363880199E0
1.247349062E1,1.849242176E0,-2.163307239E0,2.267892877E0,3.639084079E0
1.248351462E1,1.141706278E0,-2.961176772E0,2.858242972E0,4.271020251E0
1.249353862E1,3.889904067E-1,-4.066409873E0,3.399626144E0,5.314551788E0
1.250356362E1,-5.365522027E-1,-5.323402779E0,3.867143780E0,6.601613926E0
1.251358762E1,-1.668907906E0,-6.338131506E0,4.229887497E0,7.800584134E0
1.252361162E1,-2.823148568E0,-6.665772049E0,4.485319605E0,8.515913152E0
1.253363562E1,-3.742902142E0,-6.176202224E0,4.653856241E0,8.591459030E0
1.254365962E1,-4.270679136E0,-5.211501689E0,4.435047584E0,8.066479852E0
1.255368362E1,-4.365627685E0,-4.085448992E0,3.710700356E0,7.036966369E0
1.256370762E1,-3.938390349E0,-2.918296800E0,2.776252145E0,5.633378269E0
1.257373162E1,-3.156989499E0,-2.095451471E0,1.922744747E0,4.249052474E0
1.258375662E1,-2.498008879E0,-1.810939990E0,1.104548538E0,3.277129763E0
1.259378063E1,-2.090292180E0,-1.902190468E0,5.027153890E-1,2.870604943E0
1.260380462E1,-1.686043756E0,-2.109347963E0,5.826399565E-2,2.701015933E0
1.261382862E1,-1.009059852E0,-2.058209385E0,-3.755843492E-1,2.322819679E0
1.262385262E1,-2.633126923E-1,-1.600173594E0,-8.380685556E-1,1.825444606E0
1.263387275E1,2.997145334E-1,-9.905335343E-1,-1.038688717E0,1.466239999E0
1.264389675E1,8.599906442E-1,-2.487282747E-1,-9.901965885E-1,1.334892860E0
1.265392075E1,1.071712768E0,4.061873603E-1,-9.095517902E-1,1.463161265E0
1.266394475E1,9.078065425E-1,8.479515195E-1,-7.812257257E-1,1.467463162E0
1.267396975E1,1.575236973E-1,1.215734952E0,-7.322070551E-1,1.427918891E0
1.268399375E1,-9.144972190E-1,1.727572144E0,-7.946047398E-1,2.110025442E0
1.269401775E1,-1.855878181E0,2.133485270E0,-6.914858758E-1,2.911047223E0
1.270404175E1,-2.437313612E0,2.794625850E0,-6.356639698E-1,3.762246665E0
1.271406575E1,-2.443491487E0,3.545891905E0,-1.357396030E-1,4.308413315E0
1.272408975E1,-2.229585136E0,4.126846694E0,6.630195835E-1,4.737246930E0
1.273411375E1,-2.072928581E0,4.354379396E0,1.344762536E0,5.006599555E0
1.274413775E1,-1.799642585E0,4.108254887E0,1.804482033E0,4.834524491E0
1.275416275E1,-1.439559351E0,3.631612086E0,2.016240117E0,4.396153055E0
1.276418675E1,-1.077687161E0,3.073516987E0,2.015653349E0,3.830244732E0
1.277421075E1,-7.967173389E-1,2.679526334E0,1.746672074E0,3.296283244E0
1.278423475E1,-6.658291706E-1,2.443323380E0,1.215169819E0,2.808877945E0
1.279425875E1,-4.760481387E-1,2.117652179E0,4.666909857E-1,2.220106542E0
1.280428275E1,-8.377713709E-1,2.207360746E0,-6.135234877E-2,2.361793057E0
1.281430675E1,-1.241064506E0,2.439253718E0,-7.368096909E-1,2.834270334E0
1.282433075E1,-1.526153983E0,2.300620328E0,-1.818026816E0,3.305634791E0
1.283435575E1,-1.498948643E0,2.049915109E0,-2.703499918E0,3.709165782E0
1.284437975E1,-9.734466545E-1,2.005423645E0,-3.122883275E0,3.836889669E0
1.285440375E1,-1.659192757E-1,1.954718930E0,-3.085711355E0,3.656510614E0
1.286442775E1,7.331499186E-1,1.768072883E0,-2.690794795E0,3.302115557E0
1.287445175E1,1.415355094E0,1.230544195E0,-2.135384738E0,2.842065628E0
1.288447575E1,1.488836761E0,4.015464252E-1,-1.686909144E0,2.285505828E0
1.289449975E1,9.831052315E-1,-5.127926266E-1,-1.377904555E0,1.768635953E0
1.290452375E1,3.130453080E-1,-1.207402085E0,-1.254563680E0,1.769109151E0
1.291454875E1,-2.183417568E-1,-1.415510922E0,-1.471263539E0,2.053280471E0
1.292457275E1,-4.083424978E-1,-1.047240416E0,-1.994921461E0,2.289796437E0
1.293459675E1,-1.636982109E-1,-6.517610621E-1,-2.412398626E0,2.504247734E0
1.294462075E1,2.007267272E-1,-7.060477817E-1,-2.381852625E0,2.492391746E0
1.295464475E1,3.683567521E-1,-7.901208025E-1,-2.159503917E0,2.328826904E0
1.296466875E1,4.115056953E-1,-4.668001825E-1,-2.111983596E0,2.201752497E0
1.297469275E1,3.652501264E-1,-1.533736360E-1,-2.453225347E0,2.485004171E0
1.298471675E1,3.536007187E-1,2.622651637E-2,-2.829472624E0,2.851602467E0
1.299474175E1,5.701554202E-1,2.547865748E-2,-2.515640574E0,2.579568541E0
1.300476575E1,8.895025648E-1,-7.530517942E-1,-1.704023214E0,2.064460445E0
1.301478975E1,1.005007878E0,-2.146292426E0,-4.682298267E-1,2.415750646E0
1.302481375E1,1.182285809E0,-3.481474884E0,5.600711659E-1,3.719159423E0
1.303483775E1,1.525787655E0,-4.223254416E0,7.791885558E-1,4.557525714E0
1.304486175E1,1.401082187E0,-4.227533408E0,3.624633434E-1,4.468383342E0
1.305488575E1,1.892711547E-1,-4.287853285E0,3.950834978E-1,4.310174049E0
1.306490975E1,-1.094259924E0,-4.686149828E0,1.001678327E0,4.915360054E0
1.307493475E1,-1.428774746E0,-4.112396470E0,1.715052963E0,4.679167518E0
1.308495875E1,-1.530705748E0,-3.124891793E0,1.692754021E0,3.869551005E0
1.309498275E1,-1.864562174E0,-2.534072167E0,1.120639930E0,3.339752640E0
1.310500675E1,-1.953549487E0,-1.957997464E0,8.890890205E-1,2.905269171E0
1.311503075E1,-1.696116462E0,-1.403434083E0,1.207234562E0,2.510747611E0
1.312505475E1,-1.314534478E0,-1.096128986E0,1.803285108E0,2.486229440E0
1.313507875E1,-9.320143077E-1,-1.217969173E0,2.739046311E0,3.139183695E0
1.314510275E1,-6.113553402E-1,-1.755727072E0,3.878605784E0,4.301152838E0
1.315512675E1,-3.200789237E-1,-2.384645401E0,4.757872652E0,5.331635432E0
1.316515175E1,1.411093935E-1,-2.708964141E0,5.184512111E0,5.851287414E0
1.317517575E1,8.323239586E-1,-2.577273150E0,4.893076943E0,5.592611378E0
1.318519975E1,1.522942400E0,-2.093861028E0,4.125814075E0,4.870929002E0
1.319522375E1,1.923193375E0,-1.405134453E0,3.190353127E0,3.981385269E0
1.320524775E1,1.941910312E0,-7.010659540E-1,2.433855568E0,3.191576735E0
1.321527175E1,1.640392790E0,-9.604110181E-2,1.879172319E0,2.496277429E0
1.322529575E1,1.149200655E0,4.682228100E-1,1.425145379E0,1.889691535E0
1.323531975E1,5.283278015E-1,9.765446556E-1,1.082202819E0,1.550462083E0
1.324534475E1,-9.477605671E-2,1.562556117E0,7.462229772E-1,1.734189393E0
1.325536875E1,-6.522370255E-1,2.084335914E0,3.743716367E-1,2.215857274E0
1.326539275E1,-1.208961245E0,2.510443568E0,3.493609026E-2,2.786599134E0
1.327541675E1,-1.485328723E0,2.989982495E0,-1.495824476E-1,3.341941299E0
1.328544075E1,-1.533085857E0,3.349724836E0,-2.485756624E-1,3.692261988E0
1.329546475E1,-1.534062635E0,3.415107817E0,-2.880301885E-1,3.754899594E0
1.330548875E1,-1.388327217E0,3.354099138E0,-1.996954246E-1,3.635562096E0
1.331551275E1,-1.218027938E0,3.219747080E0,4.660347819E-2,3.442751109E0
1.332553775E1,-1.070558528E0,3.120591751E0,3.114906064E-1,3.313791610E0
1.333556175E1,-9.472658926E-1,3.037460716E0,5.418685643E-1,3.227553534E0
1.334558575E1,-6.249343291E-1,3.016587911E0,7.436640164E-1,3.169129487E0
1.335560975E1,-3.422778779E-1,2.862720185E0,8.054680625E-1,2.993509613E0
1.336563375E1,-2.610047963E-1,2.539070367E0,7.161752323E-1,2.651020331E0
1.337565775E1,-1.242337444E-1,2.077811006E0,5.635594320E-1,2.156462806E0
1.338568175E1,4.826437980E-2,1.494454765E0,3.945326900E-1,1.546408917E0
1.339570575E1,3.042727304E-1,9.090601856E-1,1.883820490E-1,9.769647444E-1
1.340573075E1,6.579594031E-1,4.625510108E-1,-1.393858902E-1,8.162673827E-1
1.341575475E1,9.327718145E-1,1.232628143E-1,-5.961400080E-1,1.113840154E0
1.342577875E1,1.144776651E0,-1.557797652E-1,-1.164150231E0,1.640130079E0
1.343580275E1,1.326361933E0,-3.553148299E-1,-1.702248437E0,2.187037802E0
1.344582675E1,1.478611150E0,-4.676205468E-1,-2.189148424E0,2.682784138E0
1.345585075E1,1.578571640E0,-4.927963185E-1,-2.557882029E0,3.045898407E0
1.346587475E1,1.542981977E0,-4.477803594E-1,-2.708823223E0,3.149448188E0
1.347589875E1,1.373017159E0,-3.543558866E-1,-2.644233710E0,3.000452653E0
1.348592375E1,1.086626676E0,-2.422273403E-1,-2.394572804E0,2.640721593E0
1.349594775E1,8.536753589E-1,-1.459038180E-1,-1.922289687E0,2.108375485E0
1.350597175E1,7.037001246E-1,-9.960439503E-2,-1.278246950E0,1.462542364E0
1.351599575E1,6.825182936E-1,-1.246269697E-1,-6.096657872E-1,9.236100231E-1
1.352601975E1,7.695929825E-1,-1.546664554E-1,-1.937474906E-1,8.085376685E-1
1.353604375E1,9.540080246E-1,-1.787183923E-1,-2.179748074E-1,9.947786646E-1
1.354606775E1,1.176396932E0,-1.837236089E-1,-4.807685959E-1,1.284057066E0
1.355609175E1,1.413873994E0,-1.483233958E-1,-7.990208495E-1,1.630789324E0
1.356611675E1,1.605063328E0,-8.017526686E-2,-1.168024596E0,1.986690166E0
1.357614075E1,1.692023119E0,-2.509624958E-3,-1.707271196E0,2.403689553E0
1.358616475E1,1.793191352E0,-7.862166166E-3,-2.202119887E0,2.839881870E0
1.359618875E1,1.949861648E0,-6.426733196E-2,-2.617667470E0,3.264701169E0
1.360621275E1,1.988312938E0,-3.539535981E-1,-2.773682878E0,3.431033109E0
1.361623675E1,2.165894632E0,-7.574196643E-1,-2.565926628E0,3.442203301E0
1.362626075E1,2.494864832E0,-1.029326887E0,-1.624550636E0,3.150083989E0
1.363628812E1,2.284686957E0,-1.355855289E0,-3.197162867E-1,2.675884258E0
1.364631312E1,1.862474425E0,-1.788768518E0,7.890887690E-1,2.700215710E0
1.365633712E1,1.554281722E0,-2.190468725E0,1.669250261E0,3.162331630E0
1.366636112E1,1.465135364E0,-2.606859477E0,2.532322680E0,3.918545154E0
1.367638512E1,1.289345258E0,-2.939866594E0,3.358667568E0,4.646060118E0
1.368640912E1,7.077241784E-1,-3.072624117E0,4.004204854E0,5.096621331E0
1.369643312E1,-1.722592655E-1,-2.492463380E0,4.390356145E0,5.051462564E0
1.370645712E1,-1.034419227E0,-1.811448698E0,4.320333399E0,4.797567112E0
1.371648112E1,-1.730006632E0,-1.653470380E0,3.964062549E0,4.630408096E0
1.372650612E1,-2.218826844E0,-1.716782277E0,3.569635109E0,4.540135324E0
1.373653012E1,-2.462543470E0,-1.640279646E0,3.346473784E0,4.466936808E0
1.374655412E1,-2.507958794E0,-1.718496096E0,2.912838424E0,4.210429174E0
1.375657812E1,-2.530090213E0,-2.050453053E0,2.105643167E0,3.878072634E0
1.376660212E1,-2.522096777E0,-2.571093813E0,1.032763441E0,3.746744703E0
1.377662612E1,-2.379829634E0,-3.169832908E0,-1.594532785E-1,3.966970519E0
1.378665012E1,-1.822656933E0,-3.551395304E0,-1.135526941E0,4.150169676E0
1.379667412E1,-8.736933017E-1,-3.352240309E0,-1.694269181E0,3.856345826E0
1.380669912E1,-1.162493715E-1,-2.672876880E0,-1.836621985E0,3.245144842E0
1.381672312E1,2.548982567E-1,-1.647981014E0,-1.528283101E0,2.261960163E0
1.382674713E1,1.047692406E-1,-9.325624841E-1,-1.046298284E0,1.405485496E0
1.383677112E1,-3.862050855E-1,-2.983951092E-1,-5.828982572E-1,7.602396908E-1
1.384679512E1,-6.893890643E-1,4.040525419E-1,-1.786115344E-1,8.187904609E-1
1.385681912E1,-1.048812733E0,9.834636658E-1,3.006883872E-1,1.468884759E0
1.386684312E1,-1.359925244E0,1.526305718E0,6.274753828E-1,2.138394531E0
1.387686712E1,-1.301303691E0,2.145559770E0,5.830401984E-1,2.576189802E0
1.388689212E1,-1.226506985E0,2.673054051E0,7.463831909E-1,3.034242115E0
1.389691612E1,-1.284345888E0,3.013832703E0,1.007004118E0,3.427358927E0
1.390694012E1,-1.257508630E0,3.164030716E0,1.274830129E0,3.635603139E0
1.391696412E1,-1.181373497E0,3.181268892E0,1.455866797E0,3.692649893E0
1.392698812E1,-1.094282143E0,3.034448816E0,1.468563587E0,3.544292882E0
1.393701212E1,-1.031872472E0,2.818672525E0,1.355215019E0,3.293369604E0
1.394703612E1,-9.468191653E-1,2.722093479E0,1.100042820E0,3.084858773E0
1.395706012E1,-8.517082094E-1,2.603604916E0,7.589780934E-1,2.842571579E0
1.396708512E1,-7.630329913E-1,2.535439830E0,4.334564352E-1,2.683013038E0
1.397710912E1,-7.777065790E-1,2.556452969E0,1.024572515E-1,2.674093640E0
1.398713312E1,-8.696329951E-1,2.624597005E0,-1.866209042E-1,2.771208824E0
1.399715712E1,-1.043644379E0,2.622145268E0,-4.815030062E-1,2.862985250E0
1.400718112E1,-1.148413912E0,2.480256733E0,-7.706767640E-1,2.839801163E0
1.401720512E1,-1.131336680E0,2.261629339E0,-1.031754212E0,2.731191444E0
1.402722913E1,-8.752549468E-1,2.024076263E0,-1.211031890E0,2.515860525E0
1.403725312E1,-4.293211381E-1,1.878788742E0,-1.335159215E0,2.344528504E0
1.404727812E1,2.123400284E-1,1.706600520E0,-1.373451608E0,2.200895940E0
1.405730212E1,7.095077254E-1,1.344300606E0,-1.281277123E0,1.988018209E0
1.406732612E1,1.114830282E0,9.961714196E-1,-1.164310591E0,1.894946756E0
1.407735012E1,1.372438139E0,5.140556252E-1,-1.033509254E0,1.793315647E0
1.408737412E1,1.188919913E0,-1.199772638E-1,-9.988131917E-1,1.557418664E0
1.409739812E1,7.857397762E-1,-6.595612478E-1,-1.229785227E0,1.601492972E0
1.410742212E1,5.519489448E-1,-8.511306506E-1,-1.715857247E0,1.993298050E0
1.411744612E1,5.338162905E-1,-7.964533371E-1,-2.113313399E0,2.320644581E0
1.412747112E1,6.433061345E-1,-7.177884060E-1,-2.237807783E0,2.436564518E0
1.413749512E1,7.291650411E-1,-6.531176162E-1,-2.049148393E0,2.270958700E0
1.414751912E1,6.678550847E-1,-5.865903354E-1,-1.745123731E0,1.958462528E0
1.415754312E1,4.574651027E-1,-5.408586770E-1,-1.708304837E0,1.849353359E0
1.416756712E1,1.720589983E-1,-5.474262697E-1,-2.091090471E0,2.168395531E0
1.417759112E1,5.949892759E-2,-4.212433559E-1,-2.449395275E0,2.486065828E0
1.418761512E1,1.242634191E-1,-2.258416879E-1,-2.642457325E0,2.655000298E0
1.419764012E1,2.962491810E-1,2.690420866E-2,-2.663767211E0,2.680325198E0
1.420766412E1,4.792114824E-1,2.587685287E-2,-2.990054708E0,3.028323036E0
1.421768812E1,7.183826293E-1,-4.558547795E-2,-3.232422674E0,3.311602026E0
1.422771212E1,8.449192996E-1,-7.488587558E-2,-3.097476245E0,3.211519206E0
1.423773612E1,9.548763362E-1,-3.723957163E-1,-2.753043376E0,2.937637693E0
1.424776012E1,7.194642180E-1,-8.390444559E-1,-2.051353817E0,2.330166698E0
1.425778412E1,-1.517676982E-1,-1.510035841E0,-1.045390650E0,1.842846517E0
1.426780812E1,-1.033278727E0,-1.828186353E0,5.058280081E-2,2.100592509E0
1.427783312E1,-1.467756086E0,-2.142043839E0,8.881360705E-1,2.744347904E0
1.428785712E1,-1.592921292E0,-2.896025925E0,1.647207135E0,3.692919678E0
1.429788112E1,-1.701886495E0,-3.845045398E0,2.337925856E0,4.811100608E0
1.430790512E1,-1.756734839E0,-4.386965929E0,2.639309185E0,5.412720234E0
1.431792912E1,-1.751212437E0,-4.186935605E0,2.401632878E0,5.134687453E0
1.432795312E1,-1.853470298E0,-3.303786771E0,1.523855735E0,4.083196723E0
1.433797712E1,-2.100405524E0,-2.234551468E0,6.369968426E-1,3.132201879E0
1.434800112E1,-2.181855192E0,-1.613482441E0,3.870000145E-1,2.741092242E0
1.435802612E1,-2.016924241E0,-1.552421138E0,7.488871148E-1,2.653078720E0
1.436805012E1,-1.658120670E0,-1.765217103E0,1.328012602E0,2.762059567E0
1.437807412E1,-1.163264378E0,-2.175136156E0,2.197016729E0,3.303223247E0
1.438809812E1,-4.237895259E-1,-2.658285738E0,3.267370020E0,4.233413218E0
1.439812212E1,3.972680175E-1,-2.854166878E0,3.976403390E0,4.910791623E0
1.440814612E1,1.139043456E0,-2.608662758E0,4.024203501E0,4.929173886E0
1.441817012E1,1.815894628E0,-1.899098461E0,3.528823590E0,4.399618642E0
1.442819412E1,2.126800440E0,-9.736508685E-1,2.784635882E0,3.636684359E0
1.443821912E1,2.029828169E0,-2.051770431E-1,2.065589740E0,2.903267296E0
1.444824312E1,1.571231046E0,2.499637914E-1,1.544567742E0,2.217417057E0
1.445826712E1,7.649792370E-1,4.160393339E-1,1.236520927E0,1.512370974E0
1.446829112E1,1.132342547E-1,7.297833842E-1,1.050639257E0,1.284230755E0
1.447831512E1,-5.217730728E-1,1.068073461E0,8.687022646E-1,1.472301492E0
1.448833912E1,-1.089288621E0,1.482397807E0,7.001100804E-1,1.968300557E0
1.449836312E1,-1.463872073E0,1.869087626E0,5.655883062E-1,2.440553243E0
1.450838712E1,-1.705836581E0,2.104173177E0,4.412170060E-1,2.744466369E0
1.451841212E1,-1.791637162E0,2.290559608E0,3.632841463E-1,2.930631743E0
1.452843612E1,-1.768902895E0,2.408141268E0,3.784717043E-1,3.011876931E0
1.453846012E1,-1.700811484E0,2.498736858E0,3.573841596E-1,3.043709747E0
1.454848412E1,-1.469144800E0,2.599532915E0,3.267108357E-1,3.003780583E0
1.455850812E1,-1.153648924E0,2.612092735E0,3.435063779E-1,2.876096474E0
1.456853212E1,-7.984185863E-1,2.513757185E0,4.074854422E-1,2.668799695E0
1.457855612E1,-4.582951149E-1,2.405897107E0,5.254904401E-1,2.504898302E0
1.458858012E1,-1.476553515E-1,2.270800112E0,6.842212951E-1,2.376235265E0
1.459860512E1,1.410737255E-1,2.086154398E0,7.990009689E-1,2.238379886E0
1.460862912E1,3.832855707E-1,1.848056361E0,7.786888381E-1,2.041709198E0
1.461865312E1,7.298149592E-1,1.620435950E0,6.220033392E-1,1.882904856E0
1.462867350E1,1.063623438E0,1.498623245E0,3.313313055E-1,1.867336842E0
1.463869750E1,1.113092051E0,1.379004416E0,-3.281574368E-2,1.772485252E0
1.464872150E1,1.083014851E0,1.311035796E0,-4.289727902E-1,1.753782678E0
1.465874550E1,1.327358591E0,1.321538565E0,-9.129351354E-1,2.083697572E0
1.466877050E1,8.766025838E-1,1.064557530E0,-1.393316646E0,1.960368868E0
1.467879450E1,4.155721414E-1,8.100972301E-1,-1.695024787E0,1.924075559E0
1.468881850E1,1.599663717E-1,6.784167641E-1,-1.948536669E0,2.069452511E0
1.469884250E1,7.761009336E-2,5.799391276E-1,-2.106673447E0,2.186418471E0
1.470886650E1,1.426910654E-1,4.406081647E-1,-2.142992842E0,2.192467700E0
1.471889050E1,3.869549909E-1,2.752465671E-1,-2.013643076E0,2.068877299E0
1.472891450E1,7.898208404E-1,1.445648056E-1,-1.726114433E0,1.903729754E0
1.473893850E1,1.225052198E0,1.001019931E-1,-1.378769943E0,1.847100390E0
1.474896350E1,1.557874836E0,3.743562877E-2,-1.047126396E0,1.877458154E0
1.475898750E1,1.697972953E0,-9.108149350E-2,-8.536934853E-1,1.902682463E0
1.476901150E1,1.695300483E0,-2.247160989E-1,-8.318857098E-1,1.901729447E0
1.477903550E1,1.751477023E0,-2.562992495E-1,-1.022583293E0,2.044269468E0
1.478905950E1,1.887950159E0,-1.514031243E-1,-1.434541855E0,2.375960657E0
1.479908350E1,2.080067446E0,-2.996230245E-2,-1.899576763E0,2.817085408E0
1.480910750E1,2.292641509E0,4.769515336E-2,-2.213298594E0,3.187031626E0
1.481913150E1,2.548457194E0,1.276757079E-1,-2.334126627E0,3.458190606E0
1.482915650E1,2.801085562E0,2.082632035E-1,-2.353632939E0,3.664565717E0
1.483918050E1,2.887327607E0,2.551186967E-1,-2.235405747E0,3.660435099E0
1.484920450E1,2.698889096E0,8.906069577E-2,-1.994484090E0,3.357067313E0
1.485922850E1,2.241476034E0,-4.063563448E-1,-1.481147672E0,2.717193168E0
1.486925250E1,1.691293971E0,-1.116602427E0,-6.659768128E-1,2.133260742E0
1.487927650E1,1.304641574E0,-1.768879799E0,2.320853448E-1,2.210178496E0
1.488930050E1,9.573926854E-1,-2.384638969E0,9.599292807E-1,2.743094601E0
1.489932550E1,6.756355360E-1,-3.034514889E0,1.580134016E0,3.487346771E0
1.490934950E1,4.857252806E-1,-3.688307859E0,2.253130996E0,4.349269271E0
1.491937350E1,3.928355357E-1,-4.216890891E0,2.998399562E0,5.189112494E0
1.492939750E1,3.352691129E-1,-4.397783863E0,3.675657992E0,5.741373526E0
1.493942150E1,1.695359248E-1,-3.766820177E0,4.084031042E0,5.558505755E0
1.494944550E1,-3.025293830E-1,-2.625211548E0,4.093069668E0,4.872009750E0
1.495946950E1,-8.152977437E-1,-1.799359580E0,3.888270940E0,4.361313587E0
1.496949350E1,-1.121089581E0,-1.384627683E0,3.694641563E0,4.101757178E0
1.497951850E1,-1.361526796E0,-1.193872797E0,3.543155408E0,3.979074983E0
1.498954250E1,-1.697680300E0,-1.030962937E0,3.305386569E0,3.856239535E0
1.499956650E1,-2.150015933E0,-1.015834436E0,2.874528637E0,3.730603570E0
1.500959050E1,-2.659452550E0,-1.303079490E0,2.068581322E0,3.612441378E0
1.501961450E1,-3.149394258E0,-1.793967862E0,9.437780285E-1,3.745360043E0
1.502963850E1,-3.484896090E0,-2.178881298E0,-2.672809052E-1,4.118672547E0
1.503966250E1,-3.325908835E0,-2.382117065E0,-1.260593183E0,4.280799745E0
1.504968650E1,-2.389888015E0,-2.140266870E0,-1.781350740E0,3.669539134E0
1.505971150E1,-1.327649198E0,-1.660357230E0,-1.937345244E0,2.876238015E0
1.506973550E1,-4.130174929E-1,-1.218577868E0,-1.860495289E0,2.262069449E0
1.507975950E1,3.098813796E-1,-6.982475960E-1,-1.442570082E0,1.632355542E0
1.508978350E1,6.896229529E-1,-1.937258559E-1,-6.359269483E-1,9.578687844E-1
1.509980750E1,5.329772151E-1,2.394756407E-1,1.115040636E-1,5.948499394E-1
1.510983150E1,-4.421138227E-2,6.376113850E-1,6.706756353E-1,9.264495304E-1
1.511985550E1,-1.925909114E-1,1.249322528E0,7.007854338E-1,1.445336730E0
1.512988050E1,-3.270730707E-1,1.785411631E0,8.639157338E-1,2.010229311E0
1.513990450E1,-5.656537950E-1,2.258649598E0,1.097774978E0,2.574212914E0
1.514992850E1,-7.675830022E-1,2.600257385E0,1.384033606E0,3.044022201E0
1.515995250E1,-9.058453864E-1,2.770176303E0,1.618481226E0,3.333753754E0
1.516997650E1,-9.362526619E-1,2.855955541E0,1.738455566E0,3.472071263E0
1.518000050E1,-9.560533807E-1,2.885269387E0,1.713916264E0,3.489459337E0
1.519002450E1,-9.934840393E-1,2.912946598E0,1.555311709E0,3.448371055E0
1.520004850E1,-1.061091301E0,2.842205229E0,1.295471678E0,3.298831942E0
1.521007350E1,-1.110361986E0,2.753133423E0,9.352481103E-1,3.112448621E0
1.522009750E1,-1.138036566E0,2.597008672E0,5.755727193E-1,2.893244757E0
1.523012150E1,-1.337207934E0,2.529643486E0,2.368821082E-1,2.871120749E0
1.524014550E1,-1.418529693E0,2.554405274E0,-2.009480444E-1,2.928752791E0
1.525016950E1,-1.313910872E0,2.502899491E0,-6.359732875E-1,2.897469528E0
1.526019350E1,-1.163322558E0,2.317681333E0,-9.218787441E-1,2.752240279E0
1.527021750E1,-9.629431549E-1,2.258173635E0,-9.379144406E-1,2.627982341E0
1.528024250E1,-7.085454199E-1,2.243886548E0,-1.092264854E0,2.594244777E0
1.529026650E1,-3.742751576E-1,2.130267547E0,-1.353320375E0,2.551391336E0
1.530029050E1,6.528708637E-2,2.065859882E0,-1.518915861E0,2.564984376E0
1.531031450E1,5.928893946E-1,2.024003758E0,-1.644733909E0,2.674557660E0
1.532033850E1,1.024727174E0,1.822533849E0,-1.588638207E0,2.625922079E0
1.533036250E1,1.096549547E0,1.409522789E0,-1.349441478E0,2.238340391E0
1.534038650E1,9.712149185E-1,8.207122654E-1,-1.242214214E0,1.777617280E0
1.535041050E1,5.030245605E-1,7.511391699E-2,-1.107703550E0,1.218885952E0
1.536043550E1,-1.527877450E-2,-4.535369432E-1,-1.181330520E0,1.265492393E0
1.537045950E1,-4.034464779E-1,-6.606114078E-1,-1.467487553E0,1.659125134E0
1.538048350E1,-4.079315847E-1,-6.936019832E-1,-1.618237836E0,1.807259135E0
1.539050750E1,3.072653353E-1,-6.486152601E-1,-1.496227641E0,1.659461026E0
1.540053150E1,1.119354127E0,-8.315804851E-1,-1.165818880E0,1.817584503E0
1.541055550E1,1.437254963E0,-1.234558893E0,-1.038846738E0,2.160796158E0
1.542057950E1,1.488021659E0,-1.460961329E0,-1.450418069E0,2.540143507E0
1.543060350E1,1.433016901E0,-1.441678966E0,-2.100918471E0,2.923325863E0
1.544062850E1,1.349134499E0,-1.219064357E0,-2.957766091E0,3.471982438E0
1.545065250E1,1.326951625E0,-9.232437766E-1,-3.723920033E0,4.059650244E0
1.546067650E1,1.507260460E0,-5.803244591E-1,-3.893341060E0,4.215058147E0
1.547070050E1,1.678997569E0,-5.294355565E-1,-3.798336962E0,4.186490000E0
1.548072450E1,1.726784085E0,-7.704419982E-1,-3.333098571E0,3.832089539E0
1.549074850E1,1.464658816E0,-1.571227537E0,-2.718519076E0,3.464726164E0
1.550077250E1,1.049974574E0,-2.385004420E0,-1.502137130E0,3.007841194E0
1.551079750E1,2.218506709E-1,-3.034627740E0,-4.037864935E-1,3.069401697E0
1.552082150E1,-8.206695807E-1,-3.264796368E0,2.707763708E-1,3.377234627E0
1.553084550E1,-1.641472186E0,-3.218011626E0,7.682424219E-1,3.693267683E0
1.554086950E1,-1.965243334E0,-3.326511975E0,1.162426764E0,4.034736579E0
1.555089350E1,-1.984323383E0,-3.179184360E0,1.548783877E0,4.055056594E0
1.556091750E1,-2.190356458E0,-2.567524672E0,1.813241747E0,3.831147346E0
1.557094150E1,-2.970335265E0,-2.150460321E0,1.742961138E0,4.060207471E0
1.558096550E1,-3.812684860E0,-1.906125644E0,1.365644990E0,4.476032512E0
1.559099050E1,-4.075295009E0,-1.760363329E0,8.563858357E-1,4.521095571E0
1.560101450E1,-3.830164819E0,-1.684460623E0,5.946094993E-1,4.226243082E0
1.561103850E1,-3.002086231E0,-1.639035358E0,6.216128182E-1,3.476400601E0
1.562106250E1,-1.980902762E0,-1.845321034E0,9.547859967E-1,2.870679670E0
1.563108629E1,-1.088807688E0,-2.447798839E0,1.809260962E0,3.232745979E0
1.564111029E1,-2.917865860E-1,-3.078557287E0,3.000908894E0,4.309072820E0
1.565113429E1,3.081298462E-1,-3.412223970E0,4.143402500E0,5.376430108E0
1.566115929E1,8.696648625E-1,-3.211042914E0,4.508962237E0,5.603378804E0
1.567118329E1,1.447267150E0,-2.572174963E0,4.039024146E0,5.002437635E0
1.568120729E1,1.852207884E0,-1.625596703E0,3.104953957E0,3.964085993E0
1.569123129E1,1.984307303E0,-5.810079986E-1,2.103570914E0,2.949585794E0
1.570125529E1,1.703328710E0,2.613933438E-1,1.179770483E0,2.088423704E0
1.571127929E1,1.195231106E0,9.195524293E-1,6.783977607E-1,1.653595352E0
1.572130329E1,5.309073007E-1,1.401350720E0,5.352061737E-1,1.591254867E0
1.573132729E1,-2.795673671E-1,1.781656550E0,4.854215178E-1,1.867643441E0
1.574135229E1,-9.891711330E-1,2.145369151E0,5.047209840E-1,2.415742452E0
1.575137629E1,-1.456834949E0,2.565537788E0,5.420206650E-1,2.999689753E0
1.576140029E1,-1.816480227E0,2.905339370E0,5.852118543E-1,3.476071085E0
1.577142429E1,-2.083281368E0,3.097904554E0,6.332242191E-1,3.786561342E0
1.578144829E1,-2.043078545E0,3.476788341E0,7.904757285E-1,4.109389125E0
1.579147229E1,-1.932951208E0,3.563646390E0,8.397021215E-1,4.140166135E0
1.580149629E1,-1.931629153E0,3.393249171E0,7.978385425E-1,3.985207329E0
1.581152129E1,-1.752405561E0,3.182262334E0,7.640895832E-1,3.712351237E0
1.582154529E1,-1.485691251E0,2.858084512E0,7.325428315E-1,3.303414078E0
1.583156929E1,-1.199733754E0,2.485305803E0,6.852832226E-1,2.843539891E0
1.584159329E1,-8.649818274E-1,2.114988772E0,6.624953806E-1,2.379132447E0
1.585161729E1,-5.129826611E-1,1.665929042E0,4.971887469E-1,1.812641011E0
1.586164129E1,6.544613063E-2,1.364823164E0,2.811716238E-1,1.395020769E0
1.587166529E1,1.225286671E0,1.368082402E0,3.191530902E-2,1.836843889E0
1.588168929E1,1.915165440E0,1.396260134E0,-2.969075044E-1,2.388630380E0
1.589171429E1,2.124603057E0,1.322422079E0,-6.056089159E-1,2.574781634E0
1.590173829E1,2.225139205E0,1.248005735E0,-9.161463531E-1,2.710735498E0
1.591176229E1,1.942537133E0,1.140888253E0,-1.392219708E0,2.648273444E0
1.592178629E1,1.431647191E0,9.565723211E-1,-1.915373601E0,2.575519426E0
1.593181029E1,9.806198725E-1,8.564159489E-1,-2.210146945E0,2.565114642E0
1.594183429E1,5.652076524E-1,7.595919049E-1,-2.322480143E0,2.508057728E0
1.595185829E1,2.789534095E-1,6.601155639E-1,-2.383090042E0,2.488510741E0
1.596188329E1,2.273660570E-1,6.222840786E-1,-2.135832342E0,2.236227312E0
1.597190729E1,4.075199407E-1,5.409387839E-1,-1.626174992E0,1.761570996E0
1.598193129E1,7.065772471E-1,4.120696592E-1,-1.135460283E0,1.399400894E0
1.599195529E1,9.971920511E-1,3.214161819E-1,-6.324289978E-1,1.223791970E0
1.600197929E1,1.114739212E0,1.038681847E-1,-2.998721159E-1,1.159032095E0
1.601200329E1,1.212110555E0,-1.027765095E-1,-2.599333306E-1,1.243921358E0
1.602202729E1,1.404838584E0,-2.616775185E-1,-5.510053869E-1,1.531552646E0
1.603205229E1,1.640971956E0,-5.081522763E-1,-1.042944467E0,2.009661877E0
1.604207629E1,1.939759121E0,-6.538368237E-1,-1.566234015E0,2.577451654E0
1.605210029E1,2.321893668E0,-6.410092020E-1,-2.051940000E0,3.164259908E0
1.606212429E1,2.730635969E0,-4.710914540E-1,-2.443970082E0,3.694765177E0
1.607214829E1,3.140516430E0,-2.082824993E-1,-2.883368458E0,4.268493729E0
1.608217229E1,3.540569477E0,5.227644682E-2,-3.344424920E0,4.870681995E0
1.609219629E1,3.876023654E0,1.731559360E-1,-3.649763013E0,5.326754396E0
1.610222029E1,4.045809255E0,-1.257151365E-3,-3.620645049E0,5.429331881E0
1.611224529E1,3.791397779E0,-5.778165883E-1,-3.106133341E0,4.935244012E0
1.612226929E1,3.165750967E0,-1.390747379E0,-2.149506640E0,4.071429264E0
1.613229329E1,2.468701465E0,-2.011719342E0,-9.693619359E-1,3.328838266E0
1.614231729E1,1.704374777E0,-2.431950545E0,1.600522892E-1,2.974036579E0
1.615234129E1,9.290889457E-1,-2.780531722E0,1.028694803E0,3.106891682E0
1.616236529E1,3.789729568E-1,-3.204047306E0,1.789727461E0,3.689534391E0
1.617238929E1,1.717385709E-1,-3.733665295E0,2.514241920E0,4.504571356E0
1.618241429E1,6.965437174E-2,-4.140540288E0,3.123098452E0,5.186778340E0
1.619243829E1,-1.031095085E-1,-4.150245497E0,3.638242829E0,5.520143126E0
1.620246229E1,-6.245642003E-1,-3.572153504E0,3.974077660E0,5.379930701E0
1.621248629E1,-1.370590857E0,-2.684813386E0,4.181338066E0,5.154641621E0
1.622251029E1,-1.924969466E0,-2.070256403E0,4.348766069E0,5.186832882E0
1.623253429E1,-2.259782789E0,-1.789999942E0,4.378881569E0,5.242644546E0
1.624255829E1,-2.499158442E0,-1.551982012E0,4.137124929E0,5.076440068E0
1.625258329E1,-2.719324822E0,-1.308831981E0,3.594717325E0,4.693587252E0
1.626260729E1,-2.923775057E0,-1.157355766E0,2.850800636E0,4.244407758E0
1.627263129E1,-3.123655692E0,-1.240820092E0,1.915521097E0,3.868601873E0
1.628265529E1,-3.329497563E0,-1.502763659E0,8.872738986E-1,3.759136551E0
1.629267929E1,-3.414615481E0,-1.790560105E0,-1.827455159E-1,3.859935271E0
1.630270329E1,-3.059278724E0,-1.847282190E0,-1.166620095E0,3.759340401E0
1.631272729E1,-1.767640189E0,-1.371584299E0,-1.742614106E0,2.835930050E0
1.632275129E1,-5.052453330E-1,-9.642491305E-1,-2.036402779E0,2.309109246E0
1.633277629E1,2.815981051E-1,-6.230705291E-1,-2.162305172E0,2.267835540E0
1.634280029E1,7.463245726E-1,-9.774147213E-2,-1.980187647E0,2.118418486E0
1.635282429E1,8.617158651E-1,6.478270555E-1,-1.562391079E0,1.898236026E0
1.636284829E1,7.655589885E-1,1.425046561E0,-1.166725198E0,1.994513965E0
1.637287229E1,4.940020144E-1,2.246323083E0,-6.635762385E-1,2.393812609E0
1.638289629E1,-3.562562317E-3,2.944711012E0,-9.467577696E-2,2.946234739E0
1.639292029E1,-3.642620932E-1,3.480016589E0,2.710289705E-1,3.509509799E0
1.640294529E1,-6.407965095E-1,3.983533777E0,7.946681821E-1,4.112257171E0
1.641296929E1,-8.144363026E-1,4.342271567E0,1.323739457E0,4.612040221E0
1.642299329E1,-9.768134813E-1,4.466117349E0,1.614249157E0,4.848316109E0
