"Time (s)","Linear Acceleration x (m/s^2)","Linear Acceleration y (m/s^2)","Linear Acceleration z (m/s^2)","Absolute acceleration (m/s^2)"
7.686458339E-3,3.958672439E-1,1.133403817E-1,-2.543106115E-1,4.839739704E-1
1.771045834E-2,6.445018901E-1,-5.859874874E-2,-2.311532986E-1,6.872032793E-1
2.773345834E-2,6.804390237E-1,5.677470982E-2,-4.991990197E-1,8.458252147E-1
3.775745834E-2,7.976588137E-1,8.079185575E-2,-7.249161619E-1,1.080874807E0
4.778145833E-2,6.917846686E-1,-1.151843011E-2,-9.435149038E-1,1.170008152E0
5.780545833E-2,6.506732608E-1,-1.236861527E-2,-1.238575931E0,1.399142241E0
6.782945833E-2,7.876642410E-1,-6.138933241E-2,-1.406437798E0,1.613149369E0
7.785345834E-2,8.353028226E-1,-6.181471735E-2,-1.422721708E0,1.650966058E0
8.787745834E-2,6.769508672E-1,-9.607852399E-3,-1.382568879E0,1.539432198E0
9.790045834E-2,5.396106619E-1,1.978615916E-1,-1.437665437E0,1.548292862E0
1.079244583E-1,6.350620721E-1,1.970698786E-1,-1.392005115E0,1.542666073E0
1.179484583E-1,6.711773995E-1,1.274140450E-1,-1.357367379E0,1.519591933E0
1.279724583E-1,6.343153095E-1,2.229274356E-1,-1.386261395E0,1.540705426E0
1.379964583E-1,6.385257433E-1,2.645660430E-1,-1.300932977E0,1.473138462E0
1.480204583E-1,6.409196665E-1,2.132283667E-1,-1.238520382E0,1.410736365E0
1.580444583E-1,6.328426883E-1,1.877780682E-1,-1.182034525E0,1.353867087E0
1.680674583E-1,4.832740548E-1,2.566556373E-1,-1.086827236E0,1.216807038E0
1.780914583E-1,2.684391656E-1,3.098799178E-1,-1.169803319E0,1.239566438E0
1.881157083E-1,2.853751141E-1,1.693874055E-1,-1.304173504E0,1.345733844E0
1.981397083E-1,5.049841817E-1,7.006601572E-2,-1.376269673E0,1.467663614E0
2.081637083E-1,6.108255094E-1,6.488596737E-2,-1.514115443E0,1.633971716E0
2.181877083E-1,6.761008282E-1,9.985874891E-2,-1.702316265E0,1.834384029E0
2.282117083E-1,4.505225573E-1,2.200014889E-1,-1.498133249E0,1.579802032E0
2.382357083E-1,2.483034745E-1,2.070335340E-1,-1.204134661E0,1.246778963E0
2.482587083E-1,2.184633788E-1,1.735804439E-1,-1.149257373E0,1.182644886E0
2.582827083E-1,1.048326829E-1,2.152485797E-1,-1.270627443E0,1.292987216E0
2.683067083E-1,1.018761845E-1,1.903154674E-1,-1.641823896E0,1.655954238E0
2.783307083E-1,3.142755622E-1,2.416098744E-2,-2.000367558E0,2.025048950E0
2.883547083E-1,5.122602376E-1,-1.711415702E-1,-2.171480477E0,2.237638811E0
2.983787083E-1,6.671173123E-1,-9.409427136E-2,-2.221888154E0,2.321785134E0
3.084027083E-1,6.587791827E-1,-1.549667099E-1,-2.328313910E0,2.424675310E0
3.184257083E-1,6.123791876E-1,-3.621101716E-1,-2.325320136E0,2.431716632E0
3.284497083E-1,1.698089898E-2,-6.652289540E-1,-2.547922466E0,2.633386946E0
3.384737083E-1,-3.671633354E-1,-9.452404171E-1,-1.433368903E0,1.755800323E0
3.484977083E-1,1.913109559E-1,-1.063849725E0,-1.010451490E-1,1.085627119E0
3.585217083E-1,1.123784855E0,-7.546863833E-1,1.476451188E-1,1.361705922E0
3.685457083E-1,1.071395849E0,3.368142396E-1,-4.223239213E-1,1.199870990E0
3.785697083E-1,6.153484038E-1,5.100070131E-1,-8.742827010E-1,1.184538329E0
3.885937083E-1,9.663971052E-1,1.065229668E-1,-3.733072972E-1,1.041455158E0
3.986167083E-1,1.315225326E0,-3.688325693E-1,-1.008627158E0,1.697994072E0
4.086407083E-1,1.286335988E0,-2.242714182E-1,-1.647293966E0,2.102031245E0
4.186647083E-1,8.564130253E-1,2.270450449E-1,-2.262643831E0,2.429927947E0
4.286887083E-1,1.289194107E-1,5.365408006E-1,-2.492143537E0,2.552503801E0
4.387127083E-1,-7.644410008E-1,3.950361353E-1,-2.056635314E0,2.229388348E0
4.487367083E-1,-1.519523533E0,-2.934030488E-2,-1.068910198E0,1.858058565E0
4.587607083E-1,-1.862239367E0,-5.334325670E-1,-1.016304553E-1,1.939797545E0
4.687837083E-1,-1.365873324E0,-8.515325005E-1,3.963447422E-1,1.657650956E0
4.788077083E-1,-1.332095128E-1,-7.127212089E-1,5.201893544E-1,8.923638610E-1
4.888317083E-1,1.350495147E0,2.273691268E-1,6.812193346E-1,1.529573026E0
4.988557083E-1,1.523860413E0,4.522834463E-1,2.709102720E-1,1.612483566E0
5.088797083E-1,8.869442618E-1,2.794739579E-1,-1.172559696E-1,9.372965268E-1
5.189037083E-1,4.297177255E-1,2.313939115E-1,6.338206351E-2,4.921562271E-1
5.289277083E-1,1.759263468E-1,2.508956914E-1,4.322144866E-2,3.094621480E-1
5.389507083E-1,5.179288208E-2,2.891622826E-1,-3.768302447E-1,4.778057781E-1
5.489747083E-1,1.336024457E-1,2.917343996E-1,-7.293197000E-1,7.967846624E-1
5.589987083E-1,1.605698043E-1,1.388926410E-1,-9.114084274E-1,9.358093552E-1
5.690227083E-1,3.322154045E-1,-5.079256967E-3,-9.349288523E-1,9.922120906E-1
5.790467083E-1,6.086489564E-1,-7.052246399E-2,-7.379156917E-1,9.591384354E-1
5.890707083E-1,5.587979347E-1,8.473156348E-2,-5.617186189E-2,5.679699355E-1
5.990947083E-1,5.564561248E-2,1.198930639E-1,6.502407861E-1,6.635388917E-1
6.091187083E-1,-1.702264810E-1,4.816341300E-1,1.047733337E0,1.165630145E0
6.191417083E-1,-1.595371860E-1,6.843405052E-1,1.620807248E0,1.766575834E0
6.291657083E-1,-2.338178748E-1,6.852490164E-1,2.185996774E0,2.302785034E0
6.391897083E-1,-1.500506634E-1,6.552072649E-1,2.188024004E0,2.288943163E0
6.492137083E-1,3.996700537E-1,4.945022437E-1,1.896538550E0,2.000281753E0
6.592377083E-1,1.002646042E0,2.313315656E-1,1.450309749E0,1.778260877E0
6.692617083E-1,2.124288769E0,6.210362097E-1,2.012442643E0,2.991356572E0
6.792857083E-1,2.687402533E0,8.645264755E-1,2.177753370E0,3.565409954E0
6.893097083E-1,2.112886114E0,7.239408463E-1,1.815458426E0,2.878240326E0
6.993327083E-1,1.475664153E0,8.666047952E-1,1.713921234E0,2.422006309E0
7.093567083E-1,1.054450618E0,8.993342194E-1,1.815006436E0,2.283619169E0
7.193807083E-1,1.002359528E0,9.452072342E-1,1.895557679E0,2.343348086E0
7.294047083E-1,1.281461164E0,1.136241617E0,1.673244494E0,2.394354790E0
7.394287083E-1,1.310582052E0,1.100372384E0,1.417792506E0,2.222291675E0
7.494527083E-1,1.142876891E0,9.409688799E-1,1.295292168E0,1.967071890E0
7.594767083E-1,8.815045971E-1,8.238285390E-1,1.229391417E0,1.722540877E0
7.694997083E-1,5.098029453E-1,6.706154090E-1,1.293638576E0,1.543737294E0
7.795237083E-1,1.837107450E-1,5.087366689E-1,1.287274174E0,1.396294179E0
7.895477083E-1,1.533496624E-1,1.620894957E-1,7.967380965E-1,8.273939315E-1
7.995717083E-1,-3.940859628E-1,2.436705063E-1,3.995700663E-1,6.118294694E-1
8.095957083E-1,-1.310521826E0,8.881270073E-2,2.740323928E-1,1.341808073E0
8.196197083E-1,-1.737532291E0,-3.068430202E-1,5.001810595E-2,1.765126883E0
8.296437083E-1,-1.650470758E0,-1.956272243E-1,-2.156315723E-1,1.675953672E0
8.396677083E-1,-1.746176814E0,-1.984642933E-1,-1.230360885E-1,1.761720586E0
8.496907083E-1,-1.282737612E0,-1.553951646E-1,1.075072432E0,1.680876013E0
8.597147083E-1,-1.944737148E-1,-9.393266894E-2,1.865148357E0,1.877610654E0
8.697387083E-1,-7.908768475E-2,-3.686719170E-1,1.005807631E0,1.074161457E0
8.797627083E-1,-4.826812202E-1,-3.761085521E-1,7.505240428E-1,9.683620925E-1
8.897867083E-1,-5.919001919E-1,-4.810369831E-1,7.596894072E-1,1.076508436E0
8.998107083E-1,-3.033634883E-1,-7.962975088E-1,6.008537409E-1,1.042662144E0
9.098347083E-1,1.444344127E-1,-1.090149843E0,5.391220540E-1,1.224720609E0
9.198577083E-1,5.254670513E-1,-1.156863723E0,6.478175537E-1,1.426224694E0
9.298817083E-1,6.681087077E-1,-1.151229054E0,8.421269618E-1,1.575079490E0
9.399057083E-1,6.530644065E-1,-1.128961249E0,9.348136622E-1,1.604656724E0
9.499297083E-1,4.954246420E-1,-9.491622908E-1,8.998705553E-1,1.398614188E0
9.599537083E-1,2.543626517E-1,-7.267726529E-1,7.683514725E-1,1.087778853E0
9.699777083E-1,1.367494172E-1,-4.059226276E-1,6.845148253E-1,8.074863026E-1
9.800017083E-1,2.523389304E-1,-2.480292401E-1,8.593791716E-1,9.293686030E-1
9.900257083E-1,1.368640226E-1,-2.289411508E-1,9.585786469E-1,9.949969013E-1
1.000048708E0,-1.420896792E-1,5.498356149E-2,9.148337263E-1,9.274337797E-1
1.010072708E0,-4.407642853E-1,4.830311760E-1,9.993957205E-1,1.194313225E0
1.020096708E0,-6.435626811E-1,7.505671661E-1,9.282495779E-1,1.356160490E0
1.030120708E0,-1.182320454E0,9.576634115E-1,5.904611921E-1,1.632067794E0
1.040144708E0,-1.664449112E0,1.110579649E0,1.647182576E-1,2.007712656E0
1.050168708E0,-1.833167011E0,1.159410039E0,-1.425254430E-1,2.173717192E0
1.060192708E0,-1.831718071E0,1.246473911E0,-3.737645495E-1,2.246906371E0
1.070215708E0,-2.879854281E0,1.243051389E0,-5.542911932E-1,3.185274896E0
1.080239708E0,-3.454452562E0,1.691224974E0,-3.136366077E-1,3.858996286E0
1.090263708E0,-4.132291621E0,2.328614165E0,-3.889298880E-1,4.759153751E0
1.100287708E0,-4.900184818E0,2.914910093E0,-5.014626230E-1,5.723633187E0
1.110311708E0,-5.370853518E0,3.150627728E0,-7.255168171E-1,6.268883254E0
1.120335708E0,-5.954977498E0,3.042875823E0,-7.927520496E-1,6.734189342E0
1.130359708E0,-6.103647049E0,2.849184758E0,-1.029221052E0,6.814077858E0
1.140383708E0,-5.812485530E0,1.819067620E0,-6.213457467E-1,6.122096502E0
1.150406708E0,-6.226853730E0,1.798128156E0,-1.006167235E0,6.558913381E0
1.160430708E0,-6.224263414E0,1.582278483E0,-1.611509737E0,6.621330974E0
1.170454708E0,-6.291814542E0,1.061814309E0,-1.969389156E0,6.677789567E0
1.180478708E0,-6.603068263E0,1.188426116E0,-2.409276943E0,7.128638195E0
1.190502417E0,-6.824794680E0,1.451945800E0,-2.699103981E0,7.481385656E0
1.200526417E0,-6.578485984E0,1.448004192E0,-2.891960941E0,7.330527407E0
1.210550417E0,-5.804071387E0,1.215442007E0,-2.595825781E0,6.473241493E0
1.220573417E0,-4.511506945E0,7.472498944E-1,-2.007604803E0,4.994252133E0
1.230597417E0,-3.158707411E0,8.953315079E-2,-1.293919973E0,3.414627006E0
1.240621417E0,-1.191657287E0,-8.539174336E-1,-1.050095612E0,1.803308867E0
1.250645417E0,8.843212008E-1,-1.889459326E0,-8.385727318E-1,2.248396041E0
1.260669417E0,2.583809752E0,-2.021065824E0,-7.220178433E-1,3.358882205E0
1.270693417E0,3.376377030E0,-1.620975941E0,-4.581794862E-1,3.773249699E0
1.280717417E0,3.722836837E0,-1.006176298E0,-1.408303352E-1,3.858981477E0
1.290741417E0,3.954121698E0,-6.132428214E-1,7.882002845E-2,4.002169131E0
1.300764417E0,3.991809341E0,-2.520927626E-1,9.288433626E-2,4.000839922E0
1.310788417E0,4.215428503E0,-1.989556056E-1,3.314026415E-2,4.220251067E0
1.320812417E0,4.659956641E0,-4.980479953E-1,7.193303168E-2,4.687048331E0
1.330836417E0,5.093754553E0,-8.242118239E-1,1.988075249E-1,5.163834332E0
1.340860417E0,5.360440212E0,-1.189482708E0,4.748126221E-1,5.511318844E0
1.350884417E0,5.743205965E0,-1.386475696E0,7.488581711E-1,5.955461206E0
1.360908417E0,5.880318494E0,-1.296525931E0,9.049131940E-1,6.089170138E0
1.370932417E0,5.813502946E0,-1.067117441E0,9.604917097E-1,5.988163363E0
1.380955417E0,5.769003296E0,-1.008235687E0,8.976465668E-1,5.924838191E0
1.390979417E0,6.134485849E0,-1.166230670E0,8.598231214E-1,6.303277434E0
1.401003417E0,7.443872146E0,-1.832512415E0,8.883369224E-1,7.717413865E0
1.411027417E0,9.238312463E0,-2.925611959E0,1.024214520E0,9.744467040E0
1.421051417E0,1.153980286E1,-4.146089003E0,1.104051964E0,1.231162194E1
1.431075417E0,1.344034441E1,-4.874286038E0,1.436184192E0,1.436886033E1
1.441099417E0,1.400686476E1,-4.866250210E0,1.815857499E0,1.493887513E1
1.451122417E0,1.421505838E1,-4.862738664E0,1.967360026E0,1.515204995E1
1.461146417E0,1.449657375E1,-4.548236522E0,1.739424450E0,1.529257020E1
1.471170417E0,1.464611161E1,-4.271862320E0,1.440801299E0,1.532427165E1
1.481194417E0,1.497152437E1,-4.430547274E0,1.276093859E0,1.566539839E1
1.491218417E0,1.645994247E1,-5.141456138E0,1.236012950E0,1.728849344E1
1.501242417E0,1.866606419E1,-6.303866823E0,1.606336413E0,1.976716990E1
1.511266417E0,2.056595319E1,-7.312347801E0,1.869211587E0,2.190714069E1
1.521290417E0,2.118607380E1,-7.634546340E0,2.297547031E0,2.263657976E1
1.531313417E0,2.090874270E1,-7.542085488E0,2.644836558E0,2.238422961E1
1.541337417E0,2.026970986E1,-7.527788461E0,3.274578760E0,2.186896438E1
1.551361417E0,1.945849406E1,-7.952343680E0,4.280511521E0,2.145216865E1
1.561385417E0,1.847907023E1,-8.514839394E0,4.843658030E0,2.091505557E1
1.571409417E0,1.711264142E1,-8.894415491E0,4.731514281E0,1.985800470E1
1.581433417E0,1.473361753E1,-8.863017697E0,3.931020518E0,1.763761579E1
1.591457417E0,1.152368325E1,-8.265967278E0,2.674641570E0,1.443174273E1
1.601481417E0,7.465054854E0,-6.929230630E0,1.640453454E0,1.031660645E1
1.611504417E0,3.457738112E0,-5.129397426E0,1.464572716E0,6.357015341E0
1.621528417E0,9.696262300E-2,-3.170915520E0,2.034074417E0,3.768496480E0
1.631552417E0,-2.887241068E0,-1.224172484E0,2.582454368E0,4.062490593E0
1.641576417E0,-5.868636927E0,4.839869034E-1,2.220930964E0,6.293463041E0
1.651600417E0,-8.093943948E0,1.700349846E0,1.659839167E0,8.435531061E0
1.661624417E0,-1.009909336E1,2.388590810E0,1.349531525E0,1.046509857E1
1.671648417E0,-1.190716003E1,2.992624267E0,7.950429887E-1,1.230318468E1
1.681672417E0,-1.343007670E1,3.381639524E0,1.980627358E-1,1.385069222E1
1.691695417E0,-1.497716342E1,3.589775843E0,-1.976463958E-1,1.540262896E1
1.701719417E0,-1.679309810E1,4.455128969E0,-5.011823952E-1,1.738123994E1
1.711743417E0,-1.860503797E1,5.280627472E0,-5.199670871E-1,1.934690751E1
1.721767417E0,-1.933148669E1,5.103873160E0,-5.662700915E-1,2.000191392E1
1.731791417E0,-1.889268356E1,4.379261638E0,-2.238723091E-1,1.939488446E1
1.741815417E0,-1.766248318E1,3.548272306E0,2.106985688E-1,1.801660185E1
1.751839417E0,-1.642493168E1,2.634213336E0,4.370372701E-1,1.664056676E1
1.761862417E0,-1.525106805E1,1.785473173E0,2.617236384E-1,1.535745716E1
1.771886417E0,-1.378983366E1,1.184973481E0,2.368239284E-2,1.384067323E1
1.781910417E0,-1.228678933E1,1.105984761E0,-1.604943021E-1,1.233750999E1
1.791934417E0,-1.102259909E1,1.221093487E0,-6.852819800E-2,1.109024148E1
1.801958417E0,-9.892670274E0,1.345826876E0,3.026881349E-1,9.988383014E0
1.811982417E0,-8.417680305E0,1.719386334E0,5.521921889E-1,8.609212931E0
1.822006417E0,-6.768339813E0,2.230896520E0,7.871917860E-1,7.169867085E0
1.832030417E0,-5.591432127E0,2.645079509E0,1.141479260E0,6.289954988E0
1.842053417E0,-5.025363180E0,3.015165283E0,1.691262835E0,6.099661200E0
1.852077417E0,-5.079750472E0,3.428036888E0,2.183999512E0,6.505778633E0
1.862101417E0,-5.185768678E0,3.570735555E0,2.562846315E0,6.797832773E0
1.872125417E0,-4.690697207E0,3.001568168E0,2.629236771E0,6.158322641E0
1.882149417E0,-4.219620371E0,2.239137878E0,2.818652644E0,5.546506761E0
1.892173417E0,-4.251029275E0,1.792957025E0,2.997826535E0,5.502082217E0
1.902197417E0,-4.659425129E0,1.628601587E0,2.868458058E0,5.708821007E0
1.912220417E0,-5.052121793E0,1.463479725E0,2.114880599E0,5.669076421E0
1.922244417E0,-5.466391175E0,1.381129002E0,1.401314760E0,5.809701615E0
1.932268417E0,-6.013982336E0,1.397379291E0,7.876434834E-1,6.224229645E0
1.942292417E0,-6.844454774E0,1.346549007E0,3.936380661E-1,6.986752200E0
1.952316417E0,-7.557259013E0,1.356924306E0,4.085741937E-1,7.688975240E0
1.962340417E0,-8.100488151E0,1.332374187E0,2.312632263E-1,8.212588626E0
1.972364417E0,-8.428140973E0,1.266807165E0,3.103386319E-1,8.528462389E0
1.982388417E0,-8.645425261E0,1.001961040E0,4.833121347E-1,8.716702042E0
1.992411417E0,-9.054476003E0,1.042296742E0,5.328158319E-1,9.129830825E0
2.002435417E0,-9.571531835E0,1.289147329E0,4.235676241E-1,9.667240145E0
2.012459417E0,-1.022141477E1,1.541067307E0,3.176757181E-1,1.034181446E1
2.022483417E0,-1.070590570E1,2.072792341E0,2.084890522E-2,1.090473841E1
2.032507417E0,-1.088398149E1,2.689919760E0,-1.797246981E-1,1.121289536E1
2.042531417E0,-1.106306533E1,2.732184896E0,-2.703620955E-2,1.139548067E1
2.052555417E0,-1.142639845E1,2.790127003E0,4.025574088E-2,1.176218563E1
2.062579417E0,-1.223736399E1,2.898619750E0,-7.939685628E-2,1.257622271E1
2.072602417E0,-1.314077869E1,2.802023455E0,-4.341681875E-2,1.343626752E1
2.082626417E0,-1.405536391E1,2.712061119E0,1.605563557E-1,1.431552683E1
2.092650417E0,-1.479492325E1,2.535264706E0,5.603317324E-1,1.502102835E1
2.102674417E0,-1.516085955E1,2.455486758E0,6.284458745E-1,1.537127261E1
2.112698417E0,-1.462658659E1,3.019960585E0,1.911653602E-1,1.493632289E1
2.122722417E0,-1.428843158E1,4.033357024E0,-1.131764842E0,1.488986695E1
2.132746417E0,-1.415404854E1,4.273962640E0,-1.164984044E0,1.483108339E1
2.142769417E0,-1.313463560E1,3.698293149E0,-2.781907133E-1,1.364820189E1
2.152793417E0,-1.053051964E1,2.392683276E0,9.334599587E-1,1.083919391E1
2.162817417E0,-5.757176133E0,5.940369107E-1,1.698215028E0,6.031740309E0
2.172841417E0,-4.053903848E-1,-9.698804377E-1,2.154923501E0,2.397645662E0
2.182865417E0,6.281692427E0,-2.578319217E0,2.222980413E0,7.144860506E0
2.192889417E0,1.030677944E1,-3.222741439E0,2.637856736E0,1.111638669E1
2.202913417E0,1.165194076E1,-2.494870971E0,4.473453265E0,1.272807482E1
2.212937417E0,1.668575375E1,-4.141184651E0,5.547645253E0,1.806488739E1
2.222960417E0,2.395062567E1,-5.817152778E0,4.963852226E0,2.514182900E1
2.232984417E0,3.079554237E1,-7.477800615E0,3.908349109E0,3.193052027E1
2.243008417E0,3.458190219E1,-8.014414798E0,2.201702396E0,3.556664585E1
2.253032417E0,3.518836136E1,-7.423795731E0,9.417958955E-1,3.597527620E1
2.263056417E0,3.092796777E1,-6.039793700E0,1.318106250E0,3.153974798E1
2.273080417E0,2.386084284E1,-3.272218239E0,1.875901387E0,2.415711571E1
2.283104417E0,1.736264381E1,-1.395473830E0,1.694311865E-1,1.741945619E1
2.293128417E0,1.283169604E1,-5.563804033E-1,-2.944181839E0,1.317688086E1
2.303151417E0,1.150818462E1,-1.245007137E0,-5.460239904E0,1.279853804E1
2.313175417E0,1.042453769E1,-1.843727083E0,-7.380520488E0,1.290513069E1
2.323199417E0,8.819996223E0,-1.966005518E0,-7.941075511E0,1.202988742E1
2.333223417E0,8.574494442E0,-2.994509117E0,-6.313871409E0,1.106137478E1
2.343247417E0,8.521835003E0,-3.822351769E0,-4.813535514E0,1.050724364E1
2.353271417E0,7.883836532E0,-4.051961988E0,-3.424297886E0,9.502583355E0
2.363295417E0,7.431114106E0,-4.497429773E0,-2.197033979E0,8.959647857E0
2.373318417E0,7.330094100E0,-4.743106971E0,-1.925855319E0,8.940708136E0
2.383342417E0,6.539800220E0,-4.426746876E0,-1.903687356E0,8.123367551E0
2.393366417E0,4.770982987E0,-3.985377112E0,-1.737829914E0,6.454886691E0
2.403390417E0,3.242769907E0,-3.541070876E0,-1.586804520E0,5.056944551E0
2.413414417E0,2.141888303E0,-3.048131885E0,-1.247061410E0,3.928607342E0
2.423438417E0,1.293706988E0,-2.510160855E0,-9.102769911E-1,2.967016935E0
2.433462417E0,2.527616841E-1,-1.862335408E0,-6.422371173E-1,1.986114336E0
2.443486417E0,-7.003771520E-1,-7.245363852E-1,-5.926574063E-1,1.169069686E0
2.453509417E0,-1.266549010E0,1.763835990E-1,-3.391256440E-1,1.322975348E0
2.463533417E0,-1.788547493E0,8.105898580E-1,-1.162040738E-1,1.967094670E0
2.473557417E0,-2.350543270E0,1.377076881E0,-2.800921547E-1,2.738584674E0
2.483581417E0,-3.136216096E0,1.800285779E0,-5.770511878E-1,3.661948710E0
2.493605417E0,-3.870935699E0,2.159994791E0,-7.752361304E-1,4.500079082E0
2.503629417E0,-4.641056101E0,2.452878900E0,-9.185250735E-1,5.329137354E0
2.513653417E0,-5.211606939E0,2.744374879E0,-1.058205115E0,5.984332747E0
2.523676417E0,-5.632836261E0,2.964976000E0,-1.108021054E0,6.461241187E0
2.533700417E0,-5.975204186E0,3.133332249E0,-1.115147055E0,6.838449313E0
2.543724417E0,-6.194442029E0,3.213298478E0,-1.139688404E0,7.070734673E0
2.553748417E0,-6.394542519E0,3.246033822E0,-1.122012344E0,7.258499935E0
2.563772417E0,-6.498331767E0,3.173121674E0,-9.980086879E-1,7.300208096E0
2.573796417E0,-6.498648101E0,3.035767363E0,-9.394499195E-1,7.234008348E0
2.583820417E0,-6.511380413E0,2.862722231E0,-7.934472835E-1,7.157011391E0
2.593844417E0,-6.528896917E0,2.580023388E0,-6.358453797E-1,7.048922966E0
2.603867417E0,-6.476972473E0,2.430868080E0,-6.573520236E-1,6.949273611E0
2.613891417E0,-6.094608423E0,2.135171168E0,-7.708932571E-1,6.503651602E0
2.623915417E0,-5.388241968E0,1.518232468E0,-8.263922507E-1,5.658719421E0
2.633939417E0,-4.128133666E0,8.362522642E-1,-8.126922244E-1,4.289670624E0
2.643963417E0,-2.471839666E0,-1.819004470E-1,-7.623080096E-1,2.593104820E0
2.653987417E0,-1.165968130E0,-1.040500477E0,-6.141922630E-1,1.679093523E0
2.664011417E0,-3.692563462E-1,-1.513802763E0,-4.719417854E-1,1.628090324E0
2.674034417E0,2.910241091E-1,-1.896790565E0,-3.628379307E-1,1.952987671E0
2.684058417E0,1.065522906E0,-2.090414387E0,-1.414470702E-1,2.350569855E0
2.694082417E0,1.703513775E0,-2.025406066E0,9.539732337E-3,2.646567574E0
2.704106417E0,2.253000603E0,-1.805121134E0,2.118474736E-1,2.894711277E0
2.714130417E0,2.741495125E0,-1.581262967E0,4.546864327E-1,3.197331363E0
2.724154417E0,3.074763029E0,-1.262070043E0,5.856115115E-1,3.374896934E0
2.734178417E0,3.125461897E0,-8.085632131E-1,6.116369567E-1,3.285785493E0
2.744201417E0,2.916615141E0,-3.742383201E-1,5.944799104E-1,3.000017427E0
2.754225417E0,2.590795421E0,2.717128024E-2,5.813727918E-1,2.655363161E0
2.764249417E0,2.223200853E0,3.770527312E-1,6.095389757E-1,2.335878541E0
2.774273417E0,1.830887766E0,6.089816630E-1,5.892548385E-1,2.017481089E0
2.784297417E0,1.490518420E0,7.330367750E-1,5.633317926E-1,1.753947200E0
2.794321417E0,1.199264515E0,7.787000209E-1,5.195729848E-1,1.521369510E0
2.804345417E0,9.107365823E-1,8.728808311E-1,4.603857869E-1,1.342876443E0
2.814369417E0,7.334004718E-1,8.292974398E-1,3.780669308E-1,1.169848323E0
2.824392417E0,5.527343720E-1,6.980578539E-1,3.246292269E-1,9.477257981E-1
2.834416417E0,3.468726200E-1,5.913914841E-1,2.632439145E-1,7.344125956E-1
2.844440417E0,1.404220533E-1,5.031847742E-1,2.063470709E-1,5.616870870E-1
2.854464417E0,-2.073013365E-2,3.885007024E-1,1.639693755E-1,4.221948487E-1
2.864488417E0,-2.308182532E-1,3.150775078E-1,1.123175575E-1,4.064063676E-1
2.874512417E0,-4.176145738E-1,2.492504311E-1,1.259724140E-2,4.865042653E-1
2.884536417E0,-5.904758102E-1,1.642213905E-1,-7.495838106E-2,6.174537281E-1
2.894559417E0,-7.614174056E-1,1.354241458E-1,-1.074459498E-1,7.807949775E-1
2.904583417E0,-8.632168454E-1,3.102971166E-2,-1.852070475E-1,8.834069366E-1
2.914607417E0,-9.452176130E-1,-3.388636887E-2,-2.660635149E-1,9.825346894E-1
2.924631417E0,-1.028649779E0,-1.390906423E-2,-2.973671687E-1,1.070859964E0
2.934655417E0,-1.051244590E0,-5.237409532E-2,-3.056520885E-1,1.096029850E0
2.944679417E0,-9.644771719E-1,-1.082869256E-1,-3.325003101E-1,1.025913607E0
2.954703417E0,-8.673139894E-1,-9.812651128E-2,-3.662093621E-1,9.465577982E-1
2.964727417E0,-7.655244899E-1,-9.880391121E-2,-3.528029392E-1,8.486812543E-1
2.974750417E0,-5.960265720E-1,-1.096013796E-1,-3.376264910E-1,6.937231323E-1
2.984774417E0,-3.975545311E-1,-1.537238842E-1,-3.076037429E-1,5.256431303E-1
2.994798417E0,-2.276052082E-1,-1.897304535E-1,-2.886940668E-1,4.136980057E-1
3.004822417E0,9.975934625E-3,-2.312737513E-1,-2.454182390E-1,3.373680176E-1
3.014846417E0,3.469264144E-1,-2.689681193E-1,-1.602131242E-1,4.673007932E-1
3.024870417E0,5.274533504E-1,-2.443069026E-1,-5.746278092E-2,5.841188841E-1
3.034894417E0,5.119722623E-1,-1.284697598E-1,1.624283418E-3,5.278472457E-1
3.044917417E0,4.362268460E-1,-2.142536759E-2,5.170634329E-2,4.398027438E-1
3.054941417E0,3.972259176E-1,7.936571985E-2,1.435917559E-1,4.297742889E-1
3.064965417E0,4.211205643E-1,1.256973025E-1,1.714373662E-1,4.717341541E-1
3.074989417E0,3.423509681E-1,2.659927636E-2,1.467100760E-1,3.734107032E-1
3.085013417E0,2.164598304E-1,-3.942514390E-2,9.576555178E-2,2.399588320E-1
3.095037417E0,1.415108049E-1,-8.283838123E-2,7.895422205E-3,1.641640734E-1
3.105061417E0,4.963058174E-2,-1.229613903E-1,-4.814363480E-2,1.410691594E-1
3.115085417E0,-7.329426348E-2,-1.482406577E-1,-7.201145746E-2,1.803690430E-1
3.125108417E0,-1.499267024E-1,-1.413947377E-1,-3.336260453E-2,2.087667390E-1
3.135132417E0,-2.430962366E-1,-1.665544295E-1,-2.600841522E-3,2.946912327E-1
3.145156417E0,-3.214354777E-1,-1.957326204E-1,1.348192513E-2,3.765817140E-1
3.155180417E0,-3.294806617E-1,-2.239097679E-1,2.615634978E-2,3.992207976E-1
3.165204417E0,-4.868964779E-1,-2.320444143E-1,4.587067589E-3,5.393828247E-1
3.175228417E0,-6.636566377E-1,-1.657267562E-1,-1.071975893E-1,6.923848739E-1
3.185252417E0,-7.156231821E-1,-1.219229248E-1,-2.246659590E-1,7.599056069E-1
3.195278917E0,-7.031960946E-1,-6.808994919E-2,-2.811791521E-1,7.603832614E-1
3.205302917E0,-7.381156665E-1,1.162952721E-2,-2.950575185E-1,7.949898882E-1
3.215326917E0,-8.509295064E-1,1.227681398E-1,-3.131992359E-1,9.150119138E-1
3.225350917E0,-9.702343404E-1,2.411888748E-1,-3.081031682E-1,1.046161704E0
3.235374917E0,-1.115269262E0,3.260357746E-1,-2.816937802E-1,1.195607059E0
3.245398917E0,-1.413363240E0,5.120623094E-1,-2.566214311E-1,1.525010825E0
3.255422917E0,-1.868936768E0,7.827588657E-1,-1.793738651E-1,2.034161023E0
3.265445917E0,-2.377111264E0,1.063940941E0,-1.128290427E-1,2.606790878E0
3.275469917E0,-2.980160927E0,1.326716567E0,-6.141038239E-2,3.262714703E0
3.285493917E0,-3.635857165E0,1.596431668E0,-1.003686992E-1,3.972168837E0
3.295517917E0,-4.338727570E0,1.866470413E0,-2.404883784E-1,4.729281487E0
3.305541917E0,-5.063068950E0,1.969188158E0,-3.886989230E-1,5.446416808E0
3.315565917E0,-5.580495495E0,1.999236414E0,-5.178551459E-1,5.950382354E0
3.325589917E0,-5.953450205E0,1.991011428E0,-6.463179622E-1,6.310738686E0
3.335612917E0,-6.337569004E0,1.948195192E0,-7.726839669E-1,6.675124411E0
3.345636917E0,-6.732581751E0,1.958513188E0,-8.802369207E-1,7.066699935E0
3.355660917E0,-6.848619161E0,2.006480237E0,-9.612623727E-1,7.200942487E0
3.365684917E0,-6.574254354E0,1.950646783E0,-9.801420088E-1,6.927230438E0
3.375708917E0,-6.289003201E0,1.768709498E0,-1.004864329E0,6.609814435E0
3.385732917E0,-5.874626815E0,1.582002640E0,-1.023970325E0,6.169480350E0
3.395756917E0,-5.478242311E0,1.130413112E0,-9.585149123E-1,5.675184884E0
3.405779917E0,-5.110547172E0,6.976612665E-1,-1.008721372E0,5.255658136E0
3.415803917E0,-4.195550308E0,2.718405640E-1,-1.022151768E0,4.326815679E0
3.425827917E0,-3.629277878E0,1.213547216E-1,-8.577917987E-1,3.731245322E0
3.435851917E0,-3.638963206E0,1.269845670E-1,-4.686905873E-1,3.671219029E0
3.445875917E0,-3.152609349E0,2.224229671E-1,-2.173047531E-1,3.167907676E0
3.455899917E0,-2.074251221E0,1.737679933E-1,-1.485783345E-1,2.086813112E0
3.465923917E0,-1.517763521E0,1.129030100E-1,4.951597631E-2,1.522762302E0
3.475947917E0,-1.101971524E0,-5.125552297E-2,5.112915002E-2,1.104347119E0
3.485970917E0,-4.436130488E-1,-1.948040825E-1,2.761464536E-2,4.852872719E-1
3.495994917E0,1.776939601E-1,-2.701339079E-1,1.711421549E-2,3.237906238E-1
3.506018917E0,9.542381126E-1,-2.842034782E-1,1.792954393E-1,1.011676256E0
3.516042917E0,1.819406759E0,-2.365983720E-1,3.643487781E-1,1.870553334E0
3.526066917E0,2.857772271E0,-1.698145446E-1,4.610225487E-1,2.899696729E0
3.536090917E0,3.531286145E0,-1.430986163E-1,5.949968408E-1,3.583919683E0
3.546114917E0,3.813834130E0,-9.728860527E-2,6.059264928E-1,3.862893056E0
3.556137917E0,3.723419804E0,2.167679787E-2,7.716382655E-1,3.802597866E0
3.566161917E0,3.437268180E0,1.367767529E-1,8.568509086E-1,3.545097163E0
3.576185917E0,3.316347175E0,2.152456561E-1,8.596382763E-1,3.432705528E0
3.586209917E0,3.360158608E0,3.623659873E-1,8.552184391E-1,3.486168894E0
3.596233917E0,3.533283554E0,4.147859833E-1,7.837502611E-1,3.642856648E0
3.606257917E0,3.790582092E0,4.505127633E-1,7.518928029E-1,3.890606268E0
3.616281917E0,3.908895823E0,3.676036307E-1,7.948055917E-1,4.005785181E0
3.626304917E0,4.018457442E0,2.337485853E-1,8.349666077E-1,4.110937588E0
3.636328917E0,4.537142308E0,1.952955410E-2,7.929549479E-1,4.605954762E0
3.646352917E0,6.131714269E0,-8.223120636E-1,5.325099860E-1,6.209483384E0
3.656376917E0,8.210659634E0,-2.105244534E0,3.377082789E-1,8.482984915E0
3.666400917E0,9.681247820E0,-3.100733437E0,1.873091215E-1,1.016740832E1
3.676424917E0,1.037390080E1,-3.548599166E0,6.452990849E-2,1.096423905E1
3.686448917E0,1.073016697E1,-3.404319119E0,1.743000168E-2,1.125727213E1
3.696472917E0,1.145789623E1,-3.102773530E0,4.662686706E-2,1.187066821E1
3.706495917E0,1.263322049E1,-3.096073791E0,1.940745693E-2,1.300708689E1
3.716519917E0,1.355566787E1,-3.240021715E0,-1.508482601E-1,1.393831509E1
3.726543917E0,1.364994019E1,-3.196954048E0,-2.499550205E-1,1.402154984E1
3.736567917E0,1.305834815E1,-2.946432433E0,-2.719540000E-1,1.338939429E1
3.746591917E0,1.258240702E1,-2.763567195E0,-3.642446977E-1,1.288747237E1
3.756615917E0,1.251880685E1,-2.868464197E0,-5.827750272E-1,1.285644735E1
3.766639917E0,1.335823547E1,-3.206769769E0,-1.015880045E0,1.377526187E1
3.776662917E0,1.500340339E1,-3.736195970E0,-1.403646337E0,1.552518910E1
3.786686917E0,1.653030435E1,-4.403314160E0,-1.469278409E0,1.716970928E1
3.796710917E0,1.764493451E1,-5.017932538E0,-1.004751039E0,1.837206808E1
3.806734917E0,1.839142632E1,-5.668511294E0,-2.653572078E-1,1.924699968E1
3.816758917E0,1.857042947E1,-5.960405468E0,2.677381575E-1,1.950535741E1
3.826782917E0,1.796832998E1,-5.811920689E0,6.408671147E-1,1.889576712E1
3.836806917E0,1.678256610E1,-5.654568608E0,5.952348590E-1,1.771956477E1
3.846829917E0,1.531884430E1,-5.499175344E0,1.750954574E-1,1.627693394E1
3.856853917E0,1.387726707E1,-5.471142622E0,-1.038348190E-1,1.491719561E1
3.866877917E0,1.212012732E1,-5.022388701E0,-8.251859701E-1,1.314544812E1
3.876901917E0,1.053369117E1,-4.643646710E0,-3.364645761E-1,1.151674055E1
3.886925917E0,8.332110981E0,-4.072383388E0,8.681189317E-2,9.274476598E0
3.896949917E0,5.985201171E0,-3.022535114E0,1.052223998E0,6.787158972E0
3.906973917E0,3.483274072E0,-1.879502687E0,1.757176597E0,4.330519392E0
3.916997917E0,7.907382685E-1,-6.413217357E-1,1.960573747E0,2.209165000E0
3.927020917E0,-2.033097348E0,4.494745901E-1,1.662801951E0,2.664661810E0
3.937044917E0,-4.767287546E0,1.543050682E0,1.034692876E0,5.116505185E0
3.947068917E0,-7.256842521E0,3.031120580E0,4.627381217E-1,7.878044296E0
3.957092917E0,-9.691191595E0,4.557805198E0,3.363494591E-1,1.071475215E1
3.967116917E0,-1.233536449E1,6.406216486E0,6.384048522E-1,1.391432311E1
3.977140917E0,-1.486302928E1,8.161635994E0,7.279526210E-1,1.697209052E1
3.987164917E0,-1.710331394E1,9.395570405E0,7.042316365E-1,1.952680295E1
3.997187917E0,-1.854157229E1,9.478486846E0,7.528114736E-1,2.083742645E1
4.007211917E0,-1.845577259E1,8.482573289E0,8.709064456E-1,2.033047145E1
4.017235917E0,-1.725164845E1,7.100925931E0,3.208367229E-1,1.865865642E1
4.027259917E0,-1.565860612E1,5.371135354E0,4.525978804E-2,1.655424686E1
4.037283917E0,-1.397899693E1,4.096306979E0,-2.342196516E-1,1.456869743E1
4.047307917E0,-1.277379691E1,3.471624372E0,-2.895916144E-1,1.324031444E1
4.057331917E0,-1.212795674E1,3.170385177E0,-1.190493107E-3,1.253549673E1
4.067354917E0,-1.147404975E1,3.289620430E0,2.368731181E-1,1.193865692E1
4.077378917E0,-1.067970316E1,3.728086174E0,4.474429750E-1,1.132055173E1
4.087402917E0,-9.801180645E0,4.029339695E0,5.871083256E-1,1.061336029E1
4.097426917E0,-8.939332632E0,4.260536848E0,6.765415621E-1,9.925802266E0
4.107450917E0,-7.922674908E0,4.395485615E0,8.236621857E-1,9.097664035E0
4.117474917E0,-6.980017206E0,4.419132047E0,1.022961023E0,8.324410940E0
4.127498917E0,-6.277858992E0,4.521299862E0,1.243033848E0,7.835738581E0
4.137521917E0,-5.681793829E0,4.571411962E0,1.528729974E0,7.451013607E0
4.147545917E0,-5.320590268E0,4.642942997E0,1.720018126E0,7.268016430E0
4.157569917E0,-5.100918562E0,4.792905952E0,1.790467719E0,7.224755518E0
4.167593917E0,-4.845408686E0,4.727146996E0,1.808404638E0,7.006727581E0
4.177617917E0,-4.939374027E0,4.494923364E0,1.900229312E0,6.943531037E0
4.187641917E0,-5.193465368E0,4.140592913E0,1.975102909E0,6.929474994E0
4.197662417E0,-5.428905260E0,3.706971002E0,1.979245076E0,6.865279120E0
4.207685417E0,-5.780871974E0,3.186317378E0,1.943484675E0,6.881005152E0
4.217709417E0,-6.401065673E0,2.805258427E0,1.858760859E0,7.231743118E0
4.227733417E0,-7.172851946E0,2.467289655E0,1.689617282E0,7.771237343E0
4.237757417E0,-7.881270774E0,2.160429824E0,1.645200663E0,8.335980522E0
4.247781417E0,-8.704728307E0,2.127468192E0,1.588378590E0,9.100624284E0
4.257805417E0,-9.363380898E0,2.194133760E0,1.567426847E0,9.743918704E0
4.267829417E0,-9.714711435E0,2.296088735E0,1.588661596E0,1.010799126E1
4.277852417E0,-9.860933926E0,2.482460256E0,1.681262780E0,1.030666150E1
4.287876417E0,-9.829156648E0,2.652096460E0,1.876319024E0,1.035212583E1
4.297900417E0,-9.830820765E0,2.893034782E0,1.980437908E0,1.043728037E1
4.307924417E0,-9.922335538E0,3.155000568E0,2.136410047E0,1.062878257E1
4.317948417E0,-1.005628355E1,3.434307442E0,2.036208651E0,1.081986378E1
4.327972417E0,-1.020298201E1,3.706306173E0,1.471180508E0,1.095453876E1
4.337996417E0,-1.070197404E1,3.930091688E0,8.422165704E-1,1.143185014E1
4.348019417E0,-1.128726863E1,4.044346574E0,2.791238924E-1,1.199320985E1
4.358043417E0,-1.183939080E1,3.944374389E0,-8.745804705E-2,1.247945963E1
4.368067417E0,-1.225368123E1,3.693032701E0,-1.351127450E-1,1.279880657E1
4.378091417E0,-1.248852061E1,3.480488167E0,-1.259513640E-1,1.296506108E1
4.388115417E0,-1.247553746E1,3.281266805E0,-2.775883770E-1,1.290282147E1
4.398139417E0,-1.198055545E1,3.100584918E0,-6.887469669E-1,1.239442246E1
4.408163417E0,-1.177591576E1,3.223896849E0,-1.272094510E0,1.227533818E1
4.418186417E0,-1.150139367E1,3.440912749E0,-1.478992388E0,1.209584041E1
4.428210417E0,-9.900368718E0,3.010073235E0,-1.608978331E0,1.047218472E1
4.438234417E0,-6.388579529E0,1.890380408E0,-1.911889830E0,6.931292030E0
4.448258417E0,-7.735603184E-1,7.954530247E-1,-2.118746778E0,2.391700021E0
4.458282417E0,5.452613965E0,-7.356325733E-1,-2.284360975E0,5.957386961E0
4.468306417E0,1.266954807E1,-2.844340340E0,-2.714774519E0,1.326565946E1
4.478330417E0,1.736696256E1,-4.040266679E0,-2.182204270E0,1.796377351E1
4.488354417E0,1.846379263E1,-5.535532746E0,7.928017509E-1,1.929202674E1
4.498377417E0,1.731208527E1,-6.448989453E0,3.296674218E0,1.876608170E1
4.508401417E0,1.956855035E1,-7.115932226E0,4.190778980E0,2.123975712E1
4.518425417E0,2.445690567E1,-9.637873174E0,3.835449532E0,2.656575817E1
4.528449417E0,2.604009076E1,-1.129383739E1,3.316167666E0,2.857680979E1
4.538473417E0,2.386948970E1,-9.339574544E0,2.951891978E0,2.580104373E1
4.548497417E0,2.098989504E1,-6.299640455E0,3.093004003E0,2.213205452E1
4.558521417E0,1.861724578E1,-4.430335312E0,3.789126720E0,1.950864406E1
4.568544417E0,1.580754991E1,-2.629758343E0,3.328509969E0,1.636683358E1
4.578568417E0,1.312015322E1,-9.369568129E-1,2.058423393E0,1.331365522E1
4.588592417E0,1.128371352E1,-2.546301618E-1,6.439632154E-1,1.130494210E1
4.598616417E0,9.936475275E0,-1.900001563E-1,-8.614620960E-1,9.975558024E0
4.608640417E0,9.263481803E0,-7.566351141E-1,-1.822755459E0,9.471379481E0
4.618664417E0,9.153273482E0,-1.708608308E0,-2.156336773E0,9.557800274E0
4.628688417E0,9.160780138E0,-2.807356408E0,-2.219131776E0,9.834921890E0
4.638711417E0,9.047031328E0,-3.788668883E0,-2.029645151E0,1.001609940E1
4.648735417E0,8.585038142E0,-4.230392112E0,-1.886852052E0,9.754963249E0
4.658759417E0,7.618179983E0,-4.303610362E0,-1.824930038E0,8.938014212E0
4.668783417E0,6.387324716E0,-4.240618892E0,-1.768869274E0,7.868269450E0
4.678807417E0,5.049696368E0,-4.039626701E0,-1.770941527E0,6.704793150E0
4.688831417E0,3.786614757E0,-3.808656421E0,-1.781339046E0,5.658399406E0
4.698855417E0,2.804700603E0,-3.547009892E0,-1.700040529E0,4.830917351E0
4.708878417E0,1.966726187E0,-3.237484024E0,-1.634958680E0,4.125821686E0
4.718902417E0,1.294560097E0,-2.801681978E0,-1.527062348E0,3.443432468E0
4.728926417E0,7.068909502E-1,-2.348951658E0,-1.406840086E0,2.827802634E0
4.738950417E0,7.568635941E-3,-1.855166575E0,-1.290688655E0,2.259995025E0
4.748974417E0,-6.608534825E-1,-1.183357457E0,-1.208507209E0,1.815916262E0
4.758998417E0,-1.219312863E0,-5.199620439E-1,-1.022425418E0,1.674048423E0
4.769022417E0,-1.828086365E0,9.179426908E-2,-8.385024190E-1,2.013308783E0
4.779045417E0,-2.444441952E0,6.564392732E-1,-8.907250714E-1,2.683207060E0
4.789069417E0,-2.885845338E0,1.125215084E0,-8.106544697E-1,3.201776533E0
4.799093417E0,-3.323831611E0,1.524711329E0,-7.358919704E-1,3.730165976E0
4.809117417E0,-3.874424733E0,2.030962675E0,-8.341965294E-1,4.453297683E0
4.819141417E0,-4.284575921E0,2.413034949E0,-8.405501139E-1,4.988672467E0
4.829165417E0,-4.599582970E0,2.681899719E0,-7.891133273E-1,5.382513301E0
4.839189417E0,-4.858857282E0,2.985084867E0,-9.468864083E-1,5.780641800E0
4.849212417E0,-5.120252380E0,3.167334393E0,-1.201978208E0,6.139523044E0
4.859236417E0,-5.474637503E0,3.321431914E0,-1.382266577E0,6.550895102E0
4.869260417E0,-5.770898378E0,3.402187225E0,-1.504002684E0,6.865869943E0
4.879284417E0,-5.918287389E0,3.423722520E0,-1.553980005E0,7.011622877E0
4.889308417E0,-6.151013589E0,3.502356168E0,-1.590756068E0,7.254789574E0
4.899332417E0,-6.337999359E0,3.568852167E0,-1.414963038E0,7.410064916E0
4.909355417E0,-6.515744775E0,3.461240010E0,-1.265383075E0,7.485740224E0
4.919379417E0,-6.538844785E0,3.332420294E0,-1.214631582E0,7.438873975E0
4.929403417E0,-6.143159609E0,3.073092771E0,-1.053502784E0,6.949257318E0
4.939427417E0,-5.567148641E0,2.623850608E0,-9.850161016E-1,6.232815794E0
4.949451417E0,-4.955975441E0,2.160203244E0,-8.989082497E-1,5.480529780E0
4.959475417E0,-4.093270812E0,1.654040483E0,-8.746159923E-1,4.500629844E0
4.969499417E0,-2.753919289E0,8.556631199E-1,-8.722893852E-1,3.012825849E0
4.979523417E0,-1.283471437E0,7.143689543E-2,-8.485175300E-1,1.540254576E0
4.989546417E0,1.186581320E-1,-6.406610003E-1,-8.891749746E-1,1.102342236E0
4.999570417E0,1.447492853E0,-1.300202952E0,-8.093645740E-1,2.107328709E0
5.009594417E0,2.669932807E0,-1.730296946E0,-7.438324893E-1,3.267377463E0
5.019618417E0,3.638411229E0,-1.887367777E0,-6.806053770E-1,4.154926843E0
5.029642417E0,4.070688865E0,-1.740332230E0,-6.376143086E-1,4.472786169E0
5.039666417E0,3.926310001E0,-1.298729162E0,-4.657623017E-1,4.161675406E0
5.049689417E0,3.517049929E0,-8.063213906E-1,-7.344101946E-2,3.609042528E0
5.059713417E0,3.197328270E0,-3.710081720E-1,2.111780405E-1,3.225701675E0
5.069737417E0,2.803710085E0,4.628685147E-2,3.953127086E-1,2.831820059E0
5.079761417E0,2.337724419E0,3.372235447E-1,5.093696666E-1,2.416222804E0
5.089785417E0,1.920519150E0,4.660374132E-1,4.951305270E-1,2.037336231E0
5.099809417E0,1.543545064E0,4.958959275E-1,3.727915728E-1,1.663555738E0
5.109833417E0,1.268297328E0,4.061341506E-1,1.899982560E-1,1.345222062E0
5.119856417E0,1.075403531E0,1.752252656E-1,4.163509905E-2,1.090380727E0
5.129880417E0,8.172629929E-1,-8.106842905E-2,-4.449731112E-2,8.224785106E-1
5.139904417E0,5.221323842E-1,-2.519296253E-1,-8.566404819E-2,5.860282347E-1
5.149928417E0,2.137408751E-1,-3.410151717E-1,-9.752104123E-2,4.141097228E-1
5.159952417E0,-1.366646326E-1,-3.747968754E-1,-7.308025539E-2,4.055744609E-1
5.169976417E0,-4.343925744E-1,-3.522304237E-1,-2.812335312E-2,5.599590191E-1
5.180000417E0,-6.615153873E-1,-3.409669322E-1,3.412433228E-2,7.450003534E-1
5.190023417E0,-8.372060913E-1,-3.307141319E-1,5.581693590E-2,9.018876907E-1
5.200051667E0,-1.048961252E0,-2.786005300E-1,1.722587904E-2,1.085465197E0
5.210075667E0,-1.287385563E0,-1.981887433E-1,4.262558084E-2,1.303248751E0
5.220099667E0,-1.397969275E0,-1.524214169E-1,7.397838771E-2,1.408198560E0
5.230123667E0,-1.441895313E0,-1.113926741E-1,-2.131189507E-2,1.446348720E0
5.240147667E0,-1.545826063E0,-4.702535480E-2,-1.192199763E-1,1.551129590E0
5.250171667E0,-1.639230655E0,1.563750118E-2,-2.213877907E-1,1.654186878E0
5.260194667E0,-1.570676145E0,6.480439872E-2,-3.100130150E-1,1.602289372E0
5.270218667E0,-1.413181391E0,1.540776408E-1,-3.179674210E-1,1.456682822E0
5.280242667E0,-1.312183020E0,1.483014688E-1,-2.279671508E-1,1.340069635E0
5.290266667E0,-9.795682508E-1,-2.733105540E-2,-2.374237796E-1,1.008301044E0
5.300290667E0,-5.900448704E-1,-2.505286324E-1,-2.474460534E-1,6.871296050E-1
5.310314667E0,-3.412271333E-1,-3.871245602E-1,-2.553081465E-1,5.757461517E-1
5.320337667E0,7.272357523E-2,-5.422801352E-1,-3.342099629E-1,6.411339662E-1
5.330361667E0,6.182956928E-1,-7.356241679E-1,-3.278540394E-1,1.015342677E0
5.340385667E0,1.048297593E0,-8.663953918E-1,-2.239764992E-1,1.378308489E0
5.350409667E0,1.203447028E0,-9.250301009E-1,-6.595600784E-2,1.519314198E0
5.360433667E0,1.146553620E0,-8.676753473E-1,1.777787447E-2,1.437971406E0
5.370457667E0,1.030743082E0,-8.211443746E-1,6.129987001E-2,1.319267622E0
5.380481667E0,9.920350993E-1,-9.140347043E-1,1.296077011E-1,1.355135135E0
5.390504667E0,1.057216936E0,-1.047438052E0,1.558147755E-1,1.496366388E0
5.400528667E0,1.064775631E0,-1.241240799E0,6.227986336E-2,1.636552672E0
5.410552667E0,1.029128666E0,-1.380702155E0,4.628824018E-2,1.722668527E0
5.420576667E0,7.990956938E-1,-1.500812151E0,-4.141414739E-2,1.700795746E0
5.430600667E0,5.570273978E-1,-1.457136373E0,-1.174069009E-1,1.564388159E0
5.440624667E0,4.748348415E-1,-1.404060027E0,-1.932341782E-1,1.494721424E0
5.450648667E0,2.684848469E-1,-1.326891691E0,-2.736041573E-1,1.381153470E0
5.460671667E0,6.003219366E-2,-1.160559748E0,-3.267260385E-1,1.207167220E0
5.470695667E0,-4.030661166E-2,-1.039564484E0,-3.069536787E-1,1.084684056E0
5.480719667E0,-1.314664578E-1,-9.379045004E-1,-2.004881608E-1,9.680618699E-1
5.490743667E0,-5.329865706E-1,-8.192931461E-1,-1.687032813E-1,9.918552016E-1
5.500767667E0,-1.377992263E0,-6.432524863E-1,-2.000397525E-1,1.533835826E0
5.510791667E0,-2.251073946E0,-4.700176129E-1,-2.667248350E-1,2.315036199E0
5.520814667E0,-2.759826146E0,-3.517258090E-1,-3.623138740E-1,2.805641236E0
5.530838667E0,-3.099778002E0,-2.680764189E-1,-5.179509672E-1,3.154165790E0
5.540862667E0,-3.255475906E0,-2.205780244E-1,-7.784427434E-1,3.354512058E0
5.550886667E0,-3.234742849E0,-1.930195123E-1,-1.024948565E0,3.398725848E0
5.560910667E0,-3.084319133E0,-2.067867815E-1,-1.262202775E0,3.339003015E0
5.570934667E0,-2.857192227E0,-1.694768679E-1,-1.381749684E0,3.178286019E0
5.580958667E0,-2.827569063E0,-8.844498396E-3,-1.305249392E0,3.114305863E0
5.590981667E0,-3.161160902E0,2.867857549E-1,-1.222812495E0,3.401537111E0
5.601005667E0,-3.480014834E0,5.894224343E-1,-1.147304987E0,3.711365084E0
5.611029667E0,-3.576102714E0,9.370212784E-1,-1.049513156E0,3.842915217E0
5.621053667E0,-3.376082915E0,9.472647232E-1,-1.023558608E0,3.652795988E0
5.631077667E0,-3.268253242E0,7.853298864E-1,-8.694195718E-1,3.471903322E0
5.641101667E0,-3.356716352E0,7.833833483E-1,-7.677294018E-1,3.531379698E0
5.651125667E0,-3.487984589E0,7.593670794E-1,-7.082094973E-1,3.639263050E0
5.661148667E0,-3.417080083E0,7.251319242E-1,-6.503040091E-1,3.553188414E0
5.671172667E0,-3.234710689E0,7.197776288E-1,-5.345530762E-1,3.356662043E0
5.681196667E0,-3.081772671E0,8.345444387E-1,-4.333342284E-1,3.222043725E0
5.691220667E0,-2.880665290E0,8.500249422E-1,-2.555467129E-1,3.014312365E0
5.701244667E0,-2.842673591E0,1.095509766E0,5.714655619E-2,3.046998609E0
5.711268667E0,-3.041538565E0,1.406414409E0,3.165863818E-1,3.365885510E0
5.721292667E0,-3.177336055E0,1.712177010E0,5.565087497E-1,3.651946947E0
5.731315667E0,-3.074800451E0,1.969519695E0,6.592548537E-1,3.710528615E0
5.741339667E0,-2.966403598E0,2.372042605E0,5.837649608E-1,3.842774773E0
5.751363667E0,-2.763895224E0,2.726862176E0,6.144792151E-1,3.930964111E0
5.761387667E0,-2.431603805E0,2.982346031E0,6.997865832E-1,3.911110607E0
5.771411667E0,-2.344104316E0,3.279170870E0,7.448931742E-1,4.099103864E0
5.781435667E0,-2.446211904E0,3.552332028E0,8.731693912E-1,4.400618173E0
5.791458667E0,-2.413748748E0,3.883237072E0,1.160515602E0,4.717256579E0
5.801482667E0,-2.323371844E0,4.005932706E0,1.402473385E0,4.838644972E0
5.811506667E0,-1.994505724E0,3.970201248E0,1.564295079E0,4.710368364E0
5.821530667E0,-1.322594572E0,3.892942573E0,1.654951479E0,4.432056258E0
5.831554667E0,-4.633444780E-1,3.710889806E0,1.773090963E0,4.138748944E0
5.841578667E0,2.763493520E-1,3.686700167E0,1.759532440E0,4.094396352E0
5.851602667E0,1.100841258E0,3.843122249E0,1.905040401E0,4.428387858E0
5.861625667E0,1.739823230E0,3.953518850E0,2.265998379E0,4.877708972E0
5.871649667E0,2.055493938E0,4.123354444E0,2.383788199E0,5.187441892E0
5.881673667E0,3.009274798E0,4.155664111E0,2.332781768E0,5.636235427E0
5.891697667E0,4.158781262E0,4.034437590E0,2.163814777E0,6.185001426E0
5.901721667E0,4.842096823E0,3.780759940E0,1.889109662E0,6.427190886E0
5.911745667E0,5.209022470E0,3.622127903E0,1.840392416E0,6.606116096E0
5.921769667E0,5.852095154E0,3.280953979E0,1.816301302E0,6.950584661E0
5.931792667E0,6.820639649E0,2.730851731E0,1.697402265E0,7.540547119E0
5.941816667E0,7.474976994E0,2.270618556E0,1.561232892E0,7.966708093E0
5.951840667E0,8.393414360E0,1.894135052E0,1.394685479E0,8.716782651E0
5.961864667E0,9.232663468E0,1.676709554E0,1.357728737E0,9.481395307E0
5.971888667E0,9.814110593E0,1.159954269E0,1.287195529E0,9.965898502E0
5.981912667E0,1.053085878E1,6.748753980E-1,1.022094539E0,1.060184515E1
5.991935667E0,1.133077893E1,2.961795992E-1,8.544418558E-1,1.136680889E1
6.001959667E0,1.168407706E1,-7.206108570E-2,7.917913520E-1,1.171109657E1
6.011983667E0,1.189253029E1,-3.422711536E-1,7.295037411E-1,1.191979874E1
6.022007667E0,1.196750212E1,-6.364156294E-1,6.556745305E-1,1.200233481E1
6.032031667E0,1.238186038E1,-1.123893613E0,5.256576705E-1,1.244387076E1
6.042055667E0,1.281893741E1,-1.604798741E0,3.214038297E-1,1.292299640E1
6.052079667E0,1.295679371E1,-1.982655903E0,2.743678768E-1,1.311048075E1
6.062102667E0,1.310262327E1,-2.523444852E0,2.702249783E-1,1.334614296E1
6.072126667E0,1.338117293E1,-3.022431033E0,5.161096059E-2,1.371836513E1
6.082150667E0,1.397578096E1,-3.397504190E0,6.826558493E-2,1.438298121E1
6.092174667E0,1.475405472E1,-3.885960120E0,2.757289624E-1,1.525971308E1
6.102198667E0,1.547981815E1,-4.447465900E0,5.820125502E-1,1.611655861E1
6.112222667E0,1.622300861E1,-5.062667831E0,1.199716651E0,1.703689919E1
6.122246667E0,1.694402176E1,-5.769563459E0,1.679629799E0,1.797801135E1
6.132269667E0,1.696704341E1,-6.283097513E0,2.081018057E0,1.821231761E1
6.142293667E0,1.637861471E1,-6.434770778E0,2.522806336E0,1.777722832E1
6.152317667E0,1.617068773E1,-6.572366288E0,2.850250413E0,1.768646566E1
6.162341667E0,1.579312716E1,-6.707970235E0,2.959631937E0,1.741204042E1
6.172365667E0,1.435241884E1,-6.804979051E0,2.560778739E0,1.608904143E1
6.182389667E0,1.249682834E1,-7.063002060E0,2.202895812E0,1.452272242E1
6.192412667E0,1.083419128E1,-7.602393086E0,2.213198460E0,1.341917765E1
6.202436583E0,8.357745759E0,-7.839445640E0,2.324975150E0,1.169249039E1
6.212460583E0,5.204786162E0,-7.649757872E0,2.355380087E0,9.547586598E0
6.222484583E0,1.726758211E0,-7.390895787E0,2.557352271E0,8.009187543E0
6.232508583E0,-1.848294927E0,-7.136268842E0,2.406118131E0,7.754478163E0
6.242532583E0,-5.115196878E0,-6.724579251E0,1.842043085E0,8.647446324E0
6.252556583E0,-7.959469097E0,-6.262969058E0,8.425936427E-1,1.016306518E1
6.262579583E0,-1.084905724E1,-5.164435111E0,-5.805408061E-2,1.201568988E1
6.272603583E0,-1.332554252E1,-3.707934038E0,-5.057234160E-1,1.384104817E1
6.282627583E0,-1.514753258E1,-2.658772811E0,-2.121844194E-1,1.538056690E1
6.292651583E0,-1.688193017E1,-1.864798547E0,8.940677784E-2,1.698484718E1
6.302675583E0,-1.818827183E1,-1.195572218E0,-1.268179579E-1,1.822796499E1
6.312699583E0,-1.869815488E1,-1.524681508E0,-4.012471209E-1,1.876450502E1
6.322723583E0,-1.819124455E1,-2.387106056E0,-1.151682140E0,1.838330834E1
6.332746583E0,-1.709322867E1,-3.223760901E0,-2.102548236E0,1.752118174E1
6.342770583E0,-1.563874664E1,-3.890636723E0,-2.794231163E0,1.635589124E1
6.352794583E0,-1.369425624E1,-4.047189490E0,-3.107665311E0,1.461403368E1
6.362818583E0,-1.201400269E1,-3.623290329E0,-2.888053247E0,1.287654243E1
6.372842583E0,-1.094167480E1,-2.965666848E0,-2.225616923E0,1.155286968E1
6.382866583E0,-9.954632049E0,-2.219233079E0,-1.278225900E0,1.027879157E1
6.392889583E0,-9.123204176E0,-1.388797917E0,-6.980524817E-2,9.228569058E0
6.402913583E0,-8.028808304E0,-9.772819895E-1,1.064573318E0,8.157828094E0
6.412937583E0,-6.988846502E0,-1.158207779E0,1.789955503E0,7.306802405E0
6.422961583E0,-6.520545339E0,-1.398860391E0,2.230126880E0,7.031912102E0
6.432985583E0,-6.187108451E0,-1.489020802E0,2.332697568E0,6.777829437E0
6.443009583E0,-5.956753297E0,-1.403310853E0,2.182114223E0,6.497215841E0
6.453033583E0,-6.069128011E0,-9.643843473E-1,2.051273417E0,6.478585850E0
6.463056583E0,-6.113615382E0,-3.429243607E-1,1.738178408E0,6.365151557E0
6.473080583E0,-6.166915092E0,3.403591872E-1,1.371559156E0,6.326757514E0
6.483104583E0,-6.107231977E0,8.325769968E-1,1.106458093E0,6.262245315E0
6.493128583E0,-6.319184774E0,9.389241086E-1,7.609671700E-1,6.433719431E0
6.503152583E0,-6.764224543E0,8.540767702E-1,4.544865310E-1,6.833062184E0
6.513176583E0,-6.924353467E0,6.592212322E-1,1.182108565E-1,6.956667117E0
6.523199583E0,-6.864407812E0,4.257314959E-1,-1.931475480E-1,6.880308706E0
6.533223583E0,-6.815352012E0,2.024662739E-1,-4.018042874E-1,6.830187576E0
6.543247583E0,-6.971111312E0,-1.303493473E-1,-3.336830556E-1,6.980310040E0
6.553271583E0,-7.405037279E0,-1.232030996E-1,-2.377349063E-1,7.409876786E0
6.563295583E0,-7.935625906E0,4.892796569E-2,-1.807432830E-1,7.937834755E0
6.573319583E0,-8.395327569E0,2.323032998E-1,-1.632636166E-1,8.400127667E0
6.583343583E0,-9.007738039E0,5.047342864E-1,-2.742554458E-1,9.026035527E0
6.593366583E0,-9.652257909E0,8.637539852E-1,-4.027515364E-1,9.699193909E0
6.603390583E0,-1.008946416E1,1.344699094E0,-4.363367736E-1,1.018802692E1
6.613414583E0,-1.026589103E1,1.839017589E0,-4.261053157E-1,1.043801083E1
6.623438583E0,-1.019183137E1,2.191787857E0,-1.385602816E-1,1.042576422E1
6.633462583E0,-1.042465931E1,2.602004826E0,-1.464949532E-1,1.074548331E1
6.643486583E0,-1.080166205E1,3.346435778E0,-5.246016634E-1,1.132032430E1
6.653509583E0,-1.123253401E1,4.156387120E0,-9.823427546E-1,1.201708665E1
6.663533583E0,-1.214712274E1,4.726080171E0,-1.239994465E0,1.309297563E1
6.673557583E0,-1.334660419E1,5.044877678E0,-9.746174133E-1,1.430148640E1
6.683581583E0,-1.421475901E1,4.712572811E0,-6.035495996E-1,1.498772792E1
6.693605583E0,-1.427363696E1,3.947666371E0,-7.261785758E-1,1.482727612E1
6.703629583E0,-1.385326308E1,3.026974612E0,-7.646567631E-1,1.420071031E1
6.713653583E0,-1.259257883E1,2.432061204E0,-1.283121774E0,1.288931204E1
6.723676583E0,-1.165908372E1,1.959017803E0,-1.676686749E0,1.194082335E1
6.733700583E0,-1.075198176E1,1.907945006E0,-1.405522708E0,1.101003452E1
6.743724583E0,-8.922197367E0,2.035173402E0,-1.734347312E0,9.314263107E0
6.753748583E0,-5.805236152E0,2.263614323E0,-2.193895778E0,6.605898521E0
6.763772583E0,-7.859827280E-2,2.084348485E0,-2.888336252E0,3.562747900E0
6.773796583E0,7.523380246E0,1.423251466E0,-3.174771466E0,8.288912409E0
6.783819583E0,1.483641743E1,1.161775092E0,-2.667987438E0,1.511909920E1
6.793843583E0,2.004747356E1,1.457610290E0,-1.238752517E0,2.013852854E1
6.803867583E0,2.318558065E1,8.321418909E-1,1.149473720E0,2.322896683E1
6.813891583E0,2.625609392E1,-1.148249897E0,5.229956671E0,2.679651829E1
6.823915583E0,2.746733763E1,-1.941971561E0,5.632816966E0,2.810612952E1
6.833939583E0,2.672066690E1,-2.198942364E0,4.922790738E0,2.725918663E1
6.843963583E0,2.445321724E1,-3.291833308E0,4.230510811E0,2.503384153E1
6.853986583E0,2.133390545E1,-2.682794343E0,2.679547384E0,2.166824592E1
6.864010583E0,1.912821876E1,-2.447322875E0,1.505244048E0,1.934279974E1
6.874034583E0,1.678018044E1,-3.216405396E0,2.016089551E0,1.720419531E1
6.884058583E0,1.328257951E1,-3.201589136E0,1.589103645E0,1.375508422E1
6.894082583E0,9.980331731E0,-2.474736084E0,5.349231684E-1,1.029647915E1
6.904106583E0,7.399876526E0,-2.096931986E0,-2.896839273E-1,7.696701445E0
6.914129583E0,5.520797178E0,-2.250555005E0,-1.245147032E0,6.090532853E0
6.924153583E0,3.946466523E0,-2.712498783E0,-1.912138921E0,5.156406008E0
6.934177583E0,2.520125388E0,-3.129705221E0,-2.332936719E0,4.646362069E0
6.944201583E0,1.338748090E0,-3.567452343E0,-2.341520432E0,4.472323848E0
6.954225583E0,6.982277155E-2,-4.323102348E0,-2.414587238E0,4.952203616E0
6.964249583E0,-1.331050816E0,-4.767256849E0,-2.780338764E0,5.677034241E0
6.974273583E0,-2.724947505E0,-4.680392367E0,-3.088716239E0,6.234707661E0
6.984296583E0,-3.737888739E0,-4.375165956E0,-3.506526110E0,6.738665649E0
6.994320583E0,-4.062729635E0,-3.894819529E0,-3.654899792E0,6.710714101E0
7.004344583E0,-3.954226363E0,-3.326914263E0,-3.398090081E0,6.184761987E0
7.014368583E0,-3.625170209E0,-2.735162298E0,-3.017059196E0,5.452120508E0
7.024392583E0,-2.793302625E0,-2.106654882E0,-2.641597785E0,4.383899315E0
7.034416583E0,-1.374686832E0,-1.756329920E0,-2.017387049E0,3.007375796E0
7.044439583E0,-5.531132716E-1,-1.464115756E0,-1.382219800E0,2.088085442E0
7.054463583E0,-2.833209872E-2,-1.243533785E0,-8.799229252E-1,1.523628346E0
7.064487583E0,6.895790988E-1,-1.347930119E0,-5.534103101E-1,1.612047738E0
7.074511583E0,1.472775629E0,-1.582523335E0,-4.077643909E-1,2.199936353E0
7.084535583E0,2.575214345E0,-2.240895990E0,-2.557753756E-1,3.423268147E0
7.094559583E0,3.826968146E0,-2.955251788E0,-1.345972398E-2,4.835222796E0
7.104583583E0,4.004168016E0,-2.963570622E0,3.282340354E-1,4.992379184E0
7.114606583E0,3.262345800E0,-2.600314688E0,4.932167333E-1,4.200928390E0
7.124630583E0,2.969895555E0,-2.328308794E0,5.258827883E-1,3.810230197E0
7.134654583E0,3.205457654E0,-2.278730106E0,6.746195823E-1,3.990323452E0
7.144678583E0,3.267868495E0,-2.166432722E0,6.243230027E-1,3.970160507E0
7.154702583E0,3.197648697E0,-1.893971914E0,3.932153124E-1,3.737205518E0
7.164726583E0,3.128900644E0,-1.686389034E0,1.477925052E-1,3.557494883E0
7.174749583E0,3.058460991E0,-1.609601644E0,-4.634446481E-2,3.456464798E0
7.184773583E0,2.854130625E0,-1.555662249E0,-2.341061425E-1,3.258980262E0
7.194797167E0,2.621135454E0,-1.492062085E0,-3.200806413E-1,3.032993892E0
7.204821167E0,2.476302261E0,-1.476342722E0,-3.052866375E-1,2.899113770E0
7.214845167E0,2.380967503E0,-1.468634046E0,-3.155531788E-1,2.815220421E0
7.224869167E0,2.222980413E0,-1.440277973E0,-2.315123177E-1,2.658879560E0
7.234893167E0,1.974274943E0,-1.348711161E0,-1.896111337E-1,2.398486133E0
7.244916167E0,1.757252610E0,-1.177052405E0,-1.555920696E-1,2.120754109E0
7.254940167E0,1.657207335E0,-1.144429619E0,-1.195393074E-1,2.017509591E0
7.264964167E0,1.497210558E0,-1.086139311E0,-9.109490555E-2,1.851927736E0
7.274988167E0,1.316209413E0,-9.488504881E-1,-1.147089225E-1,1.626616920E0
7.285012167E0,1.073108498E0,-8.001999405E-1,-1.011550766E-1,1.342428450E0
7.295036167E0,7.328268600E-1,-4.802575493E-1,-1.079606509E-1,8.828012361E-1
7.305059167E0,3.721928179E-1,-1.397142479E-1,-1.216145390E-1,4.157374903E-1
7.315083167E0,3.209010422E-2,1.226164046E-1,-5.540298957E-2,1.383258787E-1
7.325107167E0,-2.497614777E-1,3.699682447E-1,-2.339065332E-2,4.469948775E-1
7.335131167E0,-5.633277726E-1,7.280923694E-1,-7.044612128E-2,9.232655814E-1
7.345155167E0,-7.668617481E-1,1.057618347E0,-2.961106386E-1,1.339520444E0
7.355179167E0,-8.403027767E-1,1.454030917E0,-4.568506334E-1,1.740410057E0
7.365202167E0,-9.508192456E-1,1.883791912E0,-4.495356935E-1,2.157501227E0
7.375226167E0,-1.005637477E0,2.346981731E0,-1.841896685E-1,2.559991370E0
7.385250167E0,-1.110530094E0,2.755147789E0,2.208516558E-1,2.978739982E0
7.395274167E0,-1.274942688E0,3.006198870E0,4.568388293E-1,3.297182467E0
7.405298167E0,-1.487817006E0,3.258844487E0,6.305929720E-1,3.637487365E0
7.415322167E0,-1.755691988E0,3.460313226E0,6.799241763E-1,3.939355133E0
7.425346167E0,-1.991809573E0,3.377664002E0,7.499703115E-1,3.992289438E0
7.435369167E0,-2.114225126E0,3.232361278E0,7.178492171E-1,3.928538508E0
7.445393167E0,-2.172924154E0,3.098692466E0,5.855518699E-1,3.829669095E0
7.455417167E0,-2.288310769E0,3.062005281E0,5.751929426E-1,3.865629242E0
7.465441167E0,-2.517698209E0,3.058896901E0,6.381148303E-1,4.012835040E0
7.475465167E0,-2.736820861E0,3.290754497E0,6.887271595E-1,4.335158438E0
7.485489167E0,-2.812820047E0,3.448957641E0,8.590723389E-1,4.532689125E0
7.495512167E0,-2.859164493E0,3.501099894E0,1.021290473E0,4.634172666E0
7.505536167E0,-2.799264446E0,3.525664924E0,1.091354735E0,4.632197077E0
7.515560167E0,-2.601652531E0,3.468105518E0,1.073054192E0,4.466295677E0
7.525584167E0,-2.370962332E0,3.325113029E0,9.313456786E-1,4.188704311E0
7.535608167E0,-2.136962024E0,3.139528251E0,7.294875151E-1,3.867220755E0
7.545632167E0,-1.860411528E0,3.058168338E0,5.350442058E-1,3.619364162E0
7.555655167E0,-1.792664518E0,3.044523276E0,4.225864613E-1,3.558278708E0
7.565679167E0,-1.696512904E0,3.007818841E0,4.751960898E-1,3.485820067E0
7.575703167E0,-1.336503929E0,2.836805325E0,5.232303816E-1,3.179225886E0
7.585727167E0,-1.003751750E0,2.594751939E0,5.264564002E-1,2.831503407E0
7.595751167E0,-8.515270919E-1,2.371370760E0,4.653506577E-1,2.562235138E0
7.605775167E0,-7.982057476E-1,2.138925519E0,3.898543328E-1,2.316057251E0
7.615799167E0,-8.387801617E-1,1.911681961E0,2.695712596E-1,2.104934380E0
7.625822167E0,-8.822185421E-1,1.750341786E0,7.078588106E-2,1.961381290E0
7.635846167E0,-8.555873984E-1,1.602088849E0,-1.123846543E-1,1.819711183E0
7.645870167E0,-7.014659035E-1,1.480890394E0,-2.127228749E-1,1.652374593E0
7.655894167E0,-4.557185394E-1,1.351888246E0,-2.631153488E-1,1.450693249E0
7.665918167E0,-1.195276129E-1,1.269585762E0,-3.437730110E-1,1.320725081E0
7.675942167E0,1.150650179E-1,1.256658445E0,-3.807432014E-1,1.318103103E0
7.685965167E0,3.579104090E-1,1.225987168E0,-3.437023327E-1,1.322601864E0
7.695989167E0,8.327645463E-1,1.004705139E0,-3.438671511E-1,1.349508734E0
7.706013167E0,1.517221484E0,5.963826674E-1,-2.673435435E-1,1.652000572E0
7.716037167E0,2.227433068E0,1.599002981E-1,-1.053936502E-1,2.235650688E0
7.726061167E0,2.584789161E0,-1.556549272E-1,-6.676416613E-2,2.590332202E0
7.736085167E0,2.625467071E0,-3.005936623E-1,-1.306694093E-1,2.645847385E0
7.746108167E0,2.527664203E0,-3.058336446E-1,-8.629671693E-2,2.547561121E0
7.756132167E0,2.209614263E0,-3.044051698E-1,2.100319862E-3,2.230484726E0
7.766156167E0,1.768416699E0,-3.036178422E-1,1.740126262E-1,1.802709575E0
7.776180167E0,1.241052226E0,-2.569789883E-1,3.293788471E-1,1.309480528E0
7.786204167E0,6.638747388E-1,-1.562726855E-1,3.656087800E-1,7.738349960E-1
7.796228167E0,8.940392733E-4,-1.020298201E-1,3.154531183E-1,3.315441952E-1
7.806251167E0,-6.874700081E-1,-1.405960080E-1,1.448672529E-1,7.164975719E-1
7.816275167E0,-1.289482375E0,-2.227680990E-1,-1.324357800E-1,1.315267903E0
7.826299167E0,-1.805014422E0,-4.028804675E-1,-4.638468269E-1,1.906710155E0
7.836323167E0,-2.200995467E0,-5.772067237E-1,-7.534196571E-1,2.396912562E0
7.846347167E0,-2.436155863E0,-6.666884190E-1,-1.036122667E0,2.729996157E0
7.856371167E0,-2.461125813E0,-7.890531009E-1,-1.210240324E0,2.853844197E0
7.866395167E0,-2.199788017E0,-9.355132815E-1,-1.243185875E0,2.694394838E0
7.876418167E0,-2.088451769E0,-9.625081220E-1,-1.167124783E0,2.578804555E0
7.886442167E0,-2.116023729E0,-9.079427826E-1,-1.067683598E0,2.538082896E0
7.896466167E0,-2.226314496E0,-8.807108375E-1,-9.345780194E-1,2.570129158E0
7.906490167E0,-2.575226625E0,-8.217188635E-1,-8.529953277E-1,2.834539661E0
7.916514167E0,-2.916842013E0,-7.018673149E-1,-8.233439510E-1,3.111025606E0
7.926538167E0,-3.022050964E0,-7.546869680E-1,-8.112963478E-1,3.218780237E0
7.936561167E0,-2.961355112E0,-8.816630566E-1,-8.694546551E-1,3.209813895E0
7.946585167E0,-2.893906310E0,-1.071213708E0,-9.082311235E-1,3.216687164E0
7.956609167E0,-2.837602301E0,-1.256921862E0,-8.627263371E-1,3.221201036E0
7.966633167E0,-2.923487958E0,-1.529857610E0,-1.011205050E0,3.451055172E0
7.976657167E0,-3.191130221E0,-1.812217899E0,-1.257696033E0,3.879335654E0
7.986681167E0,-3.367012129E0,-2.083388080E0,-1.367152110E0,4.188840109E0
7.996704167E0,-3.420474976E0,-2.348115506E0,-1.384027759E0,4.373651601E0
8.006728167E0,-3.441510335E0,-2.428002213E0,-1.471369958E0,4.461403107E0
8.016752167E0,-3.360657960E0,-2.429139204E0,-1.449948830E0,4.392845411E0
8.026776167E0,-3.089960527E0,-2.526921022E0,-1.309012075E0,4.200797367E0
8.036800167E0,-2.745874690E0,-2.566770381E0,-1.129152964E0,3.924681442E0
8.046824167E0,-2.383823867E0,-2.548453101E0,-7.907372452E-1,3.578057410E0
8.056847167E0,-2.030131640E0,-2.385937928E0,-6.018639936E-1,3.190043031E0
8.066871167E0,-1.735734272E0,-2.121993444E0,-4.605272895E-1,2.779876800E0
8.076895167E0,-1.425902594E0,-1.805509096E0,-3.535146184E-1,2.327667049E0
8.086919167E0,-1.199787841E0,-1.607836370E0,-2.491447426E-1,2.021559239E0
8.096943167E0,-1.111569144E0,-1.304340442E0,-1.478287214E-1,1.720099788E0
8.106967167E0,-1.020455491E0,-1.102239619E0,-3.644050576E-2,1.502527703E0
8.116991167E0,-9.973209822E-1,-8.327446657E-1,6.958946764E-2,1.301136240E0
8.127014167E0,-8.605955386E-1,-4.213407120E-1,2.067809343E-1,9.802606957E-1
8.137038167E0,-6.056966972E-1,2.079690886E-1,4.112071949E-1,7.610591225E-1
8.147062167E0,-4.359321463E-1,8.396335629E-1,7.039047772E-1,1.179196036E0
8.157086167E0,-1.900450337E-1,1.448881274E0,9.253131062E-1,1.729617994E0
8.167110167E0,1.544729125E-1,2.088745299E0,1.003343614E0,2.322373186E0
8.177134167E0,4.438790971E-1,2.596085397E0,8.892456528E-1,2.779828389E0
8.187157167E0,8.463306713E-1,2.996156277E0,8.634775581E-1,3.230916517E0
8.197181583E0,1.217702540E0,3.403054659E0,9.470132929E-1,3.736363829E0
8.207205583E0,1.472518351E0,3.650488068E0,1.053497522E0,4.074828887E0
8.217229583E0,1.845336821E0,3.700916210E0,1.200210083E0,4.306106480E0
8.227253583E0,2.652443200E0,3.622949729E0,1.395551451E0,4.701997822E0
8.237277583E0,3.550912909E0,3.426372186E0,1.584939258E0,5.182763866E0
8.247300583E0,4.343077313E0,3.259971830E0,1.735846539E0,5.701131474E0
8.257324583E0,4.971196328E0,3.119494228E0,1.818226206E0,6.144101538E0
8.267348583E0,5.569874028E0,3.075623739E0,1.754226676E0,6.600020402E0
8.277372583E0,6.226690008E0,3.147410005E0,1.621776717E0,7.162961533E0
8.287396583E0,7.211223714E0,3.092038920E0,1.641694672E0,8.016084676E0
8.297420583E0,8.347119030E0,2.728593244E0,1.699213732E0,8.944660111E0
8.307443583E0,9.345728738E0,2.327221066E0,1.885430594E0,9.813941719E0
8.317467583E0,1.005947964E1,1.822229210E0,1.703985645E0,1.036422776E1
8.327491583E0,1.094180577E1,1.261793762E0,1.540451887E0,1.112152099E1
8.337515583E0,1.172980930E1,7.492888185E-1,1.551513504E0,1.185567603E1
8.347539583E0,1.248260557E1,1.358691189E-1,1.300245345E0,1.255087806E1
8.357563583E0,1.327036351E1,-4.231790766E-1,1.112106357E0,1.332360345E1
8.367586583E0,1.414215296E1,-6.630610988E-1,9.363976729E-1,1.418862153E1
8.377610583E0,1.547710270E1,-1.241539592E0,1.167897127E0,1.557068117E1
8.387634583E0,1.651954664E1,-2.175617090E0,1.707021666E0,1.674940757E1
8.397658583E0,1.704618431E1,-3.140599753E0,2.569923200E0,1.752256464E1
8.407682583E0,1.749740458E1,-4.229011877E0,3.084822578E0,1.826362064E1
8.417706583E0,1.747627041E1,-5.203997372E0,3.182593287E0,1.851028136E1
8.427730583E0,1.721976241E1,-6.004833782E0,2.778154829E0,1.844712418E1
8.437753583E0,1.671127451E1,-6.780485065E0,2.263459518E0,1.817594351E1
8.447777583E0,1.567930877E1,-7.188885012E0,1.640050874E0,1.732658530E1
8.457801583E0,1.420347154E1,-7.104089275E0,9.544030041E-1,1.590966918E1
8.467825583E0,1.306313117E1,-6.733356507E0,6.224863923E-1,1.470955387E1
8.477849583E0,1.182125507E1,-6.298228353E0,5.673452483E-1,1.340640267E1
8.487873583E0,1.026802644E1,-6.113532352E0,7.381595206E-1,1.197299145E1
8.497896583E0,8.588767496E0,-5.998163279E0,1.016951839E0,1.052516417E1
8.507920583E0,6.810498238E0,-5.730298237E0,1.315500292E0,8.997207631E0
8.517944583E0,4.421800717E0,-5.423491908E0,1.500813759E0,7.156747026E0
8.527968583E0,1.279738575E0,-4.857824664E0,1.560183901E0,5.260262835E0
8.537992583E0,-2.103996592E0,-4.057674425E0,1.694222549E0,4.874619313E0
8.548016583E0,-5.271019328E0,-2.996865252E0,1.771681200E0,6.316937578E0
8.558039583E0,-8.454007301E0,-1.859816427E0,1.529929238E0,8.790326505E0
8.568063583E0,-1.105575748E1,-6.914750585E-1,1.385367356E0,1.116365325E1
8.578087583E0,-1.260129001E1,3.016106392E-1,1.292533452E0,1.267099529E1
8.588111583E0,-1.366500379E1,1.193423147E0,9.217778796E-1,1.374795483E1
8.598135583E0,-1.468473130E1,2.050656390E0,5.542048371E-1,1.483757622E1
8.608159583E0,-1.562033142E1,2.696633533E0,9.578850210E-2,1.585168008E1
8.618182583E0,-1.598503044E1,2.893356671E0,-2.311603884E-1,1.624641949E1
8.628206583E0,-1.548865914E1,2.466878888E0,-7.499095005E-1,1.570179663E1
8.638230583E0,-1.448385255E1,1.796718539E0,-1.450204791E0,1.466674047E1
8.648254583E0,-1.324787512E1,1.191582443E0,-2.033800183E0,1.345594319E1
8.658278583E0,-1.161419815E1,7.120553572E-1,-2.529466315E0,1.190776307E1
8.668302583E0,-1.007943268E1,2.515412240E-1,-2.765480404E0,1.045495662E1
8.678326583E0,-8.867514206E0,-2.395232955E-1,-2.909063462E0,9.335567997E0
8.688349583E0,-8.204860366E0,-7.119664796E-1,-2.377189032E0,8.571910965E0
8.698373583E0,-8.074508387E0,-9.301521157E-1,-1.527398563E0,8.270176239E0
8.708397583E0,-7.597061595E0,-8.177208298E-1,-8.578005695E-1,7.688942323E0
8.718421583E0,-6.974838327E0,-6.896194446E-1,-7.471170165E-2,7.009245787E0
8.728445583E0,-6.640550085E0,-4.117327134E-1,2.406941639E-1,6.657654462E0
8.738468583E0,-6.635484057E0,-8.969906554E-2,3.697141832E-1,6.646381209E0
8.748492583E0,-6.819523416E0,5.996904373E-2,4.301895958E-1,6.833341715E0
8.758516583E0,-7.027519986E0,2.821857503E-1,3.212893339E-1,7.040517935E0
8.768540583E0,-7.363056024E0,6.172067951E-1,1.859403066E-1,7.391218576E0
8.778564583E0,-7.631304059E0,7.465871125E-1,-3.029970506E-2,7.667797078E0
8.788588583E0,-7.686300631E0,8.054779297E-1,-2.097097864E-1,7.731234719E0
8.798612583E0,-7.779412862E0,7.804424912E-1,-4.741828769E-1,7.832828631E0
8.808635583E0,-8.118411037E0,6.818515648E-1,-6.854094493E-1,8.175775525E0
8.818659583E0,-8.520525227E0,5.365916714E-1,-9.739753890E-1,8.592782368E0
8.828683583E0,-8.674874763E0,3.844931670E-1,-1.358571321E0,8.789027431E0
8.838707583E0,-8.635216607E0,2.008955656E-1,-1.632985829E0,8.790561279E0
8.848731583E0,-8.751531175E0,1.257487580E-2,-1.762638481E0,8.927281247E0
8.858755583E0,-9.076615900E0,-6.614077985E-3,-1.874688674E0,9.268196026E0
8.868778583E0,-9.425975926E0,1.333112544E-1,-1.731803774E0,9.584672053E0
8.878802583E0,-1.001880641E1,3.003090490E-1,-1.382374166E0,1.011818293E1
8.888826583E0,-1.042286304E1,6.485983032E-1,-1.014007766E0,1.049213827E1
8.898850583E0,-1.063072922E1,1.061695026E0,-7.243495667E-1,1.070814094E1
8.908874583E0,-1.093658889E1,1.599083965E0,-6.124233341E-1,1.106982874E1
8.918898583E0,-1.173682362E1,2.527113395E0,-9.748910630E-1,1.204532039E1
8.928921583E0,-1.282554243E1,3.895028859E0,-1.837643055E0,1.352932816E1
8.938945583E0,-1.413295763E1,5.427750435E0,-2.649827156E0,1.536953318E1
8.948969583E0,-1.522413929E1,6.508911134E0,-2.671258371E0,1.677128386E1
8.958993583E0,-1.540904345E1,6.739483219E0,-2.114364874E0,1.695080508E1
8.969017583E0,-1.480844903E1,6.639823276E0,-1.457662915E0,1.629423815E1
8.979041583E0,-1.370594716E1,6.327287260E0,-9.583025122E-1,1.512633120E1
8.989064583E0,-1.216843467E1,5.911796980E0,-1.010154451E0,1.356615487E1
8.999088583E0,-1.023352319E1,5.694965851E0,-1.419156661E0,1.179710297E1
9.009112583E0,-8.085215809E0,5.531734394E0,-1.604874755E0,9.927055105E0
9.019136583E0,-5.584119599E0,5.185582736E0,-1.456353139E0,7.758455032E0
9.029160583E0,-2.980178468E0,4.991562765E0,-9.529838848E-1,5.891123902E0
9.039184583E0,-8.533660412E-2,4.388787922E0,-6.683215463E-1,4.440202185E0
9.049207583E0,3.717336946E0,3.160739903E0,-6.215578544E-1,4.918862152E0
9.059231583E0,7.203156311E0,2.059695016E0,-4.074983060E-1,7.502923381E0
9.069255583E0,9.845183866E0,8.138278998E-1,6.443093705E-1,9.899752309E0
9.079279583E0,1.190109529E1,-7.633208205E-1,2.606525016E0,1.220707584E1
9.089303583E0,1.343345405E1,-1.770508833E0,4.119987910E0,1.416215696E1
9.099327583E0,1.474185743E1,-2.757653906E0,4.627446706E0,1.569523108E1
9.109350583E0,1.597317463E1,-4.413633910E0,5.248485328E0,1.738301097E1
9.119374583E0,1.582995410E1,-5.414632207E0,4.940763910E0,1.744467932E1
9.129398583E0,1.466217859E1,-5.203210922E0,4.148007767E0,1.610151712E1
9.139422583E0,1.346448522E1,-4.753683414E0,3.702531796E0,1.475122402E1
9.149446583E0,1.278622575E1,-4.157783727E0,2.912991621E0,1.375718920E1
9.159470583E0,1.243417308E1,-3.478636938E0,2.094955627E0,1.308045925E1
9.169493583E0,1.234946681E1,-3.286718164E0,1.628979317E0,1.288275671E1
9.179517583E0,1.167165289E1,-2.877754546E0,1.199294336E0,1.208086335E1
9.189541583E0,9.895680420E0,-2.245532978E0,1.057436206E0,1.020220960E1
9.199565542E0,8.073776901E0,-1.994044671E0,1.080146792E0,8.386227083E0
9.209589542E0,7.591304426E0,-2.180180403E0,9.042602062E-1,7.949765783E0
9.219613542E0,7.951162543E0,-3.228678409E0,5.133475274E-1,8.597027145E0
9.229636542E0,7.769659706E0,-4.029651352E0,-1.075069070E-1,8.753128567E0
9.239660542E0,7.537970803E0,-4.296888403E0,-1.016518561E0,8.735992431E0
9.249684542E0,7.351161034E0,-4.513515463E0,-1.466078812E0,8.749901569E0
9.259708542E0,7.032303593E0,-4.242890536E0,-2.034050444E0,8.461251393E0
9.269732542E0,6.599340663E0,-3.787020553E0,-1.892511572E0,7.840562602E0
9.279756542E0,6.100443360E0,-3.727502622E0,-1.179064066E0,7.245679889E0
9.289780542E0,6.029793207E0,-3.575009869E0,-1.031640045E0,7.085434557E0
9.299803542E0,6.199831992E0,-3.283828470E0,-1.229468892E0,7.122712960E0
9.309827542E0,6.491153140E0,-3.071074020E0,-1.428142662E0,7.321622511E0
9.319851542E0,6.694080175E0,-3.038457667E0,-1.400550967E0,7.483613926E0
9.329875542E0,6.422632543E0,-2.795817221E0,-1.305309618E0,7.125351635E0
9.339899542E0,5.839253499E0,-2.274572151E0,-1.137036692E0,6.368941226E0
9.349923542E0,5.046471629E0,-1.699799185E0,-8.666152471E-1,5.395110300E0
9.359946542E0,4.279523926E0,-1.082809468E0,-6.193166167E-1,4.457617576E0
9.369970542E0,3.513045171E0,-5.056129767E-1,-4.125747856E-1,3.573142708E0
9.379994542E0,2.617182151E0,-4.843190253E-2,-3.366504445E-1,2.639189569E0
9.390018542E0,1.907927756E0,3.120499657E-1,-3.496266586E-1,1.964637958E0
9.400042542E0,1.264086163E0,5.642513403E-1,-3.067876909E-1,1.417890013E0
9.410065542E0,6.205766916E-1,7.089553097E-1,-2.999025214E-1,9.887742835E-1
9.420089542E0,1.313132608E-1,8.407553512E-1,-3.015374029E-1,9.027942946E-1
9.430113542E0,-4.141302180E-1,9.045538826E-1,-3.076436502E-1,1.041329045E0
9.440137542E0,-1.009006058E0,1.043611927E0,-4.532972074E-1,1.520755548E0
9.450161542E0,-1.504771593E0,1.268102031E0,-5.623080182E-1,2.046609541E0
9.460185542E0,-1.775353836E0,1.389488766E0,-5.385800171E-1,2.317893161E0
9.470209542E0,-1.940180998E0,1.444412540E0,-3.795708346E-1,2.448408444E0
9.480232542E0,-2.149521843E0,1.452896996E0,-1.840970998E-1,2.601008569E0
9.490256542E0,-2.278330742E0,1.410509506E0,-7.604406282E-2,2.680692212E0
9.500280542E0,-2.323104626E0,1.282883207E0,3.371796906E-2,2.654004772E0
9.510304542E0,-2.358890755E0,1.149568883E0,1.140749381E-1,2.626573301E0
9.520328542E0,-2.549577228E0,8.933675744E-1,8.855461925E-3,2.701578814E0
9.530351542E0,-2.803190852E0,7.683802700E-1,-1.009814143E-1,2.908347372E0
9.540375542E0,-3.074623865E0,7.439688756E-1,-2.293897784E-1,3.171659072E0
9.550399542E0,-3.398672463E0,6.556066297E-1,-2.725037844E-1,3.472038721E0
9.560423542E0,-3.658022790E0,6.801044168E-1,-4.705862546E-1,3.750349873E0
9.570447542E0,-3.706265243E0,6.595403440E-1,-6.671281296E-1,3.823147323E0
9.580471542E0,-3.537957818E0,4.118859105E-1,-4.312583207E-1,3.587865558E0
9.590495542E0,-3.900052494E0,7.546941309E-1,-4.988885325E-1,4.003606182E0
9.600518542E0,-4.290412611E0,8.514550249E-1,-1.303193657E0,4.564091338E0
9.610542542E0,-4.028747957E0,4.985197194E-1,-1.251434250E0,4.247990077E0
9.620566542E0,-3.652690714E0,2.836241654E-1,-1.000422638E0,3.797820108E0
9.630590542E0,-3.055297063E0,4.434268150E-1,-1.145350994E0,3.292916091E0
9.640614542E0,-2.194446586E0,9.102593033E-1,-1.449793147E0,2.783175882E0
9.650637542E0,-1.617466149E0,1.058319282E0,-1.270173407E0,2.312915245E0
9.660661542E0,-1.017038963E0,8.290182352E-1,-7.478834403E-1,1.510287763E0
9.670685542E0,-7.307791650E-2,5.815845340E-1,-5.795032176E-1,8.242602328E-1
9.680709542E0,5.704391563E-1,3.544747312E-1,-5.608625865E-1,8.749971469E-1
9.690733542E0,1.080200586E0,2.019635595E-1,-4.335359573E-1,1.181345001E0
9.700757542E0,1.463969137E0,2.572396280E-1,-3.834682962E-1,1.535065404E0
9.710781542E0,1.418928620E0,2.474956816E-1,-1.357425267E-1,1.446733760E0
9.720804542E0,1.268210204E0,2.668017259E-1,1.112906402E-1,1.300740516E0
9.730828542E0,1.238935534E0,4.272589713E-1,2.722720885E-1,1.338522909E0
9.740852542E0,1.265513468E0,5.152103041E-1,1.988000697E-1,1.380756120E0
9.750876542E0,1.216558240E0,5.480685863E-1,-9.675943226E-2,1.337817444E0
9.760900542E0,1.010479556E0,2.423298128E-1,-1.464321139E-1,1.049397463E0
9.770923542E0,9.237840593E-1,-1.205523375E-1,-3.126433119E-1,9.826778184E-1
9.780947542E0,1.083363345E0,-2.229777217E-1,-6.992261276E-1,1.308553545E0
9.790971542E0,1.074362141E0,-3.848172489E-1,-4.330652565E-1,1.220607981E0
9.800995542E0,8.672081548E-1,-8.087359983E-1,1.090973496E-2,1.185842705E0
9.811019542E0,6.315565932E-1,-9.229905921E-1,-1.159871238E-1,1.124379107E0
9.821043542E0,5.393115038E-1,-8.422779661E-1,-5.822715819E-2,1.001838047E0
9.831066542E0,7.266861141E-2,-8.797904858E-1,-2.518056643E-1,9.179967966E-1
9.841090542E0,-4.044507372E-1,-9.323886757E-1,-6.733682781E-1,1.219161138E0
9.851114542E0,-7.076569355E-1,-1.023107934E0,-9.056126672E-1,1.538721055E0
9.861138542E0,-9.577306545E-1,-1.217272331E0,-1.165746521E0,1.938547107E0
9.871162542E0,-1.151804420E0,-1.483587715E0,-1.468756253E0,2.384309304E0
9.881186542E0,-1.150688771E0,-1.708879618E0,-1.575135816E0,2.593338975E0
9.891209542E0,-1.067969965E0,-1.763249807E0,-1.646800461E0,2.638477115E0
9.901233542E0,-1.056411774E0,-1.520931835E0,-1.845356117E0,2.614302714E0
9.911257542E0,-1.084407658E0,-1.600272704E0,-1.629765767E0,2.528428198E0
9.921281542E0,-1.101206124E0,-1.517461805E0,-1.143634690E0,2.196188872E0
9.931305542E0,-1.142637155E0,-1.301242295E0,-1.039858307E0,2.019939721E0
9.941329542E0,-1.140771309E0,-1.245913602E0,-1.032975549E0,1.980075343E0
9.951352542E0,-9.206335795E-1,-1.184415657E0,-8.970663768E-1,1.747894368E0
9.961376542E0,-6.781045228E-1,-1.330755531E0,-6.831974477E-1,1.642405181E0
9.971400542E0,-4.384949809E-1,-9.819537686E-1,-6.889452606E-1,1.277167422E0
9.981424542E0,-1.256356144E-1,-3.549594654E-1,-3.591500187E-1,5.203549420E-1
9.991448542E0,-2.358474433E-2,-3.467088249E-1,4.717083353E-1,5.858941909E-1
1.000147254E1,-6.978885770E-2,-3.566357160E-1,8.434555954E-1,9.184099629E-1
1.001149554E1,-3.896391553E-1,-1.014947268E-1,9.234297180E-1,1.007393813E0
1.002151954E1,-6.440824986E-1,-1.218123394E-1,9.410128802E-1,1.146815483E0
1.003154354E1,-6.649243140E-1,-5.554233603E-2,5.423508865E-1,8.598568361E-1
1.004156754E1,-9.757348162E-1,4.854965083E-2,-1.694131333E-1,9.915222185E-1
1.005159154E1,-1.508663499E0,1.835652955E-1,-6.585999656E-1,1.656356147E0
1.006161554E1,-1.802525262E0,2.932828154E-1,-8.712199295E-1,2.023397217E0
1.007163854E1,-1.849902327E0,3.173732708E-1,-9.519243693E-1,2.104524749E0
1.008166254E1,-1.998232740E0,4.511674321E-1,-9.858601472E-1,2.273412933E0
1.009168654E1,-2.196849207E0,4.828762979E-1,-8.135868484E-1,2.391911268E0
1.010171054E1,-2.403329594E0,4.456077533E-1,-8.170103931E-1,2.577220478E0
1.011173454E1,-2.629955978E0,4.975273007E-1,-9.013874692E-1,2.824305443E0
1.012175854E1,-2.940291687E0,5.396159975E-1,-1.241252494E0,3.236851615E0
1.013178154E1,-3.232702171E0,5.538160338E-1,-1.339904962E0,3.542939575E0
1.014180554E1,-3.354538264E0,5.752591623E-1,-1.313874327E0,3.648303142E0
1.015182954E1,-3.577759230E0,4.106310249E-1,-1.553544680E0,3.922050487E0
1.016185354E1,-3.691900388E0,3.563537340E-1,-1.634476869E0,4.053224777E0
1.017187754E1,-3.759700023E0,5.851370830E-1,-1.908791975E0,4.256902215E0
1.018190154E1,-3.818021321E0,5.544227555E-1,-1.856190423E0,4.281368273E0
1.019192454E1,-3.845312616E0,4.080638780E-1,-1.620924193E0,4.192891661E0
1.020194467E1,-3.878844059E0,3.736667548E-1,-1.548784170E0,4.193303051E0
1.021196867E1,-4.028575464E0,3.631481986E-1,-1.536840062E0,4.327028340E0
1.022199267E1,-4.088559710E0,2.009433666E-1,-1.431950369E0,4.336724640E0
1.023201667E1,-4.101690803E0,1.593763145E-1,-1.373676725E0,4.328539707E0
1.024204067E1,-4.294196345E0,2.456447455E-1,-1.400460189E0,4.523466848E0
1.025206367E1,-4.433102215E0,2.858075157E-1,-1.335215787E0,4.638629365E0
1.026208767E1,-4.507523822E0,2.258983328E-1,-1.333298193E0,4.706005220E0
1.027211167E1,-4.162783681E0,1.287078146E-1,-1.411353844E0,4.397414394E0
1.028213567E1,-3.640292278E0,-3.551174864E-2,-1.430566333E0,3.911458678E0
1.029215967E1,-3.243227159E0,-1.003386591E-1,-1.563815607E0,3.601959120E0
1.030218267E1,-2.815409778E0,-1.300539167E-1,-1.667764191E0,3.274886813E0
1.031220667E1,-2.464767458E0,-2.272287206E-1,-1.526764725E0,2.908216299E0
1.032223067E1,-2.267185948E0,-3.184340288E-1,-1.183806523E0,2.577388260E0
1.033225467E1,-1.955027078E0,-2.978570922E-1,-8.720060876E-1,2.161306166E0
1.034227867E1,-1.541354697E0,-2.814454928E-1,-5.493204752E-1,1.660342993E0
1.035230267E1,-8.467984486E-1,-2.986632771E-1,-2.635220227E-1,9.357944336E-1
1.036232567E1,-1.055317175E-1,-2.100102054E-1,-2.295622712E-1,3.285423354E-1
1.037234967E1,9.079702646E-1,-6.297612056E-2,-2.513583523E-1,9.442229686E-1
1.038237367E1,2.011027617E0,-1.186484841E-1,1.122998697E-1,2.017652299E0
1.039239767E1,2.694899248E0,-2.232139492E-1,6.564210007E-1,2.782659691E0
1.040242167E1,3.584229174E0,-3.927276546E-1,1.316757589E0,3.838591452E0
1.041244567E1,4.679048384E0,-6.317656311E-1,2.058638570E0,5.150787742E0
1.042246867E1,5.531591722E0,-8.863725503E-1,2.328953011E0,6.066974980E0
1.043249267E1,6.019352419E0,-7.758525731E-1,2.074551475E0,6.413915698E0
1.044251667E1,6.190616196E0,-4.975267160E-1,2.183500598E0,6.583231469E0
1.045254067E1,6.317572111E0,-4.186335973E-1,2.342227068E0,6.750777667E0
1.046256467E1,6.770286936E0,-4.404007347E-1,2.424118492E0,7.204657415E0
1.047258867E1,7.595699778E0,-4.860917549E-1,2.568559629E0,8.032959535E0
1.048261167E1,8.217134841E0,-5.264641477E-1,2.553386689E0,8.620803506E0
1.049263567E1,8.506358593E0,-3.865845698E-1,2.528228459E0,8.882540362E0
1.050265967E1,8.880589165E0,-2.760390110E-1,2.592108706E0,9.255273578E0
1.051268367E1,9.292248935E0,-3.932644290E-1,2.399663975E0,9.605151449E0
1.052270767E1,9.907269602E0,-5.336534455E-1,2.278352376E0,1.017986574E1
1.053273167E1,1.070272950E1,-9.091151494E-1,2.288004667E0,1.098225270E1
1.054275467E1,1.142750474E1,-1.359926267E0,2.315953920E0,1.173886309E1
1.055277867E1,1.196455162E1,-1.696684519E0,2.289561781E0,1.229924091E1
1.056280267E1,1.241906622E1,-2.108098267E0,2.421838955E0,1.282741548E1
1.057282667E1,1.270715385E1,-2.549117637E0,2.653188136E0,1.322910303E1
1.058285067E1,1.314594412E1,-2.914423020E0,2.608246144E0,1.371541674E1
1.059287467E1,1.354060545E1,-3.055532706E0,2.351367728E0,1.407882119E1
1.060289767E1,1.475373780E1,-3.318014216E0,2.188963505E0,1.527984158E1
1.061292167E1,1.659470442E1,-4.030973992E0,2.457706361E0,1.725321090E1
1.062294567E1,1.819656669E1,-4.758504151E0,3.269441396E0,1.909051199E1
1.063296967E1,1.903683964E1,-5.285995216E0,3.695430352E0,2.009973170E1
1.064299367E1,1.949427200E1,-5.438076618E0,3.816900118E0,2.059534036E1
1.065301767E1,1.931204118E1,-5.236159397E0,3.840853529E0,2.037460321E1
1.066304067E1,1.836348481E1,-4.950399536E0,3.579156130E0,1.935289096E1
1.067306467E1,1.678188081E1,-4.572672329E0,3.148088282E0,1.767629247E1
1.068308867E1,1.461549559E1,-4.097770537E0,2.653622584E0,1.540928771E1
1.069311267E1,1.225204635E1,-3.886474675E0,2.209957349E0,1.304228648E1
1.070313667E1,9.320347145E0,-4.065361467E0,2.078327900E0,1.037860692E1
1.071315967E1,5.615971722E0,-4.771584080E0,2.350059267E0,7.734981033E0
1.072318367E1,2.071971391E0,-5.501076273E0,2.672285727E0,6.457245281E0
1.073320767E1,-3.644236225E-1,-5.544228140E0,2.819611588E0,6.230688545E0
1.074323167E1,-2.073924946E0,-4.611428259E0,2.725345116E0,5.744035278E0
1.075325567E1,-4.498141379E0,-3.187989097E0,1.903176309E0,5.832549221E0
1.076327967E1,-6.712590705E0,-7.086401448E-1,8.078710489E-1,6.798065935E0
1.077330267E1,-9.112655799E0,2.623356226E0,-6.961285651E-1,9.508264225E0
1.078332667E1,-1.164067902E1,5.877423538E0,-2.054518037E0,1.320115752E1
1.079335067E1,-1.465217752E1,8.921213865E0,-2.908604456E0,1.739926270E1
1.080337467E1,-1.712031765E1,1.126983808E1,-4.034569445E0,2.089000424E1
1.081339867E1,-1.884337749E1,1.225659899E1,-4.853999416E0,2.299692163E1
1.082342267E1,-1.892933273E1,1.151354535E1,-5.533423655E0,2.283637759E1
1.083344567E1,-1.791315331E1,9.504168402E0,-5.965783737E0,2.113766435E1
1.084346967E1,-1.664144238E1,7.431171409E0,-5.910531642E0,1.915970504E1
1.085349367E1,-1.444133978E1,5.709411398E0,-5.450811269E0,1.645785577E1
1.086351767E1,-1.218112781E1,4.433938367E0,-4.298138537E0,1.365700110E1
1.087354167E1,-1.004340448E1,3.298831256E0,-2.610940248E0,1.088895175E1
1.088356567E1,-7.454781881E0,2.341082768E0,-9.756951282E-1,7.874415686E0
1.089358867E1,-5.214263914E0,1.095902407E0,6.874593370E-1,5.372350564E0
1.090361267E1,-3.634887112E0,3.587781358E-1,1.936813002E0,4.134292040E0
1.091363667E1,-2.450965691E0,-9.082450837E-2,3.263905837E0,4.082715177E0
1.092366067E1,-2.308582481E0,-8.613065600E-2,3.841645242E0,4.482768088E0
1.093368467E1,-2.991212749E0,3.866503510E-1,3.592012403E0,4.690352365E0
1.094370867E1,-3.788451952E0,1.112609656E0,3.163309169E0,5.059327360E0
1.095373167E1,-4.403974895E0,1.578515799E0,2.800377756E0,5.452414381E0
1.096375567E1,-4.800512010E0,2.273479891E0,2.009649428E0,5.679112361E0
1.097377967E1,-5.195589661E0,2.845024171E0,1.409815734E0,6.088997854E0
1.098380367E1,-5.575161080E0,3.326430991E0,8.251742025E-1,6.544346925E0
1.099382767E1,-5.656782364E0,3.785106467E0,3.015936092E-1,6.813015220E0
1.100385067E1,-5.888746671E0,3.954861955E0,-1.358150321E-1,7.094837289E0
1.101387467E1,-6.342931486E0,3.863724328E0,-5.692294405E-1,7.448836666E0
1.102389867E1,-6.754374908E0,3.674013171E0,-1.054421382E0,7.760912165E0
1.103392267E1,-7.476311329E0,3.353530204E0,-1.412942825E0,8.314914512E0
1.104394667E1,-8.219901159E0,2.868541965E0,-1.714417078E0,8.873248221E0
1.105397067E1,-8.856051325E0,2.600577228E0,-2.249058411E0,9.500047932E0
1.106399367E1,-9.665528750E0,2.543976765E0,-2.566080995E0,1.031886794E1
1.107401767E1,-1.033695341E1,2.602018274E0,-2.812209597E0,1.102413841E1
1.108404167E1,-1.084646692E1,2.874558750E0,-2.991142582E0,1.161274587E1
1.109406567E1,-1.133931353E1,3.224480985E0,-3.004385941E0,1.216567482E1
1.110408967E1,-1.161103832E1,3.759536009E0,-3.247057670E0,1.262908173E1
1.111411367E1,-1.151373363E1,4.346923319E0,-3.327126517E0,1.274878721E1
1.112413667E1,-1.124280172E1,4.783271787E0,-3.478990402E0,1.270368662E1
1.113416067E1,-1.108863521E1,5.105813266E0,-3.490778974E0,1.269695624E1
1.114418467E1,-1.111227082E1,5.418029439E0,-3.224199734E0,1.277626979E1
1.115420867E1,-1.132118248E1,5.357323061E0,-2.867207338E0,1.284877274E1
1.116423267E1,-1.179482098E1,5.035689948E0,-2.476571233E0,1.306175257E1
1.117425667E1,-1.202109653E1,4.885677876E0,-2.435150726E0,1.320252132E1
1.118427967E1,-1.207397056E1,4.724019612E0,-2.499282988E0,1.320392146E1
1.119430367E1,-1.182642986E1,4.645431572E0,-2.398878109E0,1.293054886E1
1.120432796E1,-1.149049796E1,4.680037733E0,-2.432055795E0,1.264314803E1
1.121435196E1,-1.153209155E1,4.572652448E0,-2.028215507E0,1.257028019E1
1.122437596E1,-1.161256327E1,4.583377411E0,-1.628637840E0,1.259013246E1
1.123439896E1,-1.172798497E1,4.461825492E0,-1.420417321E0,1.262818686E1
1.124442296E1,-1.177935393E1,4.348884768E0,-1.214167898E0,1.261507754E1
1.125444696E1,-1.124001143E1,4.211706750E0,-1.059019632E0,1.204980719E1
1.126447096E1,-1.039031627E1,3.650742422E0,-9.766423041E-1,1.105623908E1
1.127449496E1,-8.802909490E0,2.563806428E0,-8.220033306E-1,9.205433632E0
1.128451896E1,-5.922433650E0,1.247675514E0,-7.780077106E-1,6.102229963E0
1.129454196E1,-1.397849992E0,-3.266820382E-1,-6.210689541E-1,1.564107541E0
1.130456596E1,3.442394434E0,-1.664551146E0,-6.350754476E-1,3.876097364E0
1.131458996E1,8.011521596E0,-2.236817849E0,-5.386876424E-1,8.335347428E0
1.132461396E1,1.075835874E1,-2.208456514E0,1.934627312E-1,1.098439760E1
1.133463796E1,1.302917288E1,-2.555579980E0,1.817252060E0,1.340122159E1
1.134466196E1,1.729358000E1,-3.915671577E0,3.691777596E0,1.811158787E1
1.135468496E1,2.141409416E1,-6.233844661E0,5.077206348E0,2.287361520E1
1.136470896E1,2.237122957E1,-7.374413656E0,6.191551166E0,2.435547567E1
1.137473296E1,2.092811102E1,-7.063794358E0,5.841570750E0,2.284747186E1
1.138475696E1,1.787870970E1,-6.366122712E0,4.879064090E0,1.959543430E1
1.139478096E1,1.405885587E1,-4.615282744E0,4.151627194E0,1.536841799E1
1.140480396E1,1.119978493E1,-2.660132874E0,3.360315313E0,1.199179754E1
1.141482796E1,9.505211545E0,-7.120223205E-1,3.092453195E0,1.002094252E1
1.142485196E1,9.249664248E0,6.376015909E-1,2.086308764E0,9.503447203E0
1.143487596E1,9.187586698E0,1.101780467E0,9.146565557E-1,9.298508813E0
1.144489996E1,8.845742099E0,1.187868146E0,-9.286430955E-2,8.925626465E0
1.145492396E1,9.010131304E0,5.348763907E-1,-8.801381028E-1,9.068803777E0
1.146494696E1,8.668169176E0,-3.806471609E-1,-1.180552840E0,8.756469273E0
1.147497096E1,7.044586839E0,-1.292162738E0,-1.097093192E0,7.245653990E0
1.148499496E1,5.913541789E0,-2.582667207E0,-1.286326632E0,6.579877096E0
1.149501896E1,6.385257141E0,-4.215453646E0,-1.728862624E0,7.844139479E0
1.150504296E1,8.010563822E0,-6.547829032E0,-2.332970048E0,1.060593923E1
1.151506696E1,9.566849969E0,-8.436199021E0,-2.548127704E0,1.300719136E1
1.152508996E1,9.960855825E0,-9.049352088E0,-2.384067696E0,1.366723091E1
1.153511396E1,9.194953020E0,-8.627732756E0,-2.017965338E0,1.276938204E1
1.154513796E1,8.242127010E0,-7.467878475E0,-1.251241000E0,1.119229514E1
1.155516196E1,7.956603962E0,-6.233707836E0,-6.978359520E-1,1.013181302E1
1.156518596E1,7.947258357E0,-5.188156096E0,-2.165071929E-1,9.493300502E0
1.157520996E1,7.897081645E0,-4.304069368E0,-3.674620550E-2,8.993901374E0
1.158523296E1,7.773903615E0,-3.638127639E0,-1.022982438E-1,8.583706371E0
1.159525696E1,6.990110085E0,-2.902787938E0,-1.319190689E-1,7.570021100E0
1.160528096E1,5.778126706E0,-2.196658587E0,-1.499764037E-1,6.183409263E0
1.161530496E1,4.733677166E0,-1.662336659E0,-7.897483349E-2,5.017698646E0
1.162532896E1,4.082157594E0,-1.258407932E0,-1.221202683E-1,4.273466334E0
1.163535196E1,3.612402813E0,-9.767669959E-1,-3.132599008E-1,3.755217652E0
1.164537596E1,3.128908830E0,-6.474854319E-1,-4.770427501E-1,3.230615675E0
1.165539996E1,2.763441480E0,-3.339520276E-1,-6.668316758E-1,2.862306282E0
1.166542396E1,2.380952885E0,-1.227342260E-1,-7.720078826E-1,2.505992119E0
1.167544796E1,1.816105421E0,1.013524202E-1,-7.841162968E-1,1.980744703E0
1.168547196E1,1.255566185E0,4.075132164E-1,-7.580599344E-1,1.522224796E0
1.169549496E1,6.524054253E-1,7.378680369E-1,-6.447976130E-1,1.177219623E0
1.170551896E1,4.431312382E-2,1.026718736E0,-4.287137586E-1,1.113512686E0
1.171554296E1,-4.746950930E-1,1.255580803E0,-1.729202932E-1,1.353410511E0
1.172556696E1,-9.129012215E-1,1.417988387E0,6.848785222E-2,1.687830054E0
1.173559096E1,-1.313404503E0,1.570496635E0,2.840624142E-1,2.066925864E0
1.174561496E1,-1.782055914E0,1.701771305E0,4.870373958E-1,2.511763182E0
1.175563796E1,-2.125555276E0,1.810612546E0,6.954502881E-1,2.877490943E0
1.176566196E1,-2.371025482E0,1.907740353E0,9.040982383E-1,3.174685609E0
1.177568596E1,-2.792053075E0,2.052488177E0,1.066946703E0,3.625830023E0
1.178570996E1,-3.268385974E0,2.184319208E0,1.205680080E0,4.111844079E0
1.179573396E1,-3.552930198E0,2.281456371E0,1.177797632E0,4.383556025E0
1.180575696E1,-3.762392081E0,2.378192999E0,1.044767629E0,4.571972825E0
1.181578096E1,-3.869696090E0,2.401938542E0,8.565206140E-1,4.634380665E0
1.182580496E1,-3.845254143E0,2.431151816E0,5.586663723E-1,4.583512484E0
1.183582896E1,-3.882027867E0,2.576455125E0,2.608670944E-1,4.666509725E0
1.184585296E1,-4.053652418E0,2.714077239E0,1.379732394E-1,4.880302224E0
1.185587696E1,-4.205666576E0,2.862470801E0,9.702868740E-2,5.088298832E0
1.186589996E1,-4.168458404E0,2.957387776E0,-6.339902043E-2,5.111380181E0
1.187592396E1,-3.899530338E0,3.019280261E0,-2.264270307E-1,4.936968640E0
1.188594796E1,-3.696658852E0,2.916014047E0,-2.936594492E-1,4.717484548E0
1.189597196E1,-3.577080368E0,2.692709759E0,-3.100421780E-1,4.488019158E0
1.190599596E1,-3.324450831E0,2.522358440E0,-3.488127261E-1,4.187593073E0
1.191601996E1,-3.093846002E0,2.281655468E0,-4.371395963E-1,3.868969602E0
1.192604296E1,-2.770272197E0,1.983704748E0,-5.653596435E-1,3.453856410E0
1.193606696E1,-2.289144582E0,1.739021577E0,-6.558470964E-1,2.948646194E0
1.194609096E1,-1.975235640E0,1.403335265E0,-6.223899132E-1,2.501654434E0
1.195611496E1,-1.829682071E0,1.013039760E0,-5.756835240E-1,2.169192835E0
1.196613896E1,-1.744564737E0,4.892900357E-1,-5.903646765E-1,1.905634097E0
1.197616196E1,-1.633026760E0,-8.732816577E-3,-6.793102187E-1,1.768704337E0
1.198618596E1,-1.377300537E0,-3.522239918E-1,-8.729407650E-1,1.668245812E0
1.199620996E1,-8.471334940E-1,-7.745081520E-1,-1.030952412E0,1.542841830E0
1.200623396E1,-2.486271179E-1,-1.119352958E0,-1.234603332E0,1.684936757E0
1.201625796E1,3.572221917E-1,-1.263003843E0,-1.383179328E0,1.906822345E0
1.202628196E1,6.953555632E-1,-1.390236917E0,-1.340043833E0,2.052314674E0
1.203630496E1,8.240749991E-1,-1.453182778E0,-1.069551637E0,1.983628114E0
1.204632896E1,9.390873921E-1,-1.499816954E0,-7.837982082E-1,1.935374811E0
1.205635296E1,1.211078814E0,-1.636341839E0,-6.479586178E-1,2.136393428E0
1.206637696E1,1.675984499E0,-1.807325534E0,-5.924930996E-1,2.535034063E0
1.207640096E1,1.837378176E0,-1.888583120E0,-5.300033943E-1,2.687677131E0
1.208642496E1,2.103963262E0,-1.936220679E0,-4.477371631E-1,2.894145901E0
1.209644796E1,2.182237015E0,-1.889317531E0,-4.089555053E-1,2.915291362E0
1.210647196E1,1.864770627E0,-1.788215664E0,-3.406364914E-1,2.605977354E0
1.211649596E1,1.562301178E0,-1.617925740E0,-2.620049991E-1,2.264313426E0
1.212651996E1,1.253046620E0,-1.364189910E0,-1.574591221E-1,1.859014072E0
1.213654396E1,8.058299321E-1,-1.120928198E0,-9.643535033E-2,1.383886441E0
1.214656696E1,3.218354273E-1,-8.569562316E-1,-1.768307649E-2,9.155679747E-1
1.215659096E1,-1.748697549E-1,-5.114050823E-1,-8.569269955E-2,5.472274008E-1
1.216661496E1,-6.273313951E-1,-2.794647485E-1,-1.359262023E-1,7.000865357E-1
1.217663896E1,-1.039618571E0,-3.961605549E-2,-1.833844703E-1,1.056411884E0
1.218666296E1,-1.327892150E0,1.443028504E-1,-3.062017268E-1,1.370357753E0
1.219668696E1,-1.456510429E0,2.685254851E-1,-4.012517256E-1,1.534448276E0
1.220671021E1,-1.375299620E0,3.076866272E-1,-4.369987515E-1,1.475495854E0
1.221673421E1,-1.295540675E0,3.468024534E-1,-4.412642223E-1,1.411882324E0
1.222675821E1,-1.356957489E0,4.592941117E-1,-4.112663249E-1,1.490444463E0
1.223678221E1,-1.469891197E0,5.591756648E-1,-3.730003184E-1,1.616287967E0
1.224680621E1,-1.460627453E0,6.708922747E-1,-2.715043491E-1,1.630105399E0
1.225683021E1,-1.418145093E0,7.152080297E-1,-2.108606098E-1,1.602223526E0
1.226685321E1,-1.468735203E0,6.860798326E-1,-2.055483413E-1,1.634055921E0
1.227687721E1,-1.485062968E0,6.469736543E-1,-2.188706374E-1,1.634592085E0
1.228690121E1,-1.365110262E0,5.745570579E-1,-2.833571669E-1,1.507956606E0
1.229692521E1,-1.252292329E0,4.583991954E-1,-3.524438471E-1,1.379341352E0
1.230694921E1,-1.107362072E0,3.693095559E-1,-3.122027242E-1,1.208350466E0
1.231697221E1,-9.831829995E-1,2.997083938E-1,-2.405579603E-1,1.055624016E0
1.232699621E1,-8.786049628E-1,2.107555792E-1,-1.548880649E-1,9.167087365E-1
1.233702021E1,-7.961305708E-1,1.365222529E-1,-9.285838924E-2,8.130712710E-1
1.234704421E1,-7.879690272E-1,7.484465271E-2,-7.763582110E-2,7.953139195E-1
1.235706821E1,-8.855304050E-1,4.719141573E-2,-7.833456337E-2,8.902400978E-1
1.236709221E1,-1.125682569E0,2.200047049E-1,-1.432439196E-1,1.155890192E0
1.237711521E1,-1.459259790E0,3.845997325E-1,-1.400583565E-1,1.515576600E0
1.238713921E1,-1.807432830E0,5.886052859E-1,-1.777208573E-1,1.909150157E0
1.239716321E1,-2.150355656E0,8.100937217E-1,-2.662629050E-1,2.313261166E0
1.240718721E1,-2.413904868E0,1.051290490E0,-3.538283946E-1,2.656566005E0
1.241721121E1,-2.549256216E0,1.255067125E0,-4.160339984E-1,2.871756437E0
1.242723521E1,-2.677200896E0,1.387075620E0,-4.643525380E-1,3.050738713E0
1.243725821E1,-2.859270912E0,1.499883905E0,-5.341512629E-1,3.272674663E0
1.244728221E1,-3.217928596E0,1.685820685E0,-6.066557137E-1,3.683081181E0
1.245730621E1,-3.650648866E0,1.965914302E0,-7.367100690E-1,4.211270344E0
1.246733021E1,-4.052777674E0,2.169709355E0,-8.100831237E-1,4.667856064E0
1.247735421E1,-4.199528169E0,2.193779711E0,-9.148745837E-1,4.825526061E0
1.248737721E1,-4.123782753E0,2.275994487E0,-1.123439504E0,4.842298154E0
1.249740121E1,-3.920342917E0,2.078687503E0,-1.092891895E0,4.569950002E0
1.250742521E1,-3.256244230E0,1.876591943E0,-1.169920263E0,3.936170376E0
1.251744921E1,-2.658819004E0,1.683543195E0,-1.166623018E0,3.356284471E0
1.252747321E1,-2.838383489E0,1.742348058E0,-9.526288857E-1,3.464058224E0
1.253749721E1,-3.333418121E0,2.254948311E0,-7.614952467E-1,4.095893464E0
1.254752021E1,-3.251200422E0,2.291250457E0,-5.476817930E-1,4.014982962E0
1.255754421E1,-2.821293247E0,2.113331233E0,-1.572333100E-1,3.528538904E0
1.256756821E1,-2.489291266E0,2.153458920E0,-2.883664765E-1,3.304105257E0
1.257759221E1,-1.912842341E0,1.963395613E0,-6.378265625E-1,2.814375753E0
1.258761621E1,-1.374079891E0,1.863477954E0,-8.584121883E-1,2.469315111E0
1.259763921E1,-1.625984373E0,1.884462588E0,-8.946088652E-1,2.644872293E0
1.260766321E1,-1.877280160E0,1.484395216E0,-9.873076254E-1,2.588896735E0
1.261768721E1,-1.590663098E0,1.006248511E0,-1.122827519E0,2.191685834E0
1.262771121E1,-1.394102511E0,5.881399937E-1,-1.123488182E0,1.884583816E0
1.263773521E1,-1.556932265E0,3.884903236E-1,-7.348050461E-1,1.764908288E0
1.264775921E1,-1.838411964E0,1.968402292E-1,-5.720541573E-1,1.935394167E0
1.265778221E1,-1.773638847E0,-9.918120280E-2,-7.181936181E-1,1.916098574E0
1.266780621E1,-2.089762130E0,-1.820768137E-1,-7.430084704E-1,2.225380712E0
1.267783021E1,-2.561511396E0,-1.250489925E-1,-8.039571420E-1,2.687624409E0
1.268785421E1,-2.689068405E0,-3.602900065E-1,-9.675003286E-1,2.880443483E0
1.269787821E1,-2.494228655E0,-6.083840045E-1,-1.107765092E0,2.796149348E0
1.270790121E1,-2.097343630E0,-7.964331642E-1,-1.083727042E0,2.491509660E0
1.271792521E1,-1.648387980E0,-9.545805401E-1,-1.105829517E0,2.202558935E0
1.272794921E1,-7.984957695E-1,-1.059303368E0,-1.129749746E0,1.742427504E0
1.273797321E1,6.445093453E-1,-1.160110097E0,-9.649157131E-1,1.640826032E0
1.274799721E1,1.559322606E0,-1.433279149E0,-3.257350085E-1,2.142867099E0
1.275802121E1,2.682384453E0,-1.994786244E0,5.642884701E-1,3.390100292E0
1.276804421E1,3.618712544E0,-2.846002411E0,1.486760999E0,4.837899179E0
1.277806821E1,4.492269021E0,-3.810670494E0,2.269936625E0,6.313026441E0
1.278809221E1,6.213575873E0,-4.500081486E0,2.271395359E0,8.001155878E0
1.279811621E1,8.383817325E0,-4.150999203E0,2.307422394E0,9.635527252E0
1.280814021E1,1.054211350E1,-2.220414363E0,2.779176922E0,1.112610540E1
1.281816421E1,1.340771227E1,4.227567249E-1,3.824840929E0,1.394900999E1
1.282818721E1,1.602694211E1,3.250213704E0,5.020914034E0,1.710661686E1
1.283821121E1,1.861413390E1,4.935609004E0,5.628344430E0,2.006301269E1
1.284823521E1,2.056101346E1,5.507178428E0,6.042281690E0,2.212675884E1
1.285825921E1,2.208772381E1,5.574669914E0,5.835397260E0,2.351587440E1
1.286828321E1,2.337972692E1,5.857247720E0,5.754038517E0,2.477958718E1
1.287830621E1,2.441273814E1,6.057655774E0,5.735776493E0,2.579876177E1
1.288833021E1,2.473330823E1,5.579778042E0,5.151213387E0,2.587287109E1
1.289835421E1,2.501496861E1,4.905111682E0,4.481442316E0,2.588227386E1
1.290837821E1,2.309860916E1,3.605073621E0,4.145921481E0,2.374301931E1
1.291840221E1,2.030677185E1,2.109934147E0,3.929214313E0,2.079075588E1
1.292842621E1,1.822712657E1,6.365710191E-2,4.066548452E0,1.867535841E1
1.293844921E1,1.725870487E1,-2.235304882E0,4.440062156E0,1.796033501E1
1.294847321E1,1.737020192E1,-3.732687641E0,4.641796943E0,1.836309207E1
1.295849721E1,1.807976621E1,-5.616066447E0,4.466622548E0,1.945170598E1
1.296852121E1,1.488697129E1,-7.418208132E0,3.874793692E0,1.707822450E1
1.297854521E1,9.906942158E0,-8.751122455E0,1.092729415E0,1.326362336E1
1.298856921E1,7.536009062E0,-9.818624643E0,-1.787205850E0,1.250563582E1
1.299859221E1,5.181448755E0,-1.053806840E1,-3.617990705E0,1.228772369E1
1.300861621E1,3.012755646E0,-1.008823391E1,-5.278112000E0,1.177742019E1
1.301864021E1,2.556805556E0,-8.558200006E0,-5.437014763E0,1.045663290E1
1.302866421E1,2.399492651E0,-6.523409305E0,-4.309223104E0,8.178131676E0
1.303868821E1,1.523143544E0,-5.801679876E0,-2.952106571E0,6.685386215E0
1.304871121E1,-1.739156647E0,-5.755727777E0,-1.404103297E0,6.174510034E0
1.305873521E1,-8.745177591E0,-4.256732649E0,-2.224558577E-1,9.728689046E0
1.306875921E1,-1.279283077E1,-3.872750967E0,2.156715234E0,1.353905978E1
1.307878321E1,-1.463501477E1,-5.375758163E0,4.734392281E0,1.629407571E1
1.308880721E1,-1.612610738E1,-5.444003940E0,5.028593767E0,1.774754275E1
1.309883121E1,-1.672519556E1,-5.767333331E0,2.811954659E0,1.791372070E1
1.310885421E1,-1.739763588E1,-4.617717817E0,4.017616028E-1,1.800451234E1
1.311887821E1,-1.812880798E1,-4.246404712E0,-1.155888700E0,1.865534000E1
1.312890221E1,-2.011453411E1,-3.869826190E0,-2.504995133E0,2.063601313E1
1.313892621E1,-2.042206491E1,-4.095254188E0,-3.836480981E0,2.117900915E1
1.314895021E1,-1.822101623E1,-5.850654400E0,-3.751028602E0,1.950143085E1
1.315897321E1,-1.461069737E1,-5.685982189E0,-3.117133707E0,1.598497399E1
1.316899721E1,-9.505750074E0,-4.599917723E0,-2.108700677E0,1.076871144E1
1.317902121E1,-4.638164068E0,-3.538252810E0,-1.987269064E-1,5.837061868E0
1.318904521E1,-1.664674814E0,-1.779801813E0,1.489260684E0,2.855999670E0
1.319907292E1,-1.283134637E0,3.085182475E-1,3.868723698E0,4.087620464E0
1.320909692E1,-2.057263305E0,1.442049826E0,6.077401822E0,6.576218739E0
1.321911992E1,-7.628131360E-1,1.335285808E0,6.637348734E0,6.813168887E0
1.322914392E1,-9.250207454E-1,1.529029205E0,6.647909975E0,6.883916089E0
1.323916792E1,-2.347940674E0,1.804260570E0,6.127209574E0,6.805209679E0
1.324919192E1,-2.931368836E0,2.108639573E0,5.795783544E0,6.828644886E0
1.325921592E1,-3.983884610E0,2.399020927E0,5.557592536E0,7.246618024E0
1.326923992E1,-5.371940516E0,2.542628397E0,5.299269565E0,7.962723278E0
1.327926292E1,-5.970410639E0,2.340240768E0,4.416659260E0,7.786488879E0
1.328928692E1,-5.614243870E0,1.602261927E0,1.967152449E0,6.160898171E0
1.329931092E1,-4.929778746E0,1.334571424E0,-1.584130588E0,5.347267441E0
1.330933492E1,-5.526350278E0,2.820872832E0,-3.283279417E0,7.019814432E0
1.331935892E1,-7.044862243E0,4.315309471E0,-3.112840682E0,8.828462888E0
1.332938192E1,-7.408715762E0,4.915557733E0,-2.950800887E0,9.367977527E0
1.333940592E1,-7.946744971E0,4.839917859E0,-2.582736788E0,9.656401495E0
1.334942992E1,-8.161152429E0,4.900246506E0,-1.823626694E0,9.692390784E0
1.335945392E1,-8.102086780E0,4.928800507E0,-2.162818996E0,9.727007281E0
1.336947792E1,-8.432904115E0,4.890115620E0,-2.392571887E0,1.003750481E1
1.337950092E1,-8.614282991E0,4.806873196E0,-2.531419285E0,1.018430091E1
1.338952492E1,-8.494251933E0,5.082535501E0,-2.546964108E0,1.022113052E1
1.339954892E1,-8.460605884E0,5.242011291E0,-2.447388364E0,1.024940213E1
1.340957292E1,-8.051163379E0,5.150877757E0,-2.487968625E0,9.876373895E0
1.341959692E1,-7.573640572E0,5.571630532E0,-2.315341862E0,9.683176454E0
1.342962092E1,-7.364630095E0,5.992285073E0,-2.032419071E0,9.709582077E0
1.343964392E1,-7.562659501E0,6.285444585E0,-1.872767864E0,1.001038920E1
1.344966792E1,-8.210112335E0,6.373107212E0,-1.758588699E0,1.054111352E1
1.345969192E1,-8.690526590E0,6.215849855E0,-1.778807786E0,1.083172188E1
1.346971592E1,-8.990363038E0,6.140667526E0,-1.975768322E0,1.106517445E1
1.347973992E1,-9.402106422E0,6.347345549E0,-2.242696055E0,1.156365367E1
1.348976292E1,-9.308308312E0,6.906893681E0,-2.741798596E0,1.191080365E1
1.349978692E1,-9.713067783E0,7.517131326E0,-2.917713248E0,1.262394549E1
1.350981092E1,-1.049409616E1,8.141997535E0,-2.461356193E0,1.350838453E1
1.351983492E1,-1.142702995E1,8.590457926E0,-1.713452872E0,1.439822564E1
1.352985892E1,-1.199336085E1,8.733826976E0,-7.697637212E-1,1.485641189E1
1.353988292E1,-1.245210415E1,8.437326365E0,2.723636705E-2,1.504141336E1
1.354990592E1,-1.286837679E1,7.911551165E0,4.997147806E-1,1.511414827E1
1.355992992E1,-1.327890512E1,8.100408629E0,5.373112078E-1,1.556388912E1
1.356995392E1,-1.382032572E1,7.738686420E0,5.686499448E-1,1.584966982E1
1.357997792E1,-1.416215745E1,6.937643019E0,1.144397167E0,1.581161723E1
1.359000192E1,-1.339989922E1,6.023589311E0,1.061990018E0,1.472985913E1
1.360002492E1,-1.254434164E1,4.212254634E0,4.594320695E-1,1.324064478E1
1.361004892E1,-1.117003546E1,2.440567733E0,2.073481508E-1,1.143542987E1
1.362007292E1,-9.281975961E0,9.759726517E-1,5.069863415E-1,9.346905130E0
1.363009692E1,-5.980462003E0,3.889534231E-1,9.200968051E-1,6.063314990E0
1.364012092E1,8.435380411E-1,8.115150337E-1,6.798065742E-1,1.353606315E0
1.365014492E1,1.006258334E1,1.061813578E0,9.655659235E-1,1.016441583E1
1.366016792E1,1.671706091E1,1.433738594E0,2.149446999E0,1.691555066E1
1.367019192E1,2.090062443E1,1.337820576E0,4.538419340E0,2.142949172E1
1.368021592E1,2.652262404E1,-3.265032595E-1,7.778711196E0,2.764171736E1
1.369023992E1,3.345604187E1,-2.683224113E0,9.850603065E0,3.497914821E1
1.370026392E1,3.523053382E1,-4.220782213E0,7.983081908E0,3.636942552E1
1.371028692E1,3.079308654E1,-5.679757828E0,5.899589163E0,3.186344269E1
1.372031092E1,2.521063983E1,-6.101156720E0,4.669903339E0,2.635542584E1
1.373033492E1,1.933529907E1,-5.552715374E0,2.438472530E0,2.026407132E1
1.374035892E1,1.295554357E1,-4.784913393E0,-2.712511281E-1,1.381358327E1
1.375038292E1,8.235465277E0,-4.190620521E0,-1.846820844E0,9.423106490E0
1.376040692E1,5.002559039E0,-3.873813407E0,-2.300334399E0,6.732277890E0
1.377042992E1,2.549586584E0,-3.530781530E0,-3.128281424E0,5.362178161E0
1.378045392E1,1.708304983E0,-3.732871243E0,-3.156373787E0,5.178351969E0
1.379047792E1,8.402115601E-1,-4.169161824E0,-3.529163021E0,5.526559274E0
1.380050192E1,-3.662719274E-1,-4.193398533E0,-4.039324985E0,5.833943153E0
1.381052592E1,-1.137681055E0,-4.322317359E0,-4.211743003E0,6.141296659E0
1.382054892E1,-1.095036142E0,-4.437630006E0,-4.221513115E0,6.221964096E0
1.383057292E1,-8.015953785E-1,-4.416784975E0,-3.855723583E0,5.917528962E0
1.384059692E1,1.196983516E-1,-4.861455200E0,-3.338888776E0,5.898834853E0
1.385062092E1,2.038329436E0,-5.786593475E0,-2.891470944E0,6.782334049E0
1.386064492E1,3.220391443E0,-6.346633943E0,-2.256014843E0,7.465941764E0
1.387066892E1,3.729906705E0,-5.911778269E0,-1.910648466E0,7.246509773E0
1.388069192E1,4.527544103E0,-5.475792328E0,-1.498110445E0,7.261356081E0
1.389071592E1,5.647844310E0,-5.200330583E0,-8.451530421E-1,7.723721071E0
1.390073992E1,6.357907375E0,-4.679001022E0,-6.830278784E-1,7.923544903E0
1.391076392E1,6.760542551E0,-3.959336537E0,-7.119066918E-1,7.866898534E0
1.392078792E1,6.882644109E0,-3.231266094E0,-6.377242362E-1,7.630108957E0
1.393081092E1,6.759252071E0,-2.666646087E0,-6.428370416E-1,7.294637028E0
1.394083492E1,7.233439041E0,-2.509676998E0,-5.699064749E-1,7.677624137E0
1.395085892E1,8.187301762E0,-2.683630494E0,-5.010946870E-1,8.630462251E0
1.396088292E1,8.411061257E0,-2.410905685E0,-4.633690363E-1,8.762027651E0
1.397090692E1,7.387675141E0,-1.703019539E0,-4.830437475E-1,7.596798721E0
1.398093092E1,6.044235245E0,-1.037934865E0,-3.801129446E-1,6.144475106E0
1.399095392E1,5.225859527E0,-7.380988558E-1,-2.118499039E-1,5.281976723E0
1.400097792E1,4.449347534E0,-6.781067155E-1,-1.721215636E-1,4.504014657E0
1.401100192E1,3.526397873E0,-6.104833741E-1,-3.494851194E-1,3.595874268E0
1.402102592E1,2.671260125E0,-5.260359854E-1,-7.454369652E-1,2.822768284E0
1.403104992E1,2.028886183E0,-5.374232917E-1,-1.077923096E0,2.359474759E0
1.404107292E1,1.677826372E0,-6.166372763E-1,-1.319121326E0,2.221581405E0
1.405109692E1,1.372510498E0,-6.678118153E-1,-1.495140059E0,2.136633212E0
1.406112092E1,1.174467643E0,-7.454587461E-1,-1.587082847E0,2.110430039E0
1.407114492E1,1.238919747E0,-8.557313861E-1,-1.534620459E0,2.149943789E0
1.408116892E1,1.292649812E0,-9.211386327E-1,-1.329313023E0,2.070389584E0
1.409119292E1,1.079839813E0,-8.088928498E-1,-1.150939617E0,1.773421457E0
1.410121592E1,9.918748856E-1,-8.016431795E-1,-8.783652270E-1,1.548539004E0
1.411123992E1,9.861668336E-1,-8.886355689E-1,-6.077285681E-1,1.459976784E0
1.412126392E1,6.805919284E-1,-9.080790228E-1,-5.560450655E-1,1.263724258E0
1.413128792E1,2.407327920E-1,-9.014571972E-1,-5.509919018E-1,1.083590989E0
1.414131192E1,-8.839820623E-2,-9.004536688E-1,-4.284365640E-1,1.001093873E0
1.415133492E1,-2.186297321E-1,-7.633005014E-1,-3.911132383E-1,8.850967068E-1
1.416135892E1,-4.232787716E-1,-6.241499251E-1,-3.473012209E-1,8.302687430E-1
1.417138292E1,-6.485994726E-1,-5.603953940E-1,-2.933507162E-1,9.059684963E-1
1.418140692E1,-7.606853342E-1,-3.340534768E-1,-3.093118608E-1,8.865143711E-1
1.419143092E1,-8.500687963E-1,-1.256011158E-2,-4.195119953E-1,9.480321878E-1
1.420144967E1,-8.144697779E-1,2.596631527E-1,-5.082674664E-1,9.945460218E-1
1.421147367E1,-7.433226120E-1,5.304754838E-1,-4.261199337E-1,1.007725629E0
1.422149767E1,-8.409465551E-1,8.475846067E-1,-4.429762870E-1,1.273506484E0
1.423152167E1,-1.035917868E0,1.107574619E0,-5.312288976E-1,1.606876320E0
1.424154567E1,-1.019351537E0,1.371227619E0,-6.120186703E-1,1.814913108E0
1.425156967E1,-1.045589747E0,1.471222608E0,-6.252030087E-1,1.910139441E0
1.426159267E1,-1.311053923E0,1.619926658E0,-4.151008193E-1,2.124931400E0
1.427161667E1,-1.621135862E0,1.865811431E0,-2.387383068E-1,2.483209568E0
1.428164067E1,-1.928926862E0,2.151636489E0,-1.551498374E-2,2.889729941E0
1.429166467E1,-2.237777377E0,2.404480034E0,1.112368641E-1,3.286570471E0
1.430168867E1,-2.531338009E0,2.591917209E0,1.811660367E-1,3.627468548E0
1.431171167E1,-2.783917844E0,2.769441308E0,2.587743576E-1,3.935348509E0
1.432173567E1,-2.925604066E0,2.833446977E0,2.884864175E-1,4.082989754E0
1.433175967E1,-2.861764165E0,2.662075026E0,2.642005920E-1,3.917414905E0
1.434178367E1,-2.741909108E0,2.417640070E0,2.760628567E-1,3.665959597E0
1.435180767E1,-2.846541524E0,2.267651972E0,2.723901840E-1,3.649553469E0
1.436183167E1,-3.008801758E0,2.195712800E0,2.925782990E-1,3.736260802E0
1.437185467E1,-3.089113850E0,2.137466931E0,3.601574939E-1,3.773738555E0
1.438187867E1,-3.104663351E0,2.079936176E0,4.151745307E-1,3.759978578E0
1.439190267E1,-3.034776844E0,2.013960288E0,4.197295117E-1,3.666344146E0
1.440192667E1,-2.959609133E0,1.883779925E0,4.544643116E-1,3.537576973E0
1.441195067E1,-2.663231313E0,1.634232163E0,4.792629379E-1,3.161203688E0
1.442197367E1,-2.187743338E0,1.261706054E0,4.743249643E-1,2.569651192E0
1.443199767E1,-1.678429804E0,8.672803679E-1,4.731859267E-1,1.947615662E0
1.444202167E1,-1.328287421E0,5.841061458E-1,4.830156809E-1,1.529323907E0
1.445204567E1,-1.285018610E0,4.236173254E-1,5.209015453E-1,1.449849264E0
1.446206967E1,-1.381359674E0,2.801032645E-1,5.269575065E-1,1.504757988E0
1.447209267E1,-1.318096894E0,4.623598069E-2,6.016983712E-1,1.449675177E0
1.448211667E1,-1.250695454E0,-2.592409837E-1,7.661945808E-1,1.489462703E0
1.449214067E1,-1.284335071E0,-5.208568141E-1,8.669812828E-1,1.634767549E0
1.450216467E1,-1.273728806E0,-7.258634108E-1,8.522726119E-1,1.695768666E0
1.451218867E1,-1.262041976E0,-8.881710076E-1,7.665196860E-1,1.723122201E0
1.452221267E1,-1.274435735E0,-1.018107542E0,6.249679506E-1,1.746801176E0
1.453223567E1,-1.233958384E0,-1.173928237E0,5.231527233E-1,1.781698508E0
1.454225967E1,-7.982560337E-1,-1.403922033E0,3.332486075E-1,1.649019225E0
1.455228367E1,-3.135054839E-1,-1.655350844E0,-1.844211817E-3,1.684777584E0
1.456230767E1,9.306545377E-2,-1.906041445E0,5.285943249E-2,1.909044077E0
1.457233167E1,5.172563910E-1,-2.073233221E0,9.410333455E-2,2.138856143E0
1.458235467E1,8.124910802E-1,-1.932065647E0,5.667296827E-2,2.096719162E0
1.459237867E1,9.446545261E-1,-1.712445397E0,1.560382305E-1,1.961935101E0
1.460240267E1,1.064460467E0,-1.620166394E0,2.687456328E-1,1.957099753E0
1.461242667E1,1.207695615E0,-1.572300501E0,3.199327433E-1,2.008236671E0
1.462245067E1,1.274429888E0,-1.472461048E0,2.614348408E-1,1.964856548E0
1.463247367E1,1.212167566E0,-1.368603389E0,1.444934696E-1,1.833931243E0
1.464249767E1,9.206201309E-1,-1.258738007E0,-1.817957819E-2,1.559581128E0
1.465252167E1,5.097924203E-1,-1.012531344E0,-1.890434057E-1,1.149280403E0
1.466254567E1,1.939018571E-1,-7.937829137E-1,-3.389642608E-1,8.846389175E-1
1.467256967E1,7.377431989E-3,-6.588929111E-1,-4.494070182E-1,7.975969927E-1
1.468259367E1,-1.694347680E-1,-4.959938684E-1,-5.131065856E-1,7.334823967E-1
1.469261667E1,-4.212989044E-1,-3.449535638E-1,-5.421760547E-1,7.684013290E-1
1.470264067E1,-6.999666774E-1,-1.969383162E-1,-5.381736356E-1,9.046374478E-1
1.471266467E1,-9.781099552E-1,-1.165291607E-2,-5.382238851E-1,1.116476523E0
1.472268867E1,-1.278358047E0,1.837557685E-1,-5.247250396E-1,1.394023617E0
1.473271267E1,-1.546148829E0,3.716171595E-1,-4.578217828E-1,1.654773791E0
1.474273567E1,-1.748219247E0,4.684540674E-1,-4.116556764E-1,1.856119647E0
1.475275967E1,-1.750379208E0,4.836363629E-1,-3.777645566E-1,1.854841655E0
1.476278367E1,-1.861784454E0,5.670474789E-1,-5.075353219E-1,2.011312084E0
1.477280767E1,-2.114888200E0,8.223939246E-1,-7.222591871E-1,2.381332022E0
1.478283167E1,-2.387980653E0,1.063204192E0,-7.736222257E-1,2.726049541E0
1.479285467E1,-2.600369067E0,1.285539305E0,-6.320366496E-1,2.968838311E0
1.480287867E1,-2.865766000E0,1.593990748E0,-5.093005963E-1,3.318555162E0
1.481290267E1,-3.081544629E0,1.919735916E0,-4.445386630E-1,3.657720316E0
1.482292667E1,-3.294092672E0,2.210262135E0,-3.288012518E-1,3.980504428E0
1.483295067E1,-3.484292657E0,2.460266272E0,-3.328031228E-1,4.278313145E0
1.484297467E1,-3.656135893E0,2.623084038E0,-4.321876625E-1,4.520474059E0
1.485299767E1,-3.998240694E0,2.799065641E0,-5.152917997E-1,4.907771668E0
1.486302167E1,-4.395744939E0,2.943196876E0,-6.207416562E-1,5.326377908E0
1.487304567E1,-4.676409536E0,3.005823479E0,-6.985862229E-1,5.602838892E0
1.488306967E1,-4.903466275E0,3.055183919E0,-7.861370945E-1,5.830621050E0
1.489309367E1,-4.881817544E0,3.130673228E0,-8.120613098E-1,5.855997008E0
1.490311667E1,-4.709418823E0,3.170982178E0,-7.185063710E-1,5.722762010E0
1.491314067E1,-4.580979468E0,3.253944813E0,-6.971137478E-1,5.662110676E0
1.492316467E1,-4.537106055E0,3.427717045E0,-5.944970135E-1,5.717342232E0
1.493318867E1,-4.555908362E0,3.666386355E0,-5.314271182E-1,5.872061366E0
1.494321267E1,-4.323159358E0,3.662028717E0,-4.533743906E-1,5.683811177E0
1.495323567E1,-3.877034345E0,3.559512701E0,-3.704030583E-1,5.276241504E0
1.496325967E1,-3.221895347E0,3.327733166E0,-3.591834209E-1,4.645797066E0
1.497328367E1,-2.524210837E0,2.953846994E0,-2.478598901E-1,3.893364476E0
1.498330767E1,-1.670672888E0,2.525795725E0,-4.972523354E-2,3.028739762E0
1.499333167E1,-5.282778078E-1,2.166327910E0,1.172330924E-1,2.232889978E0
1.500335567E1,5.570121950E-1,1.790377964E0,2.942927027E-1,1.897978934E0
1.501337867E1,1.238430335E0,1.714417955E0,2.637187084E-1,2.131310906E0
1.502340267E1,1.828059468E0,1.614358939E0,8.545465940E-1,2.584222530E0
1.503342667E1,2.335563288E0,1.538481376E0,8.272114456E-1,2.916514974E0
1.504345067E1,3.014683473E0,1.676002625E0,7.323363516E-1,3.526133544E0
1.505347467E1,3.569357951E0,1.326380352E0,6.427066487E-1,3.861693004E0
1.506349767E1,3.937728444E0,1.014449816E0,6.618158611E-1,4.119807515E0
1.507352167E1,3.999973809E0,6.606494147E-1,4.754686066E-1,4.081950332E0
1.508354567E1,3.813317236E0,3.130929628E-1,5.089673050E-1,3.859852752E0
1.509356967E1,3.522094322E0,-6.575954139E-2,4.737361497E-1,3.554419597E0
1.510359367E1,3.333983547E0,-5.824353039E-1,3.209033811E-1,3.399655300E0
1.511361667E1,3.257653994E0,-1.207821915E0,1.576667348E-1,3.477930724E0
1.512364067E1,3.012442819E0,-1.672389631E0,1.132664144E-2,3.445551786E0
1.513366467E1,2.602734851E0,-1.762532646E0,-1.373627901E-1,3.146365930E0
1.514368867E1,2.163780863E0,-1.772173828E0,-1.262625090E-1,2.799730330E0
1.515371267E1,1.917011991E0,-1.711415994E0,-1.207842527E-1,2.572638434E0
1.516373667E1,1.832802730E0,-1.736819515E0,-4.807397984E-2,2.525474011E0
1.517375967E1,2.050730211E0,-1.855860640E0,-2.467459224E-2,2.765921537E0
1.518378367E1,2.140263947E0,-1.739946899E0,-2.802032518E-1,2.772482432E0
1.519380767E1,1.946424070E0,-1.437744083E0,-5.454148275E-1,2.480554785E0
1.520383204E1,1.884810789E0,-1.350460063E0,-7.001910643E-1,2.422090341E0
1.521385604E1,2.121500816E0,-1.451154964E0,-7.981349963E-1,2.691400363E0
1.522387904E1,2.637664363E0,-1.925157747E0,-7.324994159E-1,3.346649225E0
1.523390304E1,3.086206614E0,-2.504176815E0,-5.469637549E-1,4.011825287E0
1.524392704E1,3.178749912E0,-2.814304070E0,-3.537238757E-1,4.260267477E0
1.525395104E1,3.225511850E0,-2.842069573E0,-2.518922762E-1,4.306359933E0
1.526397504E1,3.408150215E0,-2.665868700E0,-2.330594909E-1,4.333204419E0
1.527399804E1,3.603699233E0,-2.531973309E0,-3.065315098E-1,4.414917730E0
1.528402204E1,4.147362235E0,-2.606645176E0,-2.424986511E-1,4.904489594E0
1.529404604E1,4.919216335E0,-2.595608849E0,7.153768681E-2,5.562462790E0
1.530407004E1,5.217885094E0,-2.561928302E0,4.025286113E-1,5.826819953E0
1.531409404E1,5.434475318E0,-2.496952288E0,7.327765739E-1,6.025384155E0
1.532411704E1,6.019596248E0,-2.510241839E0,9.474110498E-1,6.590481073E0
1.533414104E1,6.870781862E0,-2.638891986E0,1.201417606E0,7.457533009E0
1.534416504E1,7.410595642E0,-2.575717791E0,1.183031987E0,7.934154938E0
1.535418904E1,7.874346501E0,-2.447739489E0,1.201111650E0,8.333032499E0
1.536421304E1,8.410946651E0,-2.206392447E0,1.133271670E0,8.769064709E0
1.537423704E1,9.223696178E0,-2.132040715E0,1.356793036E0,9.563631953E0
1.538426004E1,1.016196145E1,-2.001800711E0,1.455073037E0,1.045896286E1
1.539428404E1,1.103245399E1,-1.926919513E0,1.086371884E0,1.125203376E1
1.540430804E1,1.151567023E1,-1.867917891E0,9.778534086E-1,1.170709081E1
1.541433204E1,1.193174640E1,-2.169984174E0,1.199104740E0,1.218660148E1
1.542435604E1,1.245428166E1,-2.652569208E0,1.469950254E0,1.281819054E1
1.543437904E1,1.251028863E1,-3.223416500E0,1.933885885E0,1.306283469E1
1.544440304E1,1.211438301E1,-3.618171676E0,2.635866929E0,1.291500044E1
1.545442704E1,1.160880351E1,-3.834466908E0,3.217512859E0,1.264198736E1
1.546445104E1,1.105712924E1,-4.286768042E0,3.746469528E0,1.243674078E1
1.547447504E1,1.066165865E1,-4.531476063E0,4.135254990E0,1.230063309E1
1.548449804E1,1.053282695E1,-4.822511867E0,4.140896968E0,1.230219867E1
1.549452204E1,1.071761183E1,-5.075318867E0,4.075398213E0,1.253933553E1
1.550454604E1,1.027980390E1,-5.307461514E0,3.742435534E0,1.215933138E1
1.551457004E1,9.703811640E0,-5.264535935E0,3.354813668E0,1.153837396E1
1.552459404E1,9.751039601E0,-5.012408674E0,3.164527144E0,1.141145241E1
1.553461804E1,9.544935189E0,-4.231623536E0,2.777834401E0,1.080410984E1
1.554464104E1,9.084464033E0,-3.153861823E0,2.752939880E0,1.000265011E1
1.555466504E1,8.374734260E0,-2.103102260E0,2.952195448E0,9.125495658E0
1.556468904E1,6.535043510E0,-1.288320241E0,2.827442179E0,7.236089551E0
1.557471304E1,3.964474778E0,-4.603281918E-1,2.391189020E0,4.652606499E0
1.558473704E1,4.873496372E-1,4.861959815E-1,1.698524930E0,1.832725604E0
1.559476004E1,-3.358199791E0,1.680024925E0,8.477234781E-1,3.849496679E0
1.560478404E1,-6.573366162E0,3.116360121E0,4.240634680E-2,7.274794938E0
1.561480804E1,-8.960977855E0,4.626009461E0,-5.969171029E-1,1.010224716E1
1.562483204E1,-1.141057822E1,6.192108990E0,-1.078939342E0,1.302718769E1
1.563485604E1,-1.380866754E1,8.062400558E0,-1.468616504E0,1.605734836E1
1.564487904E1,-1.553259044E1,9.286925629E0,-1.754271115E0,1.818201915E1
1.565490304E1,-1.630159519E1,9.180236748E0,-1.918234059E0,1.880687040E1
1.566492704E1,-1.673377810E1,8.123067759E0,-2.340935710E0,1.874789426E1
1.567495104E1,-1.692669061E1,6.837842742E0,-2.993061638E0,1.849938827E1
1.568497504E1,-1.597618594E1,5.501716543E0,-3.714388195E0,1.730040699E1
1.569499804E1,-1.483702671E1,3.817482793E0,-4.291903651E0,1.591009030E1
1.570502204E1,-1.320097343E1,1.939220885E0,-4.364427837E0,1.403832282E1
1.571504604E1,-1.093233445E1,5.736101013E-1,-3.932344328E0,1.163220947E1
1.572507004E1,-9.157187024E0,-4.971536636E-1,-3.032575952E0,9.659076191E0
1.573509404E1,-7.911324293E0,-1.211407135E0,-1.593575011E0,8.160639720E0
1.574511804E1,-6.941436692E0,-1.381791784E0,-2.441551856E-1,7.081843238E0
1.575514104E1,-6.413941242E0,-1.073007926E0,7.011250108E-1,6.540761771E0
1.576516504E1,-6.281032276E0,-6.304067382E-1,1.206757137E0,6.426899867E0
1.577518904E1,-6.214787416E0,-2.010892546E-1,1.302574291E0,6.353008681E0
1.578521304E1,-6.189543232E0,3.188553938E-1,1.005800614E0,6.278833415E0
1.579523704E1,-6.419277411E0,8.418215910E-1,4.704891908E-1,6.491313130E0
1.580526004E1,-6.460378659E0,1.278674381E0,4.324951530E-2,6.585846272E0
1.581528404E1,-6.620746735E0,1.604370140E0,-1.894509566E-1,6.814996885E0
1.582530804E1,-6.808485042E0,2.096655412E0,-4.128654653E-1,7.135957565E0
1.583533204E1,-6.924206702E0,2.556246563E0,-7.143151599E-1,7.415475783E0
1.584535604E1,-6.975155831E0,2.783504739E0,-9.822152853E-1,7.573997911E0
1.585537904E1,-7.030969259E0,2.915902365E0,-1.132109828E0,7.695367956E0
1.586540304E1,-7.450650238E0,3.121689858E0,-1.090729083E0,8.151492285E0
1.587542704E1,-7.963048763E0,3.399896286E0,-8.231172252E-1,8.697526218E0
1.588545104E1,-8.604833305E0,3.523517534E0,-5.449219072E-1,9.314251012E0
1.589547504E1,-9.647874252E0,3.726577885E0,-4.290628374E-1,1.035147116E1
1.590549804E1,-1.078459052E1,4.084951978E0,-5.131025290E-1,1.154372121E1
1.591552204E1,-1.154236745E1,4.317519426E0,-6.641758704E-1,1.234132691E1
1.592554604E1,-1.236920233E1,4.318018778E0,-8.824068224E-1,1.313092130E1
1.593557004E1,-1.313757792E1,4.314717440E0,-1.130732224E0,1.387412324E1
1.594559404E1,-1.358601025E1,4.618664188E0,-1.522020879E0,1.443011715E1
1.595561704E1,-1.369629341E1,5.329679765E0,-2.057120633E0,1.484000286E1
1.596564104E1,-1.387409788E1,6.180456659E0,-2.791537936E0,1.544284043E1
1.597566504E1,-1.491532912E1,7.121838498E0,-2.364574249E0,1.669667145E1
1.598568904E1,-1.534808622E1,7.719303485E0,-1.531637210E0,1.724811032E1
1.599571304E1,-1.490843057E1,7.805238259E0,-1.390280771E0,1.688537613E1
1.600573704E1,-1.412111234E1,7.826974114E0,-1.245293212E0,1.619314956E1
1.601576004E1,-1.301207913E1,7.547142161E0,-1.146972208E0,1.508605659E1
1.602578404E1,-1.170156959E1,6.930780727E0,-7.204109553E-1,1.361915725E1
1.603580804E1,-1.016034762E1,6.332789490E0,9.776668824E-2,1.197273757E1
1.604583204E1,-8.451163800E0,5.880597407E0,1.058481762E0,1.035007145E1
1.605585604E1,-6.726052750E0,5.714085077E0,1.869903313E0,9.021479494E0
1.606587904E1,-4.164210986E0,5.202147313E0,2.730317588E0,7.201223781E0
1.607590304E1,-1.207141299E0,3.839337638E0,3.515695714E0,5.343951718E0
1.608592704E1,3.022758477E0,2.090380180E0,3.615747421E0,5.155617085E0
1.609595104E1,8.278563935E0,-3.473333806E-1,3.291952007E0,8.915840359E0
1.610597504E1,1.244543248E1,-2.436521314E0,2.607606751E0,1.294700887E1
1.611599804E1,1.538586509E1,-3.593913333E0,1.826374301E0,1.590524129E1
1.612602204E1,1.807313898E1,-4.848253942E0,2.125423129E0,1.883245450E1
1.613604604E1,2.106739871E1,-5.839880905E0,2.404562187E0,2.199366765E1
1.614607004E1,2.421905029E1,-6.456815951E0,2.424807440E0,2.518198881E1
1.615609404E1,2.474262635E1,-6.220147558E0,3.376208045E0,2.573492909E1
1.616611704E1,2.092871913E1,-4.507847757E0,3.866619869E0,2.175506206E1
1.617614104E1,1.675202726E1,-2.420331251E0,3.403562782E0,1.726478092E1
1.618616504E1,1.403029105E1,-1.197037311E0,2.756150587E0,1.434846094E1
1.619618904E1,1.115792354E1,-2.873824632E-1,1.574449499E0,1.127212215E1
1.620621329E1,8.297015408E0,7.094534925E-1,-1.185932279E-2,8.327300258E0
1.621623729E1,6.180150849E0,1.398680735E0,-1.054891571E0,6.423656945E0
1.622626029E1,4.844536867E0,1.387694986E0,-1.621459798E0,5.293804558E0
1.623628429E1,4.554070582E0,9.489668477E-1,-1.908406059E0,5.028131922E0
1.624630829E1,5.059731944E0,3.674203205E-1,-1.947930897E0,5.434180694E0
1.625633229E1,6.231130968E0,-3.144169186E-1,-1.982914789E0,6.546587065E0
1.626635629E1,7.925017887E0,-1.596239441E0,-1.584736944E0,8.238038605E0
1.627637929E1,9.294110688E0,-3.336121874E0,-9.219913030E-1,9.917674657E0
1.628640329E1,9.906773758E0,-4.679793320E0,-6.489403653E-1,1.097568929E1
1.629642729E1,9.298478558E0,-5.349973696E0,-5.780604172E-1,1.074328050E1
1.630645129E1,7.944103784E0,-5.693194145E0,-5.132545567E-1,9.786964532E0
1.631647529E1,7.369975619E0,-6.007074435E0,-3.262225932E-1,9.513564268E0
1.632649829E1,7.512298018E0,-6.337608181E0,-4.501642692E-1,9.838828529E0
1.633652229E1,7.517342411E0,-6.279651164E0,-6.035823075E-1,9.813703035E0
1.634654629E1,7.381606901E0,-5.993185544E0,-7.794765311E-1,9.540124583E0
1.635657029E1,6.978195798E0,-5.489860144E0,-8.708515549E-1,8.921444022E0
1.636659429E1,6.198897607E0,-4.881075825E0,-7.098701066E-1,7.921814711E0
1.637661729E1,5.427437609E0,-4.233073061E0,-7.790531927E-1,6.926969786E0
1.638664129E1,4.720500466E0,-3.528716878E0,-7.813488827E-1,5.945205928E0
1.639666529E1,3.974334937E0,-2.914867993E0,-8.257690106E-1,4.997368114E0
1.640668929E1,3.259320450E0,-2.389614365E0,-1.177824018E0,4.209595709E0
1.641671329E1,2.627163348E0,-1.935904052E0,-1.361804831E0,3.536131241E0
1.642673729E1,1.987993680E0,-1.567846093E0,-1.421530777E0,2.903620153E0
1.643676029E1,1.196923875E0,-1.461370634E0,-1.428616287E0,2.368369774E0
1.644678429E1,3.534747112E-1,-1.432850986E0,-1.465610451E0,2.079908727E0
1.645680829E1,-3.328796482E-1,-1.253566730E0,-1.484381182E0,1.971199102E0
1.646683229E1,-9.447322941E-1,-1.173150411E0,-1.361010779E0,2.030061905E0
1.647685629E1,-1.710206498E0,-1.178057541E0,-1.136663055E0,2.367409710E0
1.648687929E1,-2.335444590E0,-1.194613128E0,-9.140857212E-1,2.777940724E0
1.649690329E1,-2.849171602E0,-1.157775889E0,-7.915049846E-1,3.175642292E0
