"Time (s)","Linear Acceleration x (m/s^2)","Linear Acceleration y (m/s^2)","Linear Acceleration z (m/s^2)","Absolute acceleration (m/s^2)"
7.343833335E-3,-4.309649366E-1,-5.786404610E-2,1.144108315E0,1.223953782E0
1.736783332E-2,2.677694401E-1,-1.876783549E-1,1.006398785E0,1.058188146E0
2.739083333E-2,2.897859612E-1,-3.535285787E-1,9.616067737E-1,1.064728109E0
3.741483332E-2,5.107308984E-2,-2.694407571E-1,7.105559850E-1,7.616407223E-1
4.743895831E-2,-1.863680121E-1,2.621931333E-1,2.411081833E-1,4.020092426E-1
5.746295833E-2,-8.734392402E-1,8.117139852E-1,2.461625165E-1,1.217526872E0
6.748595831E-2,-1.181019740E0,9.701842736E-1,3.129909289E-1,1.560137325E0
7.750995833E-2,-2.239036283E-1,5.667569453E-1,9.156494129E-1,1.099890957E0
8.753395831E-2,1.306535779E0,-3.601600887E-1,2.797741247E0,3.108714705E0
9.755695832E-2,-1.016520607E0,-5.170830942E-1,3.204747802E0,3.401631601E0
1.075809583E-1,-3.196232794E0,3.091600525E-1,-1.014428766E0,3.367573271E0
1.176049583E-1,-1.275448180E0,2.008583627E-1,-2.343557017E0,2.675700214E0
1.276289583E-1,1.415412689E0,-4.155019017E-1,-1.452326746E0,2.070093690E0
1.376519583E-1,1.823476713E0,-3.424162377E-1,-1.226976809E0,2.224362446E0
1.476759583E-1,1.057407555E0,2.966000140E-3,-1.748042076E0,2.042980821E0
1.576999583E-1,1.151629588E-1,-1.307336555E-1,-7.209850788E-1,7.417366646E-1
1.677239583E-1,1.175068152E-1,-4.060693927E-2,-1.226254678E-1,1.746246846E-1
1.777469583E-1,4.550551727E-1,1.977299561E-1,-1.882394135E-2,4.965145381E-1
1.877709583E-1,6.472902811E-1,4.051952340E-2,9.717780054E-2,6.557972740E-1
1.977949583E-1,4.531393325E-1,-1.535529263E-1,8.481620193E-2,4.859089873E-1
2.078179583E-1,-3.970259428E-3,1.865744188E-2,2.705717182E-1,2.712432816E-1
2.178419583E-1,9.093735963E-2,2.638971215E-1,8.823208684E-1,9.254195853E-1
2.278659583E-1,6.043021363E-1,-1.813149215E-1,6.651511860E-1,9.167782027E-1
2.378899583E-1,8.163569668E-1,-6.607218470E-1,1.061000669E-1,1.055580068E0
2.479129583E-1,3.958784267E-1,-6.836019288E-1,3.391911328E-1,8.596987556E-1
2.579369583E-1,1.161143008E-1,-5.711120977E-1,3.152619874E-1,6.626022032E-1
2.679609583E-1,2.151161402E-1,-3.581820852E-1,1.687564909E-2,4.181556499E-1
2.779839583E-1,2.180344856E-1,-2.798498973E-1,1.512341398E-1,3.856510948E-1
2.880079583E-1,3.262401348E-1,-3.724078493E-1,4.937599397E-1,6.992275093E-1
2.980319583E-1,7.143905890E-1,-6.187142073E-1,1.025643725E0,1.394670655E0
3.080549583E-1,5.525343972E-1,-9.353773338E-1,9.522021121E-1,1.444615478E0
3.180789583E-1,7.417777777E-2,-1.094815190E0,6.418804371E-1,1.271272252E0
3.281029583E-1,-5.462112182E-1,-1.225166584E0,2.309106392E-1,1.361139073E0
3.381269583E-1,-7.263118923E-1,-1.381727757E0,7.866843939E-3,1.561013275E0
3.481499583E-1,-8.439245421E-1,-1.486530472E0,1.522457081E-1,1.716146915E0
3.581739583E-1,-9.766960984E-1,-1.564065575E0,8.624818504E-1,2.035709050E0
3.681979583E-1,-5.348091477E-1,-1.698066509E0,1.463090885E0,2.304362305E0
3.782209583E-1,-4.423529738E-1,-1.775586263E0,1.998792903E0,2.709899592E0
3.882449583E-1,-8.078536534E-1,-1.636424869E0,2.236349487E0,2.886481059E0
3.982689583E-1,-1.075709925E0,-2.145914111E0,2.091418061E0,3.183728745E0
4.082929583E-1,-7.640638554E-1,-2.213394050E0,1.659834489E0,2.870184197E0
4.183159583E-1,-4.929962933E-1,-1.691627263E0,1.834593732E0,2.543694616E0
4.283399583E-1,-9.577329934E-2,-1.165058815E0,1.788632863E0,2.136759716E0
4.383639583E-1,8.233692402E-1,-5.687840288E-1,1.941673792E0,2.184387624E0
4.483869583E-1,1.267303886E0,2.005815701E-1,2.196501882E0,2.543798857E0
4.584109583E-1,1.477268044E0,9.726162037E-1,1.583295606E0,2.373842482E0
4.684349583E-1,1.112904648E0,1.095876533E0,1.489332604E-1,1.568975222E0
4.784589583E-1,1.861034256E-1,8.676443571E-1,-5.339256334E-1,1.035624352E0
4.884819583E-1,2.047800171E-1,9.462231879E-1,-5.899396205E-1,1.133711574E0
4.985059583E-1,1.736109663E0,1.461222408E0,-6.462196559E-1,2.359416778E0
5.085299583E-1,4.577492774E-2,1.500463803E0,-2.879695237E-2,1.501438055E0
5.185539583E-1,-1.708108517E0,2.795242147E0,9.029036522E-1,3.397977100E0
5.285769583E-1,-2.047084472E0,4.395699331E0,-6.234617078E-1,4.888909075E0
5.386009583E-1,-1.131066100E0,5.003889865E0,-2.696669785E0,5.795709813E0
5.486249583E-1,-9.431699181E-1,5.350729156E0,-3.653214040E0,6.547201297E0
5.586479583E-1,-3.395302713E-2,2.871128189E0,-3.644059054E0,4.639363779E0
5.686719583E-1,8.554698694E-1,1.290167668E0,-2.111320814E0,2.618021560E0
5.786959583E-1,9.364853811E-1,1.381140404E0,-1.007515603E0,1.949266881E0
5.887199583E-1,-7.340477586E-2,1.754734799E0,-1.193444197E0,2.123391515E0
5.987429583E-1,-1.008242996E0,2.031981407E0,-1.316802320E0,2.622874516E0
6.087669583E-1,-1.650090689E0,1.698971658E0,-1.160155413E0,2.637283557E0
6.187909583E-1,-1.615216725E0,9.659024307E-1,-1.144445114E0,2.202645499E0
6.288139583E-1,-2.471639106E0,3.533530891E-1,-6.858982766E-1,2.589269148E0
6.388379583E-1,-3.739914799E0,-6.750873595E-2,1.967757636E-1,3.745696309E0
6.488619583E-1,-4.854860711E0,-1.217112556E-1,8.984749711E-1,4.938799796E0
6.588859583E-1,-5.412764021E0,3.323610002E-1,1.774885766E0,5.706022929E0
6.689089583E-1,-5.087393367E0,8.675864697E-1,2.248537424E0,5.629404773E0
6.789329583E-1,-4.638132493E0,7.125785369E-1,1.837625513E0,5.039534574E0
6.889569583E-1,-3.569768425E0,3.859592101E-1,1.093558843E0,3.753409392E0
6.989799583E-1,-2.189149593E0,-2.482669294E-2,1.399285776E0,2.598267305E0
7.090039583E-1,-1.270905186E0,6.892873228E-1,1.336775240E0,1.969082285E0
7.190279583E-1,-3.947028440E-1,2.443376005E-2,1.252950141E0,1.313876478E0
7.290519583E-1,-1.171138823E-2,-9.154634714E-2,1.313875643E0,1.317113167E0
7.390749583E-1,1.728063310E0,8.290042019E-1,3.712425723E-1,1.952247888E0
7.490989583E-1,4.653920560E0,3.558960432E-1,-1.385371449E0,4.868767054E0
7.591229583E-1,8.172305408E0,-7.143712932E-1,-2.713629634E0,8.640641632E0
7.691459583E-1,9.976196580E0,-1.569862797E0,-3.573304821E0,1.071249153E1
7.791699583E-1,8.217998475E0,-4.145044398E-1,-3.704756076E0,9.023997476E0
7.891939583E-1,5.492390234E0,1.440725285E0,-3.523250901E0,6.682464871E0
7.992179583E-1,2.915078493E0,2.442697143E0,-2.428498349E0,4.512433510E0
8.092409583E-1,1.425284543E0,3.385735499E0,-2.164937443E0,4.263988160E0
8.192649583E-1,5.114647239E-1,4.118215619E0,-2.879722134E0,5.051147950E0
8.292889583E-1,-2.508385348E-1,4.367104107E0,-3.213674746E0,5.427911535E0
8.393119583E-1,-7.109851706E-1,4.396082323E0,-3.382926496E0,5.592426252E0
8.493359583E-1,-5.670395851E-1,3.379042191E0,-2.631474500E0,4.320198846E0
8.593599583E-1,-2.560092276E-1,1.925824329E0,-1.576204103E0,2.501751276E0
8.693839583E-1,5.886643428E-1,3.691300464E-1,-1.055324192E0,1.263523585E0
8.794069583E-1,2.934039259E-1,-1.375633496E0,-5.153712487E-1,1.498018993E0
8.894309583E-1,-1.204665588E0,-1.340596395E0,-1.321163174E0,2.234701324E0
8.994549583E-1,-2.850050730E0,-4.449924070E-1,5.015683115E-2,2.885017004E0
9.094779583E-1,-5.080122939E0,-1.024354999E0,1.660796941E0,5.441984815E0
9.195019583E-1,-5.868152778E0,-7.786304390E-1,3.021572077E0,6.646155295E0
9.295259583E-1,-4.993605782E0,-2.338722539E-1,1.701697045E0,5.280773407E0
9.395499583E-1,-3.344961987E0,1.930411470E-1,7.411784381E-1,3.431527510E0
9.495729583E-1,-2.090120564E0,3.559808278E-1,-3.304647481E-1,2.145817623E0
9.595969583E-1,-1.106902189E0,1.606727153E-1,-3.438402539E-1,1.170159945E0
9.696209583E-1,-2.638526827E-2,-7.383752829E-1,5.581780932E-1,9.259897540E-1
9.796449583E-1,6.737696895E-1,-1.453253530E0,9.682579815E-1,1.871746493E0
9.896679583E-1,9.774217379E-1,-1.436861445E0,3.155332069E-2,1.738079307E0
9.996919583E-1,1.374674845E0,-1.145338569E0,-2.285898793E-1,1.803825019E0
1.009715958E0,1.336864702E0,-2.705992001E-1,4.518932909E-1,1.436885070E0
1.019738958E0,1.090072733E0,6.561148989E-1,7.479787499E-1,1.475878563E0
1.029762958E0,1.553416334E0,1.129198499E0,2.499164289E-1,1.936659438E0
1.039786958E0,1.642042874E0,1.161554067E0,-6.608599144E-1,2.117132135E0
1.049810625E0,1.988457364E0,9.048665625E-1,-6.285166258E-1,2.273275024E0
1.059833625E0,1.659621358E0,5.221937799E-1,-7.388623559E-1,1.890224055E0
1.069857625E0,8.760997233E-1,-4.207656384E-3,-8.144171530E-1,1.196178803E0
1.079881625E0,4.227832201E-1,-8.031969309E-2,-9.517144543E-1,1.044489017E0
1.089904625E0,-1.073116100E-1,-1.429217380E-1,-7.466882694E-1,7.677797708E-1
1.099928625E0,-2.341882959E-1,-3.367019731E-1,-4.682058896E-1,6.224380545E-1
1.109952625E0,-1.616801906E-1,-8.374499202E-2,-2.572681697E-1,3.151834686E-1
1.119976625E0,-2.440923098E-1,2.503251493E-2,-3.256384929E-1,4.077353438E-1
1.129999625E0,-2.326703587E-1,-4.355824828E-2,-3.204589927E-1,3.984052997E-1
1.140023625E0,2.905346972E-1,1.245030087E-1,-6.845984405E-1,7.540467056E-1
1.150047625E0,1.028927522E0,-4.739753008E-3,-1.166512506E0,1.555463190E0
1.160070625E0,1.544475941E0,-7.924263597E-2,-1.642484631E0,2.255978965E0
1.170094625E0,1.823771705E0,3.047907937E-1,-2.009289824E0,2.730620123E0
1.180118625E0,1.249229558E0,3.728003436E-1,-1.245141769E0,1.802756947E0
1.190142625E0,4.827484632E-1,2.204616648E-1,5.700128577E-1,7.788222405E-1
1.200165625E0,3.502663440E-1,1.062654846E0,1.306244588E0,1.719940917E0
1.210189625E0,1.781604509E0,2.245927227E0,1.604469543E0,3.285213273E0
1.220213625E0,3.670370355E0,3.482966509E0,2.254453636E0,5.539425552E0
1.230236625E0,4.653581129E0,3.966014934E0,2.408852874E0,6.571732188E0
1.240260625E0,4.157264494E0,3.350316575E0,2.219028865E0,5.782002969E0
1.250284625E0,2.718025571E0,1.829960983E0,1.412824126E0,3.568261792E0
1.260308625E0,1.096545308E0,-3.730073351E-1,5.399973456E-1,1.277944920E0
1.270331625E0,-4.306386620E-2,-1.939943016E0,1.975960549E-1,1.950455743E0
1.280355625E0,-2.005482410E-1,-1.526867636E0,3.356411420E-2,1.540347663E0
1.290379625E0,2.264369345E-1,-3.249239266E-2,-9.820094633E-1,1.008301556E0
1.300403625E0,1.962457135E-2,1.493450214E0,-2.197577770E0,2.657089897E0
1.310426625E0,-7.118211763E-1,3.001005666E0,-2.926372390E0,4.251632599E0
1.320450625E0,-1.952778239E0,4.444265134E0,-3.140685707E0,5.781759434E0
1.330474625E0,-1.907423726E0,5.296656445E0,-1.949220793E0,5.957541143E0
1.340497625E0,-1.406203470E0,5.377377841E0,-1.019397730E0,5.650908987E0
1.350521625E0,-2.189356146E0,4.140781778E0,1.040407945E0,4.798104080E0
1.360545625E0,-1.539679032E0,3.972497157E0,-7.550497878E-1,4.326828558E0
1.370569625E0,-5.736406530E-1,3.968050935E0,-2.237359301E0,4.591325349E0
1.380592625E0,-4.955801688E-2,2.985992939E0,-2.470281383E0,3.875680578E0
1.390616625E0,-2.043732154E-1,-2.484423459E-2,9.979735315E-2,2.287906442E-1
1.400640625E0,-1.529415999E-1,-3.989947003E0,2.568119334E0,4.747452489E0
1.410663625E0,1.421193904E-1,-6.354033009E0,3.622692159E0,7.315588280E0
1.420687625E0,-3.311353507E-1,-7.822340780E0,3.260374119E0,8.481079253E0
1.430711625E0,-1.202537494E0,-8.070867326E0,2.613594884E0,8.568306370E0
1.440735625E0,-3.250660724E0,-8.025515737E0,1.919854322E0,8.869134039E0
1.450758625E0,-5.437588960E0,-6.563912968E0,1.468357472E0,8.649184980E0
1.460782625E0,-6.492897364E0,-3.638043439E0,8.992064577E-1,7.496775874E0
1.470806625E0,-5.436458693E0,6.951409703E-1,-1.170387017E0,5.604293877E0
1.480829625E0,-3.773977754E0,3.419469840E0,-2.397171307E0,5.628686556E0
1.490853625E0,-3.483392771E0,3.099179832E0,-2.178016495E0,5.146134149E0
1.500877625E0,-2.018034335E0,1.148993078E0,-2.093897865E0,3.126828416E0
1.510901625E0,-5.195501441E-1,6.638402402E-2,-1.984125309E0,2.052094645E0
1.520924625E0,2.888940233E-1,-3.903279573E-1,-1.994818112E0,2.053074516E0
1.530948625E0,1.207598259E0,-8.072952443E-1,-8.231330127E-1,1.669600888E0
1.540972625E0,1.979661252E0,-1.425852308E0,1.878121282E-1,2.446913744E0
1.550995625E0,2.388876300E0,-2.532890444E0,1.583602000E0,3.824926048E0
1.561019625E0,2.467767080E0,-2.837273687E0,2.029579224E0,4.273077131E0
1.571043625E0,2.343690333E0,-1.888906179E0,1.656735465E0,3.435931218E0
1.581067625E0,2.177444052E0,-6.718778229E-1,4.657353314E-1,2.325852921E0
1.591090625E0,1.641913504E0,-4.106499553E-2,-4.228308749E-1,1.695981202E0
1.601114625E0,1.029453113E0,-3.336655140E-2,-7.884642863E-1,1.297136450E0
1.611138625E0,5.811379530E-1,1.008059978E-1,-1.197196428E0,1.334601984E0
1.621161625E0,1.213545389E-1,6.598056614E-2,-7.041054098E-1,7.175268547E-1
1.631185625E0,2.074421265E-2,2.173790127E-1,1.024817368E-1,2.412187055E-1
1.641209625E0,2.731190029E-1,3.856384903E-1,1.283995932E-1,4.896912195E-1
1.651233625E0,-1.567343597E-1,2.820609123E-1,1.282831752E0,1.322793000E0
1.661256625E0,-8.077313004E-1,9.103886729E-1,2.967239749E-1,1.252710065E0
1.671280625E0,-1.315748067E0,7.265434420E-1,2.289857358E-1,1.520359437E0
1.681304625E0,-1.804084715E0,5.302898347E-2,1.437483004E0,2.307355872E0
1.691328625E0,-1.857842992E0,-2.163089722E-1,2.123975943E0,2.830131439E0
1.701351625E0,-1.142702571E0,-3.804572725E-1,2.144122524E0,2.459223109E0
1.711375625E0,1.663976419E-2,-5.025097132E-3,8.774454600E-1,8.776176095E-1
1.721399625E0,9.597648277E-1,4.187559503E-1,-5.554222640E-1,1.185326521E0
1.731422625E0,1.303779548E0,3.716958046E-1,-3.947917217E-1,1.412040858E0
1.741446625E0,1.131367963E0,8.002031565E-2,1.931300831E0,2.239714182E0
1.751470625E0,1.249625706E0,1.065869645E0,4.259403073E0,4.565102085E0
1.761494625E0,2.494568378E0,2.969041277E0,1.618270726E0,4.202008762E0
1.771517625E0,2.885389840E0,2.253228645E0,-1.846678757E0,4.100333680E0
1.781541625E0,1.395498680E-1,-2.372010738E-1,-9.596105343E-1,9.982939911E-1
1.791565625E0,-6.090926139E-1,-2.643244945E0,-3.452615951E0,4.390705474E0
1.801588625E0,2.191894203E-1,-3.147828081E0,-2.785764980E0,4.209198517E0
1.811612625E0,1.689782466E0,-2.309633811E0,-7.240626146E-1,2.951955249E0
1.821636625E0,1.699928555E0,-1.862381455E0,1.621359810E-2,2.521603588E0
1.831660625E0,2.016265772E-1,-1.058140796E0,1.207891351E0,1.618430331E0
1.841683625E0,-1.626314010E0,-3.362967610E-2,3.022738012E0,3.432633581E0
1.851707625E0,-1.781466661E0,5.736171180E-1,3.169841094E0,3.681107527E0
1.861731625E0,-1.359055616E0,8.849562085E-1,2.240453648E0,2.765829389E0
1.871754625E0,-1.543489077E0,1.761989440E0,1.699337109E0,2.893909454E0
1.881778625E0,-2.049296912E0,2.472172957E0,1.284152053E0,3.458367167E0
1.891802625E0,-1.836610583E0,3.230702423E0,1.058468167E0,3.864056345E0
1.901826625E0,-6.727692309E-1,4.312443166E0,1.465603872E-1,4.367065885E0
1.911849625E0,-8.721790921E-2,4.659316955E0,1.417248130E-1,4.662287783E0
1.921873625E0,-1.284651917E-1,4.245259243E0,2.163493911E-1,4.252709301E0
1.931897625E0,-1.714605358E-1,3.565236833E0,-3.652989507E-2,3.569544344E0
1.941921625E0,-6.044891741E-1,3.213592885E0,-5.246683947E-1,3.311776459E0
1.951944625E0,-8.698768971E-1,2.904096837E0,-7.496855521E-1,3.122898122E0
1.961968625E0,-5.181387359E-1,2.040320998E0,-6.346714050E-1,2.198678084E0
1.971992625E0,-4.742264387E-1,-9.825193405E-1,-8.316034354E-2,1.094143780E0
1.982015625E0,7.805652827E-2,-3.286515850E0,1.470474603E-1,3.290729739E0
1.992039625E0,-2.967192241E-1,-3.784559460E0,1.245176852E0,3.995171836E0
2.002063625E0,-1.054221115E0,-3.931481279E0,4.785793984E-1,4.098410112E0
2.012087625E0,-1.330137188E0,-3.133534563E0,1.340934657E-2,3.404186188E0
2.022110625E0,-1.518250302E0,-3.384606401E0,-4.787443630E-1,3.740299538E0
2.032134625E0,-1.567831767E0,-3.055226312E0,-1.270849053E0,3.661633731E0
2.042158625E0,-1.623098480E0,-2.484148055E0,-2.144925347E0,3.661440287E0
2.052185208E0,-1.336233203E0,-1.701473097E0,-2.725791258E0,3.480009749E0
2.062209208E0,-1.083751673E0,-4.586170042E-1,-3.018209344E0,3.239511520E0
2.072233208E0,-1.471912580E0,-1.699247646E-1,-2.405543350E0,2.825250409E0
2.082257208E0,-1.366324436E0,1.472328901E-2,-1.957250190E0,2.387024831E0
2.092280208E0,-1.237183855E0,5.605655479E-1,-1.587068229E0,2.088933505E0
2.102304208E0,-1.053300325E0,9.065102148E-1,-1.170608334E0,1.817010241E0
2.112328208E0,-8.558714269E-1,1.144514696E0,-8.505557232E-1,1.663091948E0
2.122352208E0,-8.228764661E-1,6.908046752E-1,-4.641005230E-1,1.170352969E0
2.132375208E0,-7.074799841E-1,3.813226604E-1,3.428484200E-1,8.737733907E-1
2.142399208E0,-7.270101229E-1,8.437935644E-1,1.229278858E0,1.658812168E0
2.152423208E0,-5.018035888E-1,-1.272829505E0,2.508240337E0,2.857126420E0
2.162446208E0,-1.312403753E0,-8.921465296E-1,4.951520448E0,5.199604195E0
2.172470208E0,-1.757912030E0,-1.831172526E-2,3.985501950E0,4.356009162E0
2.182494208E0,-1.200490384E0,-3.937222660E-2,1.972162929E0,2.309145719E0
2.192518208E0,-5.939546111E-1,-2.354510021E-1,-1.060245793E0,1.237877376E0
2.202541208E0,7.653837913E-1,5.685937750E-1,-2.871121464E0,3.025301587E0
2.212565208E0,1.624343644E0,5.677441746E-1,-3.662844989E0,4.046882644E0
2.222589208E0,2.117456297E0,-8.089307106E-1,-3.885421007E0,4.498275944E0
2.232612208E0,2.234381315E0,-2.486062433E0,-2.639342514E0,4.259001665E0
2.242636208E0,1.858923850E0,-3.311564153E0,-9.158137196E-1,3.906503525E0
2.252660208E0,1.306763528E0,-3.935821082E0,1.770653844E-1,4.150863845E0
2.262684208E0,1.106401375E0,-2.937844627E0,5.025491819E-2,3.139678425E0
2.272707208E0,1.698207719E0,-9.192887199E-1,-1.078649320E0,2.211896373E0
2.282731208E0,1.264662114E0,-4.989031506E-1,-1.530760712E0,2.047316041E0
2.292755208E0,5.759337118E-1,-5.305085206E-1,-2.024741384E0,2.170879224E0
2.302778208E0,2.647773468E-1,-3.130365372E-2,-2.664712121E0,2.678017485E0
2.312802208E0,-2.810244933E-2,6.526182640E-1,-2.818445360E0,2.893153054E0
2.322826208E0,-4.435475600E-1,1.424586970E0,-2.560048715E0,2.963111860E0
2.332850208E0,-8.108067897E-1,2.222449486E0,-2.286556751E0,3.290141508E0
2.342873208E0,-9.044583537E-1,3.091476125E0,-1.999775527E0,3.791354864E0
2.352897208E0,-7.646349822E-1,3.850787364E0,-1.767730821E0,4.305589650E0
2.362921208E0,-4.581488615E-1,4.462737658E0,-1.722664576E0,4.805569792E0
2.372945208E0,3.634369779E-2,4.918521101E0,-1.832537851E0,5.248939480E0
2.382968208E0,5.113426999E-1,4.974326928E0,-2.243692275E0,5.480835225E0
2.392992208E0,4.065512033E-1,4.571673625E0,-2.980645076E0,5.472634528E0
2.403016208E0,-3.730247671E-1,3.938561672E0,-3.388484275E0,5.208957785E0
2.413039208E0,-1.055646081E0,3.184230507E0,-3.625557879E0,4.939471885E0
2.423063208E0,-1.489029572E0,1.733501220E0,-3.052379010E0,3.813037263E0
2.433087208E0,-1.820932297E0,-8.609510493E-1,-1.588233872E-1,2.020459356E0
2.443111208E0,-2.720548645E0,-2.442772572E0,3.142715276E0,4.821325759E0
2.453134208E0,-3.529263593E0,-2.189443708E0,4.964019456E0,6.472314456E0
2.463158208E0,-2.930880008E0,-6.062644619E-1,4.864578783E0,5.711544533E0
2.473182208E0,-8.826028503E-1,4.418150300E-1,2.594387073E0,2.775794048E0
2.483205208E0,8.885295150E-1,1.219263162E0,-1.174773598E0,1.912114109E0
2.493229208E0,1.198501892E0,1.910257287E0,-4.327715508E0,4.880021640E0
2.503253208E0,3.766410872E-2,2.899743000E0,-4.220400975E0,5.120714056E0
2.513277208E0,-7.785334484E-1,4.173813869E0,-1.101504917E0,4.386359495E0
2.523300208E0,-1.004393043E-1,4.675681558E0,1.111993067E0,4.807142047E0
2.533324208E0,1.610324506E0,4.301617631E0,2.300515370E0,5.137064359E0
2.543348208E0,3.344282248E0,1.777920179E0,3.197200508E0,4.956542647E0
2.553372208E0,5.219324094E0,-2.192425203E0,3.564318528E0,6.689726365E0
2.563395208E0,7.581820827E0,-5.417289766E0,3.344933043E0,9.900485469E0
2.573419208E0,8.924966024E0,-6.642382602E0,2.412418214E0,1.138402507E1
2.583443208E0,9.442502496E0,-6.071321887E0,1.720749612E0,1.135705869E1
2.593466208E0,8.682046958E0,-3.702748142E0,2.474411271E0,9.757612122E0
2.603490208E0,6.849448881E0,-7.508772147E-1,2.874870114E0,7.466166669E0
2.613514208E0,4.329072062E0,1.492159733E0,2.321106632E0,5.133706418E0
2.623538208E0,1.269614559E0,3.109949234E0,2.235139698E0,4.034793035E0
2.633561208E0,-2.151285071E0,4.287895385E0,2.096975840E0,5.235588025E0
2.643585208E0,-4.976354157E0,5.177175025E0,1.977259800E0,7.448274851E0
2.653609208E0,-5.811555823E0,6.260050128E0,1.368536730E0,8.650739937E0
2.663632208E0,-4.866139697E0,6.728703877E0,-1.481742918E-2,8.303914196E0
2.673656208E0,-3.720280726E0,6.026584255E0,-8.244848889E-1,7.130216112E0
2.683680208E0,-2.827300384E0,4.555650499E0,-1.007976948E0,5.455602300E0
2.693704208E0,-2.074245227E0,2.625834276E0,-1.000724646E0,3.492699347E0
2.703727208E0,-1.198598371E0,3.845012069E-1,-5.994702896E-1,1.394218011E0
2.713751208E0,1.123250127E-1,-1.917514266E0,4.047989389E-1,1.962992626E0
2.723775208E0,1.476027850E0,-3.727359658E0,1.289618323E0,4.211292397E0
2.733799208E0,2.094937500E0,-4.504359893E0,1.695295806E0,5.249004577E0
2.743822208E0,1.652603676E0,-4.276316144E0,1.725658350E0,4.898558504E0
2.753846208E0,1.447102551E-1,-3.266652274E0,1.606022271E0,3.642974838E0
2.763870208E0,-1.345796032E0,-2.092995640E0,1.507538787E0,2.909376377E0
2.773893208E0,-2.217941575E0,-1.186103602E0,1.342628887E0,2.851097844E0
2.783917208E0,-1.905450876E0,-8.357904804E-1,1.264321806E0,2.434707045E0
2.793941208E0,-5.500950851E-1,-9.820065397E-1,1.229953334E0,1.667251226E0
2.803965208E0,7.088905518E-1,-1.747797663E0,1.218836023E0,2.245636599E0
2.813988208E0,1.395216114E0,-2.741598036E0,1.463611580E0,3.406632744E0
2.824012208E0,1.508078339E0,-3.270771638E0,2.193772109E0,4.217212759E0
2.834036208E0,1.609795333E0,-3.288429644E0,2.774551482E0,4.593837880E0
2.844060208E0,1.927813991E0,-2.741823739E0,3.155810115E0,4.603607464E0
2.854083208E0,2.452020382E0,-1.911126768E0,2.787922310E0,4.175801753E0
2.864107208E0,2.967860431E0,-1.078715978E0,2.202665140E0,3.850137325E0
2.874131208E0,3.241007848E0,-5.332380009E-1,1.862638732E0,3.775963146E0
2.884154208E0,3.237938645E0,-4.923028135E-1,1.604591165E0,3.647097686E0
2.894178208E0,2.711009497E0,-9.243886614E-1,1.448265562E0,3.209601226E0
2.904202208E0,1.872894310E0,-1.392201582E0,7.745645776E-1,2.458842944E0
2.914226208E0,9.624473110E-1,-1.497656701E0,-1.934677014E-1,1.790728950E0
2.924249208E0,-1.131151177E-1,-1.122399357E0,-9.323534462E-1,1.463508898E0
2.934273208E0,-1.254957198E0,-4.722182125E-1,-1.408405678E0,1.944611571E0
2.944297208E0,-2.145019049E0,2.472389889E-1,-1.966715662E0,2.920651354E0
2.954321208E0,-2.592461877E0,6.946597445E-1,-2.125694147E0,3.423738651E0
2.964344208E0,-2.609425235E0,1.143431792E0,-1.466638099E0,3.204303923E0
2.974368208E0,-2.215061529E0,1.363588232E0,-1.220777883E0,2.873355022E0
2.984392208E0,-1.619660317E0,1.319478591E0,-6.747783342E-1,2.195369922E0
2.994415208E0,-7.870717719E-1,9.773270130E-1,2.489066148E-1,1.279298467E0
3.004439208E0,3.189863715E-1,1.633922553E-1,1.453145941E0,1.496690502E0
3.014463208E0,1.819295369E0,-1.473307140E0,2.550235625E0,3.461816187E0
3.024487208E0,3.413381719E0,-3.865765007E0,3.615407405E0,6.298133418E0
3.034510208E0,5.092354145E0,-6.558922954E0,4.504295866E0,9.446704309E0
3.044534208E0,6.625927953E0,-8.719945686E0,4.452372299E0,1.182218225E1
3.054555083E0,7.413031592E0,-9.616788699E0,3.680885988E0,1.268797005E1
3.064579083E0,6.944397722E0,-9.175992254E0,4.680167542E0,1.242286045E1
3.074602083E0,6.464096904E0,-9.332639746E0,5.768792211E0,1.273427175E1
3.084626083E0,5.459694943E0,-9.389889835E0,6.159195013E0,1.248655209E1
3.094650083E0,4.361757998E0,-9.605143384E0,6.321485653E0,1.229816625E1
3.104673083E0,3.011725074E0,-9.113887222E0,6.514508674E0,1.160052807E1
3.114697083E0,2.368042379E0,-9.067552131E0,6.742298654E0,1.154498668E1
3.124721083E0,1.773844669E0,-1.006011231E1,5.987716058E0,1.184082464E1
3.134745083E0,9.273817049E-1,-1.047796837E1,6.106743734E0,1.216306611E1
3.144768083E0,2.805040911E-1,-1.176738818E1,6.507479151E0,1.344981011E1
3.154792083E0,-8.273074861E-1,-1.320183414E1,7.146185135E0,1.503465412E1
3.164816083E0,-1.792784093E0,-1.914262864E1,6.924436498E0,2.043531567E1
3.174839083E0,-2.968434336E0,-2.026566125E1,5.164820443E0,2.112306792E1
3.184863083E0,-1.991768496E0,-1.752228449E1,2.885574612E0,1.786964287E1
3.194887083E0,-1.623064274E-1,-1.465658281E1,2.165815987E0,1.481662991E1
3.204911083E0,9.686089607E-1,-1.353465766E1,1.171150956E0,1.361971937E1
3.214934083E0,1.998798896E0,-1.313222421E1,-3.598388207E-1,1.328834052E1
3.224958083E0,2.696099682E0,-1.159905386E1,2.819695495E-1,1.191161244E1
3.234982083E0,2.990388876E0,-8.759051279E0,3.483367628E-1,9.262005369E0
3.245006083E0,2.351700434E0,-5.297412490E0,-1.111959811E0,5.901654737E0
3.255029083E0,1.181571133E0,-1.507733207E0,-3.073111775E0,3.621240913E0
3.265053083E0,4.607981983E-1,2.613059864E0,-5.283225975E0,5.912097220E0
3.275077083E0,8.206461187E-2,6.593784639E0,-7.813077037E0,1.022393776E1
3.285100083E0,-4.465565372E-1,9.862210958E0,-9.811197510E0,1.391841278E1
3.295124083E0,-1.422106435E0,1.252810158E1,-1.070050405E1,1.653712499E1
3.305148083E0,-2.411870330E0,1.417629134E1,-9.036129194E0,1.698340324E1
3.315172083E0,-3.536258032E0,1.462558672E1,-6.122307268E0,1.624486239E1
3.325195083E0,-4.234378159E0,1.427308615E1,-3.463699349E0,1.528555396E1
3.335219083E0,-5.021244986E0,1.408380360E1,-1.319994316E0,1.501029013E1
3.345243083E0,-4.668866920E0,1.387506150E1,3.495694289E-1,1.464369656E1
3.355266083E0,-3.411507979E0,1.362508134E1,4.430827794E-1,1.405267059E1
3.365290083E0,-1.540399993E0,1.332947535E1,-1.503775958E-1,1.341902973E1
3.375314083E0,-6.533025344E-1,1.233493999E1,-7.484623877E-1,1.237488362E1
3.385338083E0,-4.514490487E-1,1.169872082E1,-1.681532922E0,1.182757068E1
3.395361083E0,-2.776635868E-1,1.129701009E1,-1.417394895E0,1.138896582E1
3.405385083E0,-4.523028152E-1,1.101400953E1,-9.228648770E-1,1.106185623E1
3.415409083E0,-4.783469716E-1,1.081166312E1,-8.403513086E-1,1.085481762E1
3.425433083E0,-3.305849084E-1,1.065724751E1,-5.192976540E-1,1.067501199E1
3.435456083E0,-3.848390298E-1,1.041131245E1,-5.064725174E-1,1.043072589E1
3.445480083E0,-4.961875574E-1,9.953407642E0,-9.186841178E-1,1.000802210E1
3.455504083E0,-1.572753368E-1,9.389203956E0,-1.382508945E0,9.491744700E0
3.465527083E0,-4.368747175E-3,8.142461219E0,-1.356707521E0,8.254716778E0
3.475551083E0,-1.091214694E-1,7.596693805E0,-1.012999122E0,7.664713398E0
3.485575083E0,-4.471626011E-1,7.616476105E0,-1.923640394E-1,7.632015892E0
3.495599083E0,-7.493496296E-1,7.989043729E0,3.710292220E-1,8.032683690E0
3.505622083E0,-9.696963966E-1,8.615104524E0,1.856923664E-1,8.671494607E0
3.515646083E0,-1.226591185E0,9.298522997E0,-1.046085153E-1,9.379658778E0
3.525670083E0,-1.493493775E0,1.048867580E1,-3.495811234E-1,1.060023823E1
3.535693083E0,-1.817109095E0,1.195659940E1,-8.994662203E-2,1.209422363E1
3.545717083E0,-2.211319311E0,1.268157228E1,4.260684782E-1,1.287997450E1
3.555741083E0,-2.765091856E0,1.248549409E1,5.864231050E-1,1.280145257E1
3.565765083E0,-2.915842139E0,1.209638528E1,5.866406214E-1,1.245667771E1
3.575788083E0,-2.818010035E0,1.176227772E1,3.425298929E-1,1.209998696E1
3.585812083E0,-2.800985867E0,1.140391590E1,-1.247971145E-1,1.174352562E1
3.595836083E0,-2.753056240E0,1.113161107E1,-5.360013950E-1,1.147952008E1
3.605860083E0,-2.665414079E0,1.093462656E1,-9.601443851E-1,1.129567915E1
3.615883083E0,-2.706802425E0,1.081113220E1,-1.411396236E0,1.123385055E1
3.625907083E0,-2.907060791E0,1.072420632E1,-1.790917954E0,1.125464308E1
3.635931083E0,-3.137015702E0,1.078382687E1,-2.038280320E0,1.141430577E1
3.645954083E0,-3.074752504E0,1.080733385E1,-2.133006383E0,1.143688262E1
3.655978083E0,-2.955048305E0,1.074015168E1,-2.006055729E0,1.131845520E1
3.666002083E0,-3.050676008E0,1.042199298E1,-1.783666238E0,1.100481835E1
3.676026083E0,-3.214978091E0,9.241857045E0,-1.418064986E0,9.887310760E0
3.686049083E0,-3.248816512E0,8.430725443E0,-9.196518320E-1,9.081723389E0
3.696073083E0,-3.280114319E0,8.098552723E0,-5.746392113E-1,8.756478537E0
3.706097083E0,-3.370387435E0,8.224655530E0,-5.443991661E-1,8.905101936E0
3.716121083E0,-3.274377615E0,8.774577391E0,-6.694658464E-1,9.389512324E0
3.726144083E0,-3.447113429E0,9.213061847E0,-1.024158533E0,9.889994959E0
3.736168083E0,-4.190531058E0,9.523660680E0,-1.864418625E0,1.057055912E1
3.746192083E0,-5.070410129E0,9.213299829E0,-3.046944315E0,1.094887311E1
3.756215083E0,-6.032908604E0,7.723341572E0,-4.373365306E0,1.073183653E1
3.766239083E0,-6.756470550E0,5.455576749E0,-7.903092583E0,1.174189441E1
3.776263083E0,-6.495685902E0,2.454701477E0,-1.247797925E1,1.428003715E1
3.786287083E0,-4.809432523E0,1.184188054E0,-4.078084424E0,6.415895503E0
3.796310083E0,-7.942544916E-1,1.020670084E0,1.069222205E1,1.077015413E1
3.806334083E0,6.790054033E0,-2.643234420E0,2.443561244E1,2.549883679E1
3.816358083E0,2.332089691E1,-5.194381509E1,3.138717067E1,6.501675662E1
3.826382083E0,2.444244667E1,-7.167081914E1,4.209015744E1,8.663556353E1
3.836405083E0,1.847136711E1,-6.664193769E1,2.271082416E1,7.278819132E1
3.846429083E0,1.536579978E1,-4.226623348E1,-8.623081881E0,4.579191890E1
3.856453083E0,7.565965517E0,-1.189195259E1,-3.987273890E1,4.229063345E1
3.866476083E0,-3.561027423E-1,-2.205121263E0,-2.087013003E1,2.098932339E1
3.876500083E0,-7.088547376E-1,-1.337111455E0,-5.039232776E-1,1.595080171E0
3.886524083E0,-8.551257607E-1,-1.227712389E0,1.366663049E1,1.374828377E1
3.896548083E0,-2.354478739E0,-5.669799435E-1,1.309861559E1,1.332061435E1
3.906571083E0,-2.484732776E0,-7.288051450E-1,6.097850119E0,6.624864526E0
3.916595083E0,-1.649242258E0,-1.635859736E0,4.543637395E-2,2.323381494E0
3.926619083E0,-8.410664231E-2,-3.597707591E0,-3.792109385E0,5.227874083E0
3.936642083E0,-5.037499076E-1,-6.574899886E0,-2.345651489E0,6.998939448E0
3.946666083E0,-1.155860633E0,-8.658500805E0,2.674078483E0,9.135444473E0
3.956690083E0,3.705026802E-1,-7.043781093E0,6.477325644E0,9.576422705E0
3.966714083E0,2.129540153E0,-3.784833695E0,7.713048134E0,8.851611089E0
3.976737083E0,1.589949445E0,-1.107260331E0,6.387344012E0,6.674738063E0
3.986761083E0,-2.510569283E-1,6.754890633E-1,3.426920947E0,3.501871247E0
3.996785083E0,-1.952713628E0,1.638446544E0,8.822010005E-1,2.697383212E0
4.006809083E0,-2.615518618E0,2.664880228E0,-8.082512641E-1,3.820444264E0
4.016832083E0,-1.927425297E0,3.306005205E0,-2.120472583E0,4.375047733E0
4.026856083E0,-1.377089453E0,2.613670313E0,-3.416754101E0,4.516841424E0
4.036880083E0,-1.525704917E0,1.025827328E0,-5.395760318E0,5.700379515E0
4.046902500E0,-1.466494257E0,2.564156091E-1,-3.249812001E0,3.574581432E0
4.056926500E0,-6.716101666E-1,7.436921561E-1,-9.522965446E-1,1.382391749E0
4.066950500E0,-3.442730941E-1,1.638779835E0,-3.774804550E-1,1.716570653E0
4.076974500E0,-3.816588753E-1,2.315799115E0,-2.225792339E-1,2.357568780E0
4.086997500E0,-3.857085107E-1,2.652254920E0,-9.050408095E-2,2.681681973E0
4.097021500E0,-2.745736988E-1,2.867431287E0,-6.825279415E-2,2.881355817E0
4.107045500E0,1.331912403E-1,2.913480449E0,1.156669888E-1,2.918816041E0
4.117069500E0,8.521360794E-1,2.886735284E0,5.083814871E-1,3.052511791E0
4.127092500E0,1.563148147E0,2.974323651E0,9.599110812E-1,3.494490320E0
4.137116500E0,2.198792383E0,3.443508328E0,9.275981981E-1,4.189615253E0
4.147140500E0,2.204717366E0,3.708236924E0,6.300045960E-1,4.359897423E0
4.157163500E0,1.551072916E0,3.631424975E0,2.296874017E-1,3.955481114E0
4.167187500E0,9.736466293E-1,3.342031655E0,-1.040716678E-1,3.482526992E0
4.177211500E0,7.389333996E-1,2.669728739E0,-3.053041792E-1,2.786877240E0
4.187235500E0,6.696383393E-1,1.564493299E0,-5.147049585E-1,1.777913379E0
4.197258500E0,3.734928001E-1,3.105959094E-1,-8.492943326E-1,9.784005080E-1
4.207282500E0,-1.294259258E-1,-7.530424386E-1,-1.822810715E0,1.976477394E0
4.217306500E0,-7.431409098E-1,-1.537539974E0,-1.740805562E0,2.438583931E0
4.227330500E0,-1.222535556E0,-2.106137257E0,-6.147873634E-1,2.511647036E0
4.237353500E0,-1.774464474E0,-2.538459333E0,1.740359420E-1,3.102061970E0
4.247377500E0,-1.902367639E0,-2.681660568E0,4.652690890E-1,3.320659778E0
4.257401500E0,-1.247079244E0,-2.690360640E0,2.645031855E-1,2.977114198E0
4.267424500E0,-5.140146947E-1,-2.817831110E0,2.896131760E-1,2.878933668E0
4.277448500E0,4.141549225E-1,-2.745450182E0,3.563696676E-1,2.799289256E0
4.287472500E0,1.681145690E0,-2.268227922E0,2.196070942E-1,2.831843219E0
4.297496500E0,2.899872224E0,-1.564006811E0,-5.062899381E-2,3.295138770E0
4.307519500E0,3.916028549E0,-7.663869542E-1,-6.599764001E-1,4.044526846E0
4.317543500E0,4.263323046E0,-6.728975773E-3,-1.291302905E0,4.454596712E0
4.327567500E0,3.769954870E0,8.110333693E-1,-1.566103915E0,4.162092781E0
4.337590500E0,2.763130408E0,1.758852409E0,-1.328771863E0,3.534697457E0
4.347614500E0,1.933263742E0,2.824882268E0,-9.364757332E-1,3.548866766E0
4.357638500E0,1.227157926E0,3.634280171E0,-5.574045432E-1,3.876159022E0
4.367662500E0,6.835187522E-1,4.040465777E0,-5.899986774E-2,4.098297520E0
4.377685500E0,1.317116024E-1,4.014235752E0,3.307354742E-1,4.029990394E0
4.387709500E0,-1.928679232E-1,3.500948451E0,4.736803088E-1,3.538108411E0
4.397733500E0,-1.016056046E-2,2.969352348E0,1.735531081E-1,2.974437306E0
4.407757500E0,4.591909084E-1,2.715946301E0,-3.856267959E-1,2.781353740E0
4.417780500E0,6.173608692E-1,2.361690987E0,-8.715640381E-1,2.591976588E0
4.427804500E0,6.442339414E-1,2.010763907E0,-1.432884169E0,2.551737821E0
4.437828500E0,2.827657941E-1,1.885845746E0,-2.049031887E0,2.799089557E0
4.447851500E0,-2.848123196E-1,2.064137292E0,-2.478903687E0,3.238324305E0
4.457875500E0,-9.707059184E-1,1.946245145E0,-2.714273413E0,3.478134601E0
4.467899500E0,-1.474268569E0,9.626616114E-1,-2.753141609E0,3.268022936E0
4.477923500E0,-1.812273594E0,-5.464796054E-1,-2.434132726E0,3.083500878E0
4.487946500E0,-2.349834149E0,-2.253491185E0,-1.640211233E0,3.645577586E0
4.497970500E0,-3.042270636E0,-3.355507148E0,-7.783347161E-1,4.595720158E0
4.507994500E0,-2.839105912E0,-2.549148043E0,2.431792670E-1,3.823325029E0
4.518018500E0,-2.013796273E0,-4.282535827E-1,1.723291836E0,2.684867094E0
4.528041500E0,-7.513784672E-1,1.668653260E0,3.714589339E0,4.140911404E0
4.538065500E0,1.207512159E0,2.634447225E0,4.969767269E0,5.752997871E0
4.548089500E0,2.718140761E0,2.737910197E0,4.959021256E0,6.283019438E0
4.558112500E0,2.713035557E0,1.997988326E0,4.146896796E0,5.343151909E0
4.568136500E0,1.482558459E0,4.347287893E-1,3.287722716E0,3.632642201E0
4.578160500E0,6.163760519E-1,-8.122045666E-1,2.648959429E0,2.838411836E0
4.588184500E0,1.931164299E-1,-2.041585751E0,2.466484786E0,3.207633634E0
4.598207500E0,-3.913282697E-1,-3.572320735E0,2.430587413E0,4.338475357E0
4.608231500E0,-9.783876979E-1,-4.788133455E0,2.532082067E0,5.504080674E0
4.618255500E0,-1.443263269E0,-4.745396156E0,2.235579117E0,5.440552134E0
4.628279500E0,-1.589130835E0,-3.729633055E0,1.609407809E0,4.361845141E0
4.638302500E0,-1.339591259E0,-2.401590632E0,7.946445009E-1,2.862446888E0
4.648326500E0,-3.741832101E-1,-1.032520051E0,-2.919836372E-2,1.098618803E0
4.658350500E0,3.821850517E-1,-1.685331273E-1,-4.259489027E-1,5.965746361E-1
4.668373500E0,6.902129370E-1,7.827375233E-2,-2.474661532E-1,7.374009599E-1
4.678397500E0,7.164110944E-1,1.608019388E-1,1.061737418E-1,7.418726192E-1
4.688421500E0,6.544373327E-1,2.284700114E-1,3.094595030E-1,7.591126086E-1
4.698445500E0,2.913588622E-1,3.293046606E-1,5.270779592E-1,6.863983691E-1
4.708468500E0,-4.108715647E-1,6.768789464E-1,6.876951259E-1,1.048763623E0
4.718492500E0,-8.631231438E-1,9.916579539E-1,6.990274684E-1,1.488961538E0
4.728516500E0,-1.024582894E0,9.085368598E-1,4.402602553E-1,1.438415248E0
4.738539500E0,-1.137148885E0,5.402242541E-1,1.639991963E-1,1.269584802E0
4.748563500E0,-1.282444374E0,2.993938136E-1,-1.478135186E-1,1.325197745E0
4.758587500E0,-1.363437666E0,3.468293506E-1,-9.382489014E-1,1.691024503E0
4.768611500E0,-1.526688565E0,4.440872580E-1,-2.455062250E0,2.924948225E0
4.778634500E0,-1.718019255E0,3.989578629E-1,-4.300188571E0,4.647835979E0
4.788658500E0,-1.919702441E0,5.832778877E-1,-5.052833984E0,5.436598369E0
4.798682500E0,-2.091226273E0,1.191859601E0,-4.131993413E0,4.781958406E0
4.808706500E0,-2.297574805E0,2.028238311E0,-2.969326328E0,4.267259012E0
4.818729500E0,-2.730336591E0,3.055863658E0,-2.237330065E0,4.668906341E0
4.828753500E0,-3.030332376E0,4.079389522E0,-1.845095623E0,5.406358390E0
4.838777500E0,-3.193696564E0,4.839594800E0,-1.867821850E0,6.091808766E0
4.848800500E0,-3.522341074E0,6.166731489E0,-2.462944297E0,7.516751859E0
4.858824500E0,-2.493235797E0,8.428238622E0,-3.231011741E0,9.364340226E0
4.868848500E0,6.124247959E-1,1.068849971E1,-3.543463556E0,1.127719931E1
4.878872500E0,2.797837726E0,1.154354157E1,-2.292712553E0,1.209701528E1
4.888895500E0,3.120643206E0,9.888130496E0,-1.931489697E0,1.054723619E1
4.898919500E0,1.709109268E0,5.163957978E0,-2.738940477E0,6.090099460E0
4.908943500E0,1.654462067E0,9.810943741E-1,-1.308822918E0,2.326544290E0
4.918967500E0,1.894108447E0,-2.544731641E0,1.447292001E0,3.486826647E0
4.928990500E0,1.306771276E0,-4.650308735E0,3.592561457E0,6.019926936E0
4.939014500E0,9.811623479E-1,-5.094102463E0,4.517885088E0,6.879232887E0
4.949038500E0,7.670908128E-1,-4.074876641E0,2.995687623E0,5.115387795E0
4.959061500E0,1.647273793E0,-2.166802704E0,-1.098928633E-1,2.724081744E0
4.969085500E0,2.913396249E0,-4.407981992E-1,-2.508463116E0,3.869698691E0
4.979109500E0,4.012195951E0,1.096867490E0,-3.650447722E0,5.534130755E0
4.989133500E0,4.329763788E0,2.789783771E0,-2.113570822E0,5.567488623E0
4.999156500E0,3.832334136E0,4.293606945E0,7.092982489E-1,5.798702401E0
5.009180500E0,3.320648387E0,4.798272527E0,1.925955307E0,6.144870120E0
5.019204500E0,2.620713869E0,4.881011798E0,3.879104552E0,6.763125718E0
5.029228500E0,1.683421572E0,4.667641636E0,5.922162924E0,7.726111592E0
5.039251500E0,1.416482583E0,3.517263352E0,4.594652305E0,5.957213627E0
5.049275958E0,4.592081577E-2,-1.509750497E0,2.210425564E0,2.677206839E0
5.059299958E0,-2.601267200E0,-8.579903702E0,1.737922592E0,9.132453860E0
5.069322958E0,-3.231061442E0,-9.386351100E0,2.345402106E0,1.020020863E1
5.079346958E0,-1.345382926E0,-6.520409099E0,2.523219734E0,7.119861506E0
5.089370958E0,1.492164119E-1,-4.428394622E0,2.034325555E0,4.875594828E0
5.099394958E0,8.331010535E-1,-3.013378374E0,1.981887725E0,3.701673344E0
5.109417958E0,1.330018343E0,-1.309314961E0,2.036111880E0,2.762065540E0
5.119441958E0,1.348466017E0,-2.805014598E-1,1.624887143E0,2.130093870E0
5.129465958E0,7.172511931E-1,1.332182837E-1,2.272239989E0,2.386476682E0
5.139489958E0,-6.546085100E-1,3.618461698E-1,2.304338280E0,2.422688560E0
5.149512958E0,-2.694917375E0,3.979790390E-2,-1.470370084E-1,2.699219037E0
5.159536958E0,-3.595038337E0,-5.221171814E-1,-2.288308430E0,4.293397544E0
5.169560958E0,-3.011957793E0,-1.085825023E0,-2.392190648E0,3.996683854E0
5.179583958E0,-1.532502890E0,-1.556957992E0,-2.008893383E0,2.967884082E0
5.189607958E0,-6.224551097E-2,-1.588521847E0,-1.743759575E0,2.359655403E0
5.199631958E0,8.755949624E-1,-9.343084627E-1,-1.527402948E0,1.993127846E0
5.209655958E0,8.692317300E-1,1.172700030E-1,-1.802293420E0,2.004389589E0
5.219678958E0,4.193433031E-2,1.002268896E0,-1.854359367E0,2.108305028E0
5.229702958E0,-1.067825101E0,1.204926374E0,-1.856577508E0,2.457433225E0
5.239726958E0,-1.465742451E0,1.128424913E0,-1.272914874E0,2.245452292E0
5.249750958E0,-9.020397261E-1,4.172274882E-1,5.077955961E-2,9.951547658E-1
5.259773958E0,4.153321132E-1,-4.567418021E-1,1.035666145E0,1.205702369E0
5.269797958E0,2.018331959E0,-1.146078241E0,2.146163787E0,3.161198860E0
5.279821958E0,3.599174073E0,-2.029125334E0,3.268492978E0,5.268249232E0
5.289844958E0,5.235933110E0,-3.010458859E0,3.847062687E0,7.160848371E0
5.299868958E0,6.527658477E0,-3.808412007E0,4.157403658E0,8.625446793E0
5.309892958E0,6.848277683E0,-4.085869406E0,4.308869932E0,9.064193076E0
5.319916958E0,5.797832408E0,-4.174492730E0,4.499880049E0,8.443350676E0
5.329939958E0,4.356804529E0,-4.292287813E0,4.880705696E0,7.824753572E0
5.339963958E0,3.625007656E0,-4.455497636E0,5.484953161E0,7.942093607E0
5.349987958E0,3.561672955E0,-4.554985086E0,6.540761502E0,8.730118236E0
5.360011958E0,3.816791652E0,-4.555875033E0,7.566701682E0,9.621791422E0
5.370034958E0,4.307574774E0,-4.880730547E0,8.341898636E0,1.058130445E1
5.380058958E0,4.909323431E0,-5.576415893E0,9.032136131E0,1.169518507E1
5.390082958E0,5.572367865E0,-6.399683976E0,9.365130969E0,1.263775758E1
5.400106958E0,6.270061730E0,-7.462065758E0,9.278150128E0,1.345660318E1
5.410129958E0,6.862381167E0,-9.233794320E0,9.289742818E0,1.478697246E1
5.420153958E0,7.058320194E0,-1.157063522E1,9.273343717E0,1.642237459E1
5.430177958E0,6.714038476E0,-1.404114699E1,9.124646684E0,1.804137740E1
5.440200958E0,5.692885997E0,-1.600447945E1,9.062984287E0,1.925331134E1
5.450224958E0,3.884252733E0,-1.655133328E1,8.581536244E0,1.904407564E1
5.460248958E0,1.671453491E0,-1.512377183E1,7.708826444E0,1.705720482E1
5.470272958E0,-1.622337757E-1,-1.292892939E1,6.561668222E0,1.449962154E1
5.480295958E0,-1.372040528E0,-1.108458776E1,5.565174036E0,1.247885184E1
5.490319958E0,-2.034682235E0,-1.009913312E1,4.183248059E0,1.111899213E1
5.500343958E0,-2.402702042E0,-9.989096707E0,2.553812367E0,1.058664195E1
5.510366958E0,-2.577151528E0,-9.731787059E0,1.381075353E0,1.016153327E1
5.520390958E0,-2.355955161E0,-8.951603599E0,6.907783628E-1,9.282182204E0
5.530414958E0,-1.513038094E0,-7.448914200E0,1.445905334E-1,7.602401821E0
5.540438958E0,-7.434646263E-1,-6.498373867E0,-9.045801951E-1,6.603019604E0
5.550461958E0,-5.750624766E-1,-5.508749574E0,-3.885288860E0,6.765536804E0
5.560485958E0,-3.191288242E-1,-1.682586005E0,-7.077307858E0,7.281567509E0
5.570509958E0,2.693975973E-1,3.539748235E0,-8.025653147E0,8.775733648E0
5.580533958E0,8.000904514E-1,6.774686381E0,-9.698352680E0,1.185725790E1
5.590556958E0,1.087307000E0,1.002639610E1,-1.068738640E1,1.469459368E1
5.600580958E0,1.056292564E0,1.319787207E1,-1.016439740E1,1.669175113E1
5.610604958E0,1.309274469E0,1.495358862E1,-7.472645710E0,1.676795891E1
5.620627958E0,1.242439917E0,1.558626788E1,-3.842748612E0,1.610099749E1
5.630651958E0,-4.836806921E-1,1.599621500E1,-9.535481411E-1,1.603190866E1
5.640675958E0,-1.339653532E0,1.485847196E1,2.344311746E-1,1.492058372E1
5.650699958E0,-1.275387515E0,1.334183637E1,6.248696443E-1,1.341721555E1
5.660722958E0,-8.333281448E-1,1.284086447E1,1.845691162E-1,1.286919974E1
5.670746958E0,-4.844274546E-1,1.312150510E1,-9.925303584E-1,1.316790350E1
5.680770958E0,-3.743324969E-1,1.297656431E1,-1.279237614E0,1.304483787E1
5.690794958E0,-8.855590564E-1,1.255473565E1,-1.130755028E0,1.263662174E1
5.700817958E0,-1.183556920E0,1.215106961E1,-1.164168357E0,1.226395481E1
5.710841958E0,-1.338203422E0,1.183019664E1,-1.447692828E0,1.199333796E1
5.720865958E0,-1.030703394E0,1.142260711E1,-1.303178893E0,1.154281499E1
5.730888958E0,-4.073848701E-1,1.117092073E1,-7.900307554E-1,1.120622956E1
5.740912958E0,7.204310551E-2,1.061408571E1,-1.021975182E0,1.066341591E1
5.750936958E0,-2.414467371E-1,9.273991588E0,-1.995812431E0,9.489387955E0
5.760960958E0,-6.288070862E-1,7.712803136E0,-2.343963983E0,8.085598167E0
5.770983958E0,-7.233178255E-1,7.389880126E0,-2.863715381E0,7.958290189E0
5.781007958E0,-8.935576089E-1,7.584658481E0,-3.767341749E0,8.515770859E0
5.791031958E0,-1.423616479E0,7.843199553E0,-3.994590277E0,8.916233206E0
5.801055958E0,-1.900601195E0,8.221751218E0,-3.929076903E0,9.308443656E0
5.811078958E0,-2.197901121E0,8.768752395E0,-3.723371857E0,9.776772774E0
5.821102958E0,-1.881521438E0,9.790752136E0,-2.821422470E0,1.036143692E1
5.831126958E0,-1.094117910E0,1.113351726E1,-6.469920731E-1,1.120584220E1
5.841149958E0,-8.671022471E-1,1.196100821E1,1.836543778E0,1.213220823E1
5.851173958E0,-1.041576876E0,1.257100495E1,3.535085666E0,1.310007169E1
5.861197958E0,-1.260569940E0,1.281917598E1,4.311756118E0,1.358350287E1
5.871221958E0,-1.561892896E0,1.259261158E1,4.344611623E0,1.341227147E1
5.881244958E0,-1.848511274E0,1.219269594E1,3.669943509E0,1.286651909E1
5.891268958E0,-2.001843980E0,1.185566477E1,2.434657221E0,1.226750676E1
5.901292958E0,-2.088261588E0,1.156411090E1,1.138580357E0,1.180617900E1
5.911316958E0,-2.043775971E0,1.137661291E1,1.554283476E-1,1.155977939E1
5.921339958E0,-1.977632122E0,1.134371531E1,-8.323061246E-1,1.154485337E1
5.931363958E0,-1.831000764E0,1.108086426E1,-1.700802421E0,1.135917450E1
5.941387958E0,-1.709165255E0,1.060107682E1,-2.122797729E0,1.094579124E1
5.951410958E0,-1.694354696E0,1.001984020E1,-2.365990444E0,1.043388452E1
5.961434958E0,-1.826167309E0,9.308805910E0,-2.342581117E0,9.771204675E0
5.971458958E0,-1.926858117E0,8.705232337E0,-2.220439214E0,9.188264393E0
5.981482958E0,-2.029615769E0,8.194545878E0,-1.801954574E0,8.632320812E0
5.991505958E0,-2.050607858E0,7.723756140E0,-1.355779275E0,8.105525211E0
6.001529958E0,-2.373913422E0,7.728230429E0,-2.045671785E0,8.339411463E0
6.011553958E0,-3.278183276E0,8.070966729E0,-3.530711364E0,9.399622985E0
6.021577958E0,-4.329501248E0,7.887039052E0,-5.367322385E0,1.047655075E1
6.031600958E0,-4.392331334E0,7.035662819E0,-6.578985336E0,1.058660351E1
6.041624958E0,-4.440216522E0,5.769933003E0,-7.551018280E0,1.048930535E1
6.051648958E0,-3.967802428E0,4.570932198E0,-3.606526362E0,7.045843431E0
6.061672958E0,-3.059247150E0,-2.664494312E-1,1.169123171E1,1.208779911E1
6.071695958E0,2.739428719E0,-5.515292141E1,3.059727264E1,6.313115161E1
6.081719958E0,1.440707627E1,-7.157373665E1,3.250894262E1,7.991992852E1
6.091743958E0,2.694090812E1,-5.504271777E1,4.835798787E0,6.147274404E1
6.101766958E0,2.467268430E1,-2.714147230E1,-1.167274632E1,3.849225735E1
6.111790958E0,8.706919259E0,-1.332347143E1,-1.614223517E1,2.266929841E1
6.121814958E0,2.957162073E-1,-7.106798290E0,-7.601038286E0,1.041008228E1
6.131838958E0,-1.769904231E0,-3.740535189E0,-4.415200379E-1,4.161622812E0
6.141861958E0,-6.723272399E0,-3.028060732E0,2.348444412E0,7.738651995E0
6.151885958E0,-9.530203130E0,-5.350857795E0,4.350913167E0,1.176379600E1
6.161909958E0,-8.465707580E0,-6.838670708E0,3.945459340E0,1.157593501E1
6.171933958E0,-4.937613430E0,-4.739334932E0,9.502123046E-1,6.909719633E0
6.181956958E0,-2.161364794E0,-3.536626992E0,1.118375596E0,4.293016681E0
6.191980958E0,-5.343849322E-1,-4.172111160E0,3.530421342E0,5.491443675E0
6.202004958E0,9.090148696E-1,-4.568294519E0,5.643616773E0,7.317515502E0
6.212027958E0,2.558284025E0,-3.992883475E0,6.372121956E0,7.943039331E0
6.222051958E0,4.516158990E0,-2.833592865E0,5.875961734E0,7.934221250E0
6.232075958E0,5.921684622E0,-1.407645248E0,3.757402360E0,7.153033370E0
6.242099958E0,7.051287163E0,4.369957548E-1,1.742381094E-1,7.066963625E0
6.252122958E0,8.000107246E0,2.331757920E0,-2.950690960E0,8.839988014E0
6.262146958E0,7.882356017E0,4.345485781E0,-4.550741762E0,1.008583331E1
6.272170958E0,5.653885653E0,5.419200636E0,-2.976070507E0,8.378016124E0
6.282194958E0,2.214952625E0,5.146825052E0,-2.639026179E0,6.193567826E0
6.292217958E0,2.982413274E-1,4.927420564E0,-3.405213743E0,5.996991074E0
6.302241958E0,-4.994675530E-1,4.118050143E0,-2.424905235E0,4.804994299E0
6.312265958E0,-1.064158458E0,3.286620516E0,-1.002809179E0,3.597211960E0
6.322288958E0,-2.044960471E0,2.979349333E0,-1.055780567E-1,3.615180840E0
6.332312958E0,-2.863382967E0,2.932390929E0,1.596646553E-1,4.101630332E0
6.342336958E0,-2.671719424E0,2.895398519E0,-1.862127686E-1,3.944121253E0
6.352360958E0,-1.752726135E0,2.702926891E0,-6.661323488E-1,3.289619277E0
6.362383958E0,-1.227227362E0,2.285845583E0,-5.914230591E-1,2.661007002E0
6.372407958E0,-4.114204721E-1,2.162857003E0,1.072247788E-2,2.201665777E0
6.382431958E0,4.965411678E-1,2.447911690E0,7.061840218E-1,2.595673447E0
6.392455958E0,1.031629666E0,2.415263761E0,1.057412964E0,2.831233120E0
6.402478958E0,1.490868083E0,1.864036801E0,7.071406263E-1,2.489451487E0
6.412502958E0,1.824498806E0,1.594839764E0,-3.454390289E-1,2.447782239E0
6.422526958E0,1.067042451E0,1.202429613E0,-1.033021304E0,1.910902818E0
6.432550958E0,2.632283463E-1,7.928941369E-1,-8.756692220E-1,1.210275531E0
6.442573958E0,-1.082367857E-1,2.527844882E-1,-3.037425341E-1,4.097251838E-1
6.452597958E0,-5.528258809E-1,-6.074648952E-1,-2.423086166E-2,8.217160022E-1
6.462621958E0,-1.129744191E0,-1.321307600E0,1.587022036E-2,1.738513035E0
6.472644958E0,-1.579716379E0,-1.504576880E0,4.232055353E-1,2.222241740E0
6.482668958E0,-1.597330385E0,-1.314217851E0,1.114999121E0,2.349862966E0
6.492692958E0,-8.220094702E-1,-7.886572444E-1,9.357644194E-1,1.474223479E0
6.502716958E0,-1.752110861E-1,-3.776751673E-1,4.027348718E-1,5.792519604E-1
6.512739958E0,4.073410159E-1,-2.721031040E-1,-1.468928745E-1,5.114140388E-1
6.522763958E0,1.174513544E0,-2.511408359E-1,-5.622667953E-1,1.326159015E0
6.532787958E0,1.903356842E0,-1.603856170E-1,-8.495010316E-1,2.090488655E0
6.542810958E0,2.232296344E0,-2.729328239E-1,-8.157672751E-1,2.392303396E0
6.552834958E0,1.576227930E0,-6.328774792E-1,-4.053934546E-1,1.746245184E0
6.562858958E0,1.031796750E0,-5.973462886E-1,-1.958100960E-1,1.208208888E0
6.572882958E0,6.480080268E-1,-5.442290121E-1,-1.041519208E-1,8.526120120E-1
6.582905958E0,2.212405139E-1,-5.557404256E-1,-4.730075866E-2,6.000267889E-1
6.592929958E0,-1.172135773E-1,-3.648773664E-1,-1.626271471E-1,4.163197140E-1
6.602953958E0,-4.855960572E-1,-9.024358749E-2,-2.743794250E-1,5.650057564E-1
6.612977958E0,-8.108326636E-1,1.882628024E-1,-3.328121129E-1,8.964688470E-1
6.623000958E0,-9.346290363E-1,4.585690570E-1,-3.663806856E-1,1.103653851E0
6.633024958E0,-8.544888528E-1,7.174048287E-1,-3.301427127E-1,1.163535603E0
6.643048958E0,-7.034494253E-1,8.864899331E-1,-1.895785721E-1,1.147451755E0
6.653072958E0,-5.903275833E-1,9.652577752E-1,-9.587869540E-2,1.135518363E0
6.663095958E0,-5.346936652E-1,9.555566597E-1,-5.989902332E-2,1.096619231E0
6.673119958E0,-4.379105517E-1,8.404635751E-1,-7.071871117E-2,9.503398384E-1
6.683143958E0,-3.237518522E-1,6.891148299E-1,-1.270566340E-1,7.719053691E-1
6.693166958E0,-2.185019705E-1,5.987847036E-1,-1.501927507E-1,6.548618898E-1
6.703190958E0,-1.952369227E-1,5.034335732E-1,-8.732582688E-2,5.469813696E-1
6.713214958E0,-1.897769389E-1,3.012742782E-1,-1.413564384E-2,3.563443470E-1
6.723238958E0,-1.773461969E-1,7.246161997E-2,-5.175195158E-2,1.984455200E-1
6.733261958E0,-9.443574876E-2,-2.962959588E-2,-1.424178542E-1,1.734326059E-1
6.743285958E0,7.763026625E-2,-2.356427908E-4,-2.382578118E-1,2.505859107E-1
6.753309958E0,2.335905643E-1,1.674174786E-2,-3.082659401E-1,3.871339919E-1
6.763333958E0,3.069978252E-1,1.033729255E-2,-2.782204610E-1,4.144407668E-1
6.773356958E0,3.376600394E-1,-1.378890395E-2,-1.086345425E-1,3.549730974E-1
6.783380958E0,3.515771435E-1,-4.439790845E-3,1.126736529E-1,3.692174856E-1
6.793404958E0,3.036067325E-1,-9.472489357E-3,2.604538424E-1,4.001287044E-1
6.803427958E0,1.952470091E-1,-6.767450452E-2,3.364189678E-1,3.948150897E-1
6.813451958E0,1.219240943E-1,-1.518574530E-1,3.261940880E-1,3.799062435E-1
6.823475958E0,1.502930304E-1,-2.137543237E-1,3.246216255E-1,4.167230563E-1
6.833499958E0,2.957325795E-1,-1.904940999E-1,4.439422470E-1,5.664189963E-1
6.843522958E0,4.728457649E-1,-9.947751045E-2,6.370787036E-1,7.995925007E-1
6.853546958E0,6.543421693E-1,-1.021701533E-1,8.603495170E-1,1.085727271E0
6.863570958E0,8.515710922E-1,-1.821074384E-1,9.161142665E-1,1.263962734E0
6.873594958E0,1.035531513E0,-1.863560253E-1,7.650239682E-1,1.300890370E0
6.883617958E0,1.160647749E0,-7.344687581E-2,5.772593486E-1,1.298355112E0
6.893641958E0,1.303267186E0,1.272915459E-1,4.916337459E-1,1.398718068E0
6.903665958E0,1.379109227E0,3.102696347E-1,5.507029031E-1,1.517064005E0
6.913689958E0,1.362360024E0,3.759496540E-1,6.143616861E-1,1.541039668E0
6.923712958E0,1.355316907E0,2.631106710E-1,6.629431312E-1,1.531536724E0
6.933736958E0,1.256247386E0,-1.480515003E-2,6.022661358E-1,1.393234074E0
6.943760958E0,1.014827838E0,-3.816337323E-1,4.728011799E-1,1.182819007E0
6.953783958E0,7.759541684E-1,-6.418605566E-1,3.447266918E-1,1.064390125E0
6.963807958E0,5.706661744E-1,-7.442388707E-1,2.311258167E-1,9.659039924E-1
6.973831958E0,3.695305806E-1,-7.186765981E-1,1.028735733E-1,8.146360382E-1
6.983855958E0,2.333278781E-1,-5.351553029E-1,-1.830646276E-2,5.840960739E-1
6.993878958E0,8.083059356E-2,-3.132505453E-1,-1.321312863E-1,3.494540968E-1
7.003902958E0,-4.813201346E-2,-7.919118047E-2,-2.243243355E-1,2.427124662E-1
7.013926958E0,-9.458916508E-2,1.620497346E-1,-3.586208457E-1,4.047420630E-1
7.023950958E0,-1.482422657E-1,3.224651724E-1,-5.039406730E-1,6.163730678E-1
7.033973958E0,-2.493913490E-1,3.718723905E-1,-6.226887059E-1,7.669591542E-1
7.043997958E0,-3.881780092E-1,3.980006737E-1,-7.388180633E-1,9.246290249E-1
7.054025708E0,-6.057407706E-1,3.414224303E-1,-8.547056383E-1,1.101822529E0
7.064049708E0,-7.722636252E-1,2.225081903E-1,-9.902552068E-1,1.275345591E0
7.074072708E0,-9.951651138E-1,1.512388176E-1,-1.139736498E0,1.520600561E0
7.084096708E0,-1.416790585E0,5.446096659E-3,-1.169694122E0,1.837255987E0
7.094120708E0,-1.645040887E0,-2.271701753E-2,-1.361675169E0,2.135611119E0
7.104144708E0,-1.692517355E0,6.644483507E-2,-1.797168189E0,2.469583652E0
7.114167708E0,-1.842597693E0,1.510014206E-1,-2.286721057E0,2.940588526E0
7.124191708E0,-2.066643116E0,2.628282505E-1,-2.760033138E0,3.458016105E0
7.134215708E0,-2.186465136E0,4.551039970E-1,-3.215108483E0,3.914673933E0
7.144238708E0,-2.245469390E0,7.420812482E-1,-3.481384252E0,4.208664119E0
7.154262708E0,-2.396400205E0,1.057665417E0,-3.394748397E0,4.287855729E0
7.164286708E0,-2.702016187E0,1.317900428E0,-3.049062177E0,4.281884301E0
7.174310708E0,-3.053444665E0,1.575213584E0,-2.607762287E0,4.313379916E0
7.184333708E0,-3.422807431E0,1.917472751E0,-2.484115895E0,4.643613274E0
7.194357708E0,-3.463591175E0,2.738872064E0,-2.541185305E0,5.094654725E0
7.204381708E0,-3.165919366E0,3.868153009E0,-2.761711873E0,5.710753506E0
7.214405708E0,-2.697339292E0,4.707874573E0,-2.281337380E0,5.885934292E0
7.224428708E0,-2.090258558E0,5.451597134E0,-1.245214859E0,5.969895493E0
7.234452708E0,-1.715616196E0,6.654047797E0,-2.543442330E-1,6.876364011E0
7.244476708E0,-1.666826005E0,7.673963590E0,7.910730216E-1,7.892643577E0
7.254500708E0,-9.610815476E-1,7.954361554E0,8.925119805E-1,8.061769230E0
7.264523708E0,6.319085956E-2,7.020557122E0,-4.263580616E-1,7.033775414E0
7.274547708E0,-2.949198166E-1,4.718248703E0,-9.302943492E-1,4.818121636E0
7.284571708E0,-5.727176701E-1,2.592730265E0,-5.840614146E-1,2.718709895E0
7.294594708E0,-4.635014758E-1,1.282141780E0,-1.316820154E0,1.895451525E0
7.304618708E0,-2.319216228E-1,-4.279986441E-2,-1.726204188E0,1.742240042E0
7.314642708E0,-4.413376048E-2,-1.218383156E0,-7.255654952E-1,1.418749658E0
7.324666708E0,2.261931056E-1,-1.849996467E0,2.206210014E-1,1.876785517E0
7.334689708E0,6.474870399E-1,-2.163841090E0,4.333152249E-1,2.299828214E0
7.344713708E0,1.201893423E0,-2.301342459E0,2.268076479E-2,2.596389672E0
7.354737708E0,2.218927416E0,-1.618941402E0,-9.127535793E-1,2.894430727E0
7.364761708E0,2.993462173E0,-8.273722440E-1,-1.487987745E0,3.443757851E0
7.374784708E0,3.393864590E0,-1.603090185E-1,-2.914509559E-1,3.410126024E0
7.384808708E0,3.594492207E0,5.085188967E-1,2.283985584E0,4.289004062E0
7.394832708E0,3.587555071E0,1.059183939E0,4.166998939E0,5.599669826E0
7.404856708E0,3.576912553E0,1.246175557E0,4.799912963E0,6.114443669E0
7.414879708E0,3.457895402E0,9.952346957E-1,4.493191711E0,5.756414202E0
7.424903708E0,2.805716849E0,-1.849328130E-1,3.304790154E0,4.339111100E0
7.434927708E0,1.694087040E0,-2.244794621E0,1.631767854E0,3.251415095E0
7.444951708E0,1.006528885E0,-3.776530648E0,3.746226284E-1,3.926273838E0
7.454974708E0,7.195979731E-1,-4.097161549E0,7.547726297E-1,4.227793246E0
7.464998708E0,4.477574091E-1,-3.012386101E0,2.341521601E0,3.841572612E0
7.475022708E0,2.276476005E-1,-1.134624715E0,3.830381458E0,4.001377112E0
7.485045708E0,2.989785151E-1,3.294619507E-1,4.487275791E0,4.509276810E0
7.495069708E0,8.405906059E-1,1.210865391E0,3.921822848E0,4.189687579E0
7.505093708E0,1.844088002E0,1.235652907E0,3.046946654E0,3.769798745E0
7.515117708E0,2.963281769E0,6.085133010E-1,2.525958278E0,3.941039521E0
7.525140708E0,4.013584372E0,-4.504127759E-1,2.301332518E0,4.648425813E0
7.535164708E0,4.512746847E0,-1.684003370E0,2.683780183E0,5.513930316E0
7.545188708E0,3.852067027E0,-2.481601008E0,3.255646060E0,5.621031508E0
7.555212708E0,1.938183589E0,-2.278845881E0,2.922338103E0,4.182075342E0
7.565235708E0,-2.842275980E-1,-1.272043639E0,1.612605067E0,2.073493537E0
7.575259708E0,-2.034098976E0,-1.299286401E-1,7.633072257E-2,2.039673129E0
7.585283708E0,-3.084294867E0,6.680245078E-1,-1.340896065E0,3.428867718E0
7.595307708E0,-3.650471111E0,1.031451180E0,-2.902926224E0,4.776694624E0
7.605330708E0,-4.225835377E0,1.546133042E0,-4.160963735E0,6.128770776E0
7.615354708E0,-4.892940410E0,2.245606214E0,-4.063278689E0,6.744912663E0
7.625378708E0,-4.921848752E0,2.594502556E0,-2.688531046E0,6.179339595E0
7.635402708E0,-4.336741270E0,1.773687964E0,-1.506880391E0,4.921786500E0
7.645425708E0,-3.037498139E0,-2.538159370E-1,-3.172930178E-1,3.064554181E0
7.655449708E0,-9.065265870E-1,-2.722049040E0,1.281511743E0,3.142230701E0
7.665473708E0,1.450541299E0,-4.619916662E0,2.644208567E0,5.517203908E0
7.675496708E0,3.712069189E0,-5.601665339E0,3.219586866E0,7.451432871E0
7.685520708E0,5.566914167E0,-5.733374457E0,3.084483732E0,8.565988320E0
7.695544708E0,6.502111992E0,-5.352917184E0,2.821303187E0,8.882056879E0
7.705568708E0,6.509058484E0,-4.819590306E0,2.625616760E0,8.514115129E0
7.715591708E0,5.750098078E0,-4.417189602E0,2.831132941E0,7.783990341E0
7.725615708E0,4.688990113E0,-4.124095579E0,3.795105498E0,7.307367403E0
7.735639708E0,3.948108129E0,-3.974485211E0,4.866227113E0,7.420529415E0
7.745663708E0,3.687193964E0,-3.953457454E0,5.692132291E0,7.850197143E0
7.755686708E0,3.958177911E0,-3.937565306E0,6.517152200E0,8.581658681E0
7.765710708E0,4.637837501E0,-4.234609124E0,6.998944058E0,9.403545557E0
7.775734708E0,5.644225468E0,-5.085135173E0,7.336826584E0,1.056148215E1
7.785758708E0,6.848099928E0,-6.320526125E0,7.624610751E0,1.204077291E1
7.795781708E0,7.860133089E0,-7.857386652E0,7.569679084E0,1.344694235E1
7.805805708E0,8.396537942E0,-9.492618982E0,7.832274030E0,1.489819388E1
7.815829708E0,8.134842882E0,-1.134491516E1,8.471217996E0,1.632924686E1
7.825853708E0,6.924717749E0,-1.325463216E1,8.716133886E0,1.730918772E1
7.835876708E0,5.521496505E0,-1.417185448E1,7.862835088E0,1.712169847E1
7.845900708E0,3.907144582E0,-1.415013558E1,6.003878932E0,1.585997093E1
7.855924708E0,2.015639608E0,-1.387775473E1,3.855852514E0,1.454381236E1
7.865947708E0,1.603780156E-1,-1.391066169E1,2.682594368E0,1.416787007E1
7.875971708E0,-1.214171845E0,-1.358823219E1,2.272239989E0,1.383030520E1
7.885995708E0,-1.926298831E0,-1.272101760E1,1.980586135E0,1.301758954E1
7.896019708E0,-1.910035385E0,-1.161451624E1,6.304029375E-1,1.178739286E1
7.906042708E0,-1.616878650E0,-1.116522321E1,-9.987833709E-1,1.132581450E1
7.916066708E0,-1.239007163E0,-1.053132773E1,-3.180666044E-1,1.060873078E1
7.926090708E0,-1.370294988E-2,-8.251994771E0,9.954498732E-1,8.311830480E0
7.936114708E0,1.542024350E0,-4.957923149E0,6.274894162E-1,5.229969791E0
7.946137708E0,2.372146393E0,-1.952565985E0,-7.468609084E-1,3.161865534E0
7.956161708E0,2.587680025E0,1.269678440E0,-2.404728248E0,3.753783318E0
7.966185708E0,1.915348750E0,4.770733895E0,-4.671252877E0,6.946154776E0
7.976209708E0,3.504593021E-1,7.033647868E0,-7.661748172E0,1.040660411E1
7.986232708E0,-7.665737727E-1,8.817666693E0,-1.032260435E1,1.359761162E1
7.996256708E0,-1.353499007E0,1.158316113E1,-1.183298927E1,1.661388625E1
8.006280708E0,-2.391522312E0,1.414595131E1,-7.737770746E0,1.630031943E1
8.016304708E0,-3.936165483E0,1.514717239E1,-9.180040866E-1,1.567714775E1
8.026327708E0,-4.610586845E0,1.501840500E1,1.844117677E0,1.581805203E1
8.036351708E0,-3.771980053E0,1.386720519E1,1.489564739E0,1.444804541E1
8.046375708E0,-3.923658873E0,1.271225379E1,6.110690459E-1,1.331802917E1
8.056396083E0,-3.288068871E0,1.272924580E1,-7.292192010E-1,1.316726457E1
8.066419083E0,-2.225820698E0,1.293654597E1,-2.515863937E0,1.336555539E1
8.076443083E0,-1.477414225E0,1.260008081E1,-2.878228755E0,1.300880432E1
8.086467083E0,-7.449319851E-1,1.188004064E1,-2.201228333E0,1.210519291E1
8.096490083E0,-6.877723092E-1,1.132473525E1,-1.431770421E0,1.143558594E1
8.106514083E0,-6.265455294E-1,1.111973070E1,-8.486913384E-1,1.116965743E1
8.116538083E0,-2.474831101E-1,1.103678560E1,-1.959578843E-1,1.104129901E1
8.126562083E0,5.345012918E-1,1.092734678E1,4.622941719E-1,1.095017421E1
8.136585083E0,8.081423597E-1,1.042519959E1,3.007204007E-1,1.046079889E1
8.146609083E0,8.222468671E-1,9.890647137E0,-3.183748989E-1,9.929871765E0
8.156633083E0,6.953257424E-1,8.815257640E0,-8.490421714E-1,8.883305565E0
8.166657083E0,3.018098831E-1,7.256367143E0,-4.325099172E-1,7.275508102E0
8.176680083E0,-5.218910404E-1,6.862967643E0,-2.860932983E-1,6.888725898E0
8.186704083E0,-1.166651962E0,7.131969384E0,-9.613196754E-1,7.290418343E0
8.196728083E0,-1.411009151E0,7.627236151E0,-2.087145501E0,8.032549687E0
8.206752083E0,-1.613676569E0,7.957791531E0,-3.966428917E0,9.036755860E0
8.216775083E0,-2.267666882E0,8.115779205E0,-5.523027890E0,1.007531748E1
8.226799083E0,-2.974674484E0,9.330393246E0,-5.682631735E0,1.132242155E1
8.236823083E0,-2.690743925E0,1.136450216E1,-3.225225336E0,1.211586112E1
8.246847083E0,-2.124339347E0,1.243294166E1,-6.110573332E-2,1.261327039E1
8.256870083E0,-2.115855914E0,1.260963867E1,1.752166117E0,1.290542210E1
8.266894083E0,-1.991739260E0,1.245123526E1,2.482875116E0,1.285165178E1
8.276918083E0,-1.766069334E0,1.210470704E1,2.402955372E0,1.246664060E1
8.286941083E0,-1.701742799E0,1.171809850E1,1.715734456E0,1.196467741E1
8.296965083E0,-1.755170709E0,1.136431622E1,6.337101227E-1,1.151650537E1
8.306989083E0,-1.989563219E0,1.109708209E1,-2.447814224E-1,1.127667995E1
8.317013083E0,-2.176570332E0,1.092910328E1,-8.064590925E-1,1.117287489E1
8.327036083E0,-2.324908931E0,1.091187505E1,-1.432768394E0,1.124842406E1
8.337060083E0,-2.510380126E0,1.099030024E1,-2.076424631E0,1.146299468E1
8.347084083E0,-2.641283789E0,1.103031625E1,-2.808284946E0,1.168463610E1
8.357108083E0,-2.664157512E0,1.104919106E1,-3.112051308E0,1.178419372E1
8.367131083E0,-2.326218853E0,1.055048788E1,-3.050474864E0,1.122628548E1
8.377155083E0,-2.013475700E0,8.939909168E0,-2.340422325E0,9.457993285E0
8.387179083E0,-2.251839054E0,8.027010285E0,-1.412570357E0,8.455709802E0
8.397203083E0,-2.765731834E0,8.317111119E0,-1.518462848E0,8.895467349E0
8.407226083E0,-3.367904122E0,9.244033379E0,-2.161936067E0,1.007317720E1
8.417250083E0,-3.764535670E0,9.070806107E0,-2.134043094E0,1.005014389E1
8.427274083E0,-3.833039310E0,7.410359414E0,-1.689837137E0,8.512412499E0
8.437298083E0,-4.292402419E0,6.495988787E0,-9.191552572E-1,7.840117042E0
8.447321083E0,-4.408883340E0,4.924061338E0,9.289494896E-1,6.674397315E0
8.457345083E0,-3.332579046E0,3.454682357E0,7.663146826E0,9.042385336E0
8.467369083E0,6.676292360E-2,-4.488471839E0,1.341658366E1,1.414763422E1
8.477392083E0,1.289923021E1,-6.339839361E1,2.642170578E1,6.988456903E1
8.487416083E0,1.863297947E1,-7.078745454E1,2.270557804E1,7.663938230E1
8.497440083E0,2.186177336E1,-5.765810248E1,7.469602818E0,6.211432108E1
8.507464083E0,1.625265166E1,-2.821362478E1,6.950112206E0,3.329356347E1
8.517487083E0,8.242854989E0,-1.319945316E1,-2.159765580E0,1.571097735E1
8.527511083E0,3.150032482E0,-5.514807875E0,-9.697631133E0,1.159223275E1
8.537535083E0,3.152327514E-1,-3.649736116E0,-1.703261175E1,1.742210689E1
8.547559083E0,-1.711614507E-1,-5.791525016E0,-3.191119112E0,6.614703277E0
8.557582083E0,-8.097420117E-1,-3.988038472E0,8.904587892E0,9.790394196E0
8.567606083E0,2.524880344E-1,-2.331874280E0,7.292457912E0,7.660374029E0
8.577630083E0,1.586441115E0,-3.087172574E0,1.528187060E0,3.792464319E0
8.587654083E0,1.822576534E0,-3.921711166E0,-1.869094935E0,4.711169660E0
8.597677083E0,1.990009215E0,-5.251033545E0,-2.575403211E0,6.177879220E0
8.607701083E0,3.027224581E0,-5.673011895E0,-7.396879828E-1,6.472579929E0
8.617725083E0,4.964260361E0,-4.480617859E0,1.573389107E0,6.869888690E0
8.627749083E0,6.978919099E0,-2.396959053E0,2.888075759E0,7.924121786E0
8.637772083E0,8.080178432E0,1.806204915E-3,3.951388709E0,8.994596127E0
8.647796083E0,7.510025205E0,2.700472814E0,4.200428640E0,9.018682429E0
8.657820083E0,5.607433033E0,5.574823696E0,3.300239266E0,8.568170381E0
8.667844083E0,3.007289668E0,7.569404265E0,1.116157454E0,8.221038835E0
8.677867083E0,4.337311082E-1,8.072022151E0,-1.159826946E0,8.166447381E0
8.687891083E0,-1.207061777E0,8.091829010E0,-2.275494988E0,8.491912170E0
8.697915083E0,-2.017877338E0,7.929109184E0,-2.410597098E0,8.529570902E0
8.707938083E0,-2.476941946E0,7.423539038E0,-2.166246634E0,8.120147643E0
8.717962083E0,-3.069801081E0,6.420180221E0,-2.062331672E0,7.409156813E0
8.727986083E0,-3.845672804E0,5.119284666E0,-2.316320394E0,6.808936406E0
8.738010083E0,-4.567188225E0,3.768008332E0,-2.991103991E0,6.633535871E0
8.748033083E0,-4.729911267E0,3.109722946E0,-1.091418470E0,5.764861808E0
8.758057083E0,-3.733065371E0,3.208005286E0,8.672506933E-1,4.997919441E0
8.768081083E0,-1.529208276E0,3.677201657E0,1.366310695E0,4.210355673E0
8.778105083E0,3.486402333E-3,3.427598054E0,1.349587074E0,3.683724453E0
8.788128083E0,6.400154677E-1,2.718423182E0,1.144618046E0,3.018210540E0
8.798152083E0,7.931588696E-1,1.942088360E0,3.514350562E-1,2.127043673E0
8.808176083E0,8.089362654E-1,9.719779801E-1,-9.272754318E-1,1.568106757E0
8.818200083E0,6.367879508E-1,-2.648472941E-1,-1.719974856E0,1.853093762E0
8.828223083E0,5.149891332E-2,-1.634175738E0,-1.506940763E0,2.223522643E0
8.838247083E0,-3.471633728E-1,-2.573512221E0,-7.848010057E-1,2.712821442E0
8.848271083E0,-2.625763817E-1,-2.721495894E0,-4.376360250E-1,2.768936898E0
8.858295083E0,-1.310944287E-1,-2.267011117E0,-4.812164927E-1,2.321226931E0
8.868318083E0,3.053885253E-1,-9.705185151E-1,-3.811931446E-2,1.018146071E0
8.878342083E0,1.041238542E0,4.878302783E-1,1.261640565E-1,1.156751248E0
8.888366083E0,1.543568015E0,1.426896620E0,6.688688457E-2,2.103119121E0
8.898390083E0,1.556735360E0,1.609808636E0,1.371908820E-1,2.243597593E0
8.908413083E0,1.306366795E0,1.235691499E0,2.714027537E-1,1.818567331E0
8.918437083E0,1.189108925E0,5.728838772E-1,3.778375737E-1,1.372930153E0
8.928461083E0,9.963678861E-1,-1.252415121E-1,5.144345248E-1,1.128307264E0
8.938485083E0,7.258024536E-1,-6.692231870E-1,7.870166619E-1,1.262554594E0
8.948508083E0,5.366428345E-1,-9.901575583E-1,1.101055997E0,1.575030739E0
8.958532083E0,5.044004104E-1,-1.117331575E0,1.307092288E0,1.792021170E0
8.968556083E0,5.280407032E-1,-1.165419661E0,1.268870209E0,1.801960482E0
8.978579083E0,5.357093266E-1,-1.166261660E0,8.246443717E-1,1.525512728E0
8.988603083E0,5.126574098E-1,-1.073244739E0,-9.466890648E-2,1.193161385E0
8.998627083E0,4.919350237E-1,-8.915536219E-1,-1.012037839E0,1.435649162E0
9.008651083E0,5.237389067E-1,-5.169920969E-1,-1.358830352E0,1.545316536E0
9.018674083E0,4.790635478E-1,6.941755950E-2,-1.235020677E0,1.326497928E0
9.028698083E0,2.679869565E-1,5.793982601E-1,-7.772089809E-1,1.005769930E0
9.038722083E0,1.399180233E-2,9.077942634E-1,-2.895359927E-1,9.529518803E-1
9.048746083E0,-2.359601484E-1,1.011712734E0,9.000151277E-2,1.042756021E0
9.058768583E0,-4.848296334E-1,1.033594769E0,2.968303943E-1,1.179612734E0
9.068792583E0,-6.790036784E-1,9.110815680E-1,3.786830811E-1,1.197713027E0
9.078816583E0,-7.971742988E-1,6.888212997E-1,3.821167123E-1,1.120702827E0
9.088840583E0,-9.277778538E-1,3.461358708E-1,4.178502166E-1,1.074793278E0
9.098863583E0,-1.035260495E0,2.543538809E-3,3.415341121E-1,1.090145087E0
9.108887583E0,-1.019882756E0,-2.588685161E-1,1.524638093E-1,1.063211624E0
9.118911583E0,-8.370346217E-1,-3.982579511E-1,-9.149430692E-2,9.314545409E-1
9.128935583E0,-6.128221142E-1,-4.356789619E-1,-2.376881468E-1,7.885827519E-1
9.138958583E0,-4.324110992E-1,-3.584963000E-1,-2.982138455E-1,6.359484676E-1
9.148982583E0,-2.923979124E-1,-1.741563946E-1,-2.743630528E-1,4.371522318E-1
9.159006583E0,-1.903061119E-1,-5.995734930E-3,-2.351172723E-1,3.025433800E-1
9.169030583E0,-1.057549350E-1,2.091168970E-1,-1.711189122E-1,2.901648928E-1
9.179053583E0,3.476754427E-3,3.908308178E-1,-2.793229535E-2,3.918431180E-1
9.189077583E0,1.083936372E-1,4.750196135E-1,1.216828966E-1,5.021947243E-1
9.199101583E0,2.045737566E-1,4.398994821E-1,1.617494801E-1,5.113950240E-1
9.209124583E0,3.271166325E-1,3.137574989E-1,8.420999184E-2,4.610210213E-1
9.219148583E0,3.830899814E-1,1.590062588E-1,-3.012076199E-2,4.158703939E-1
9.229172583E0,3.690933551E-1,-1.782172859E-2,-9.596333385E-2,3.817806703E-1
9.239196583E0,3.543893619E-1,-2.061201990E-1,-8.841501698E-2,4.193978677E-1
9.249219583E0,4.037917560E-1,-3.847631621E-1,-7.829933390E-2,5.632239864E-1
9.259243583E0,3.906029226E-1,-5.434864157E-1,-7.903681397E-2,6.739398676E-1
9.269267583E0,3.022566104E-1,-6.354286194E-1,-4.256480634E-2,7.049399631E-1
9.279291583E0,2.138470021E-1,-6.467178386E-1,4.692463651E-2,6.827711364E-1
9.289314583E0,1.219680946E-1,-5.322550839E-1,1.572053164E-1,5.682298848E-1
9.299338583E0,7.378338307E-2,-2.752658629E-1,2.623826927E-1,3.873757354E-1
9.309362583E0,1.086493067E-1,1.203532398E-2,3.031072341E-1,3.222165673E-1
9.319386583E0,1.442661591E-1,2.465420008E-1,1.918839830E-1,3.441150182E-1
9.329409583E0,1.701571915E-1,4.337996668E-1,-8.656802773E-3,4.660585381E-1
9.339433583E0,1.987538767E-1,5.145713496E-1,-9.383377790E-2,5.595458473E-1
9.349457583E0,2.504562731E-1,4.483142102E-1,-3.503534675E-2,5.147246364E-1
9.359481583E0,2.155586283E-1,2.764692199E-1,1.171343476E-1,3.696230609E-1
9.369504583E0,1.161758427E-1,1.211893916E-1,2.818359406E-1,3.280475461E-1
9.379528583E0,1.381010011E-2,-1.385029972E-2,4.210435273E-1,4.214975700E-1
9.389552583E0,-1.045008534E-1,-1.440414798E-1,4.613944316E-1,4.945232025E-1
9.399576583E0,-2.138326764E-1,-1.697891092E-1,4.032631677E-1,4.870050693E-1
9.409599583E0,-2.222009191E-1,-8.986176431E-2,2.774024355E-1,3.666067326E-1
9.419623583E0,-1.185446960E-1,2.305498660E-2,1.993064386E-1,2.330395542E-1
9.429647583E0,7.733132735E-2,1.369850600E-1,2.366602063E-1,2.841708889E-1
9.439671583E0,2.990823032E-1,2.325309026E-1,3.261571044E-1,4.998992914E-1
9.449694583E0,5.190919782E-1,2.614640951E-1,3.910302079E-1,7.005173648E-1
9.459718583E0,6.686846584E-1,2.146378380E-1,4.054650830E-1,8.109318759E-1
9.469742583E0,7.528972815E-1,1.486882621E-1,3.058232658E-1,8.261297632E-1
9.479765583E0,8.093666205E-1,1.184008545E-1,1.920196384E-1,8.402170138E-1
9.489789583E0,7.997356716E-1,1.298502874E-1,1.271950668E-1,8.201322007E-1
9.499813583E0,7.442855023E-1,1.490314937E-1,1.420616126E-1,7.722388211E-1
9.509837583E0,7.193675928E-1,1.526655382E-1,2.331518769E-1,7.714637372E-1
9.519860583E0,7.382071754E-1,9.821918964E-2,3.247286296E-1,8.124318593E-1
9.529884583E0,7.311055858E-1,-2.452322245E-3,3.416009165E-1,8.069774332E-1
9.539908583E0,6.278010727E-1,-9.389225006E-2,3.189590357E-1,7.104117173E-1
9.549932583E0,4.853725474E-1,-1.316026980E-1,3.109044962E-1,5.912422393E-1
9.559955583E0,3.724958499E-1,-1.400554329E-1,2.988226868E-1,4.976581966E-1
9.569979583E0,2.850198957E-1,-1.020719200E-1,2.877479142E-1,4.176767649E-1
9.580003583E0,2.172306396E-1,-5.502580762E-2,3.195035577E-1,3.902557029E-1
9.590027583E0,1.237165582E-1,-2.631773293E-2,3.862821226E-1,4.064631448E-1
9.600050583E0,6.334858820E-2,7.627575874E-2,4.394413528E-1,4.504883323E-1
9.610074583E0,-2.798711300E-2,1.365330702E-1,3.712625259E-1,3.965607405E-1
9.620098583E0,-4.093153283E-2,1.395823932E-1,2.457695836E-1,2.855894310E-1
9.630122583E0,9.920970798E-3,1.331679976E-1,1.590061127E-1,2.076417230E-1
9.640145583E0,-7.214572415E-2,7.388951004E-2,3.281632841E-2,1.083585558E-1
9.650169583E0,-1.966551648E-1,-5.082165956E-2,-1.764223368E-1,2.690370530E-1
9.660193583E0,-2.526500022E-1,-1.161835903E-1,-3.875014132E-1,4.769570164E-1
9.670217583E0,-3.087519899E-1,-1.546606082E-1,-4.950287855E-1,6.035736852E-1
9.680240583E0,-3.729848233E-1,-1.869027400E-1,-4.862510915E-1,6.406952759E-1
9.690264583E0,-4.114521933E-1,-1.935136020E-1,-4.040933262E-1,6.083024230E-1
9.700288583E0,-3.508047263E-1,-1.919617510E-1,-4.353028397E-1,5.911022180E-1
9.710312583E0,-3.034346782E-1,-2.175561833E-1,-6.123208617E-1,7.171751072E-1
9.720335583E0,-2.903899786E-1,-2.260691446E-1,-8.232563889E-1,9.017675308E-1
9.730359583E0,-3.573603322E-1,-2.183800560E-1,-1.020030398E0,1.102659634E0
9.740383583E0,-6.619719087E-1,-2.644105071E-1,-1.277200444E0,1.462655359E0
9.750407583E0,-1.030137164E0,-3.516398549E-1,-1.590891285E0,1.927632809E0
9.760430583E0,-1.339615379E0,-3.967575556E-1,-1.723799520E0,2.218889521E0
9.770454583E0,-1.671790583E0,-3.463843775E-1,-1.626300854E0,2.357905927E0
9.780478583E0,-1.994445937E0,-1.247176015E-1,-1.538230530E0,2.521809318E0
9.790501583E0,-2.414738827E0,1.140037483E-1,-1.533720573E0,2.862910976E0
9.800525583E0,-2.816310834E0,3.160683185E-1,-1.708529370E0,3.309165832E0
9.810549583E0,-2.824413906E0,5.937502509E-1,-2.108182467E0,3.574113399E0
9.820573583E0,-2.799658256E0,8.792288607E-1,-2.509786926E0,3.861367654E0
9.830596583E0,-2.871276123E0,1.136037987E0,-2.713929597E0,4.110988049E0
9.840620583E0,-2.820810851E0,1.418510544E0,-2.670508173E0,4.135306509E0
9.850644583E0,-2.560293421E0,1.755769756E0,-2.400660925E0,3.924411129E0
9.860668583E0,-2.247296937E0,1.934397517E0,-2.048142233E0,3.603765237E0
9.870691583E0,-2.148960072E0,1.763178179E0,-1.961446152E0,3.402072558E0
9.880715583E0,-2.025052602E0,1.386513410E0,-2.097921919E0,3.228704672E0
9.890739583E0,-1.612232745E0,1.334968450E0,-2.043488581E0,2.925283023E0
9.900763583E0,-1.288252413E0,1.644090861E0,-1.961495415E0,2.865326037E0
9.910786583E0,-1.009922170E0,2.199082258E0,-1.562352780E0,2.880425624E0
9.920810583E0,-4.801056679E-1,3.310181871E0,-4.048439625E-1,3.369229008E0
9.930834583E0,1.973493755E-1,4.445341022E0,6.313957947E-1,4.494292406E0
9.940858583E0,1.042630764E0,5.445752842E0,1.357728006E0,5.708478630E0
9.950881583E0,1.936340693E0,5.994132208E0,1.482816467E0,6.471304419E0
9.960905583E0,2.615154629E0,5.754147275E0,-1.076380308E-1,6.321457944E0
9.970929583E0,2.738540820E0,4.676707159E0,-1.182488561E0,5.547023965E0
9.980953583E0,2.773562425E0,3.648331030E0,-9.291921490E-1,4.676148616E0
9.990976583E0,2.080256457E0,2.988367494E0,-6.445479369E-1,3.697735692E0
1.000100058E1,9.255510879E-1,2.358941041E0,-3.759467304E-3,2.534020873E0
1.001102458E1,1.158464983E-1,2.116507879E0,8.448451862E-1,2.281839039E0
1.002104858E1,-1.486077167E-1,1.695668566E0,1.285817925E0,2.133237885E0
1.003107158E1,2.020720254E-1,7.032849723E-1,1.712980417E0,1.862725091E0
1.004109558E1,1.324054476E0,-5.412580419E-1,2.006503918E0,2.464170955E0
1.005111958E1,2.727579337E0,-2.251293216E0,5.627456823E-1,3.581158037E0
1.006114250E1,4.036078903E0,-3.777263305E0,-8.744850147E-1,5.596639619E0
1.007116650E1,4.623289921E0,-4.384610671E0,-9.133935571E-1,6.436917602E0
1.008119050E1,3.810044550E0,-3.989366375E0,4.397284511E-1,5.533971869E0
1.009121450E1,2.375264421E0,-3.375812189E0,1.946143696E0,4.563492554E0
1.010123750E1,1.517538842E0,-2.031931413E0,3.061261515E0,3.975297658E0
1.011126150E1,1.089587122E0,-7.751770735E-1,3.367391321E0,3.623178701E0
1.012128550E1,7.227284262E-1,-8.555119693E-2,2.900309011E0,2.990225367E0
1.013130950E1,3.643853232E-2,-2.346692294E-1,2.123755503E0,2.136992010E0
1.014133250E1,-9.547415578E-1,-6.217706931E-1,1.264403082E0,1.702012160E0
1.015135650E1,-1.210869338E0,-2.224573195E-1,6.569533896E-1,1.395449594E0
1.016138050E1,-1.137643633E0,1.289208725E0,5.683207101E-1,1.810878406E0
1.017140450E1,-1.707783996E0,3.305009424E0,1.000739264E-1,3.721508869E0
1.018142750E1,-2.662885158E0,5.029160362E0,-5.499496356E-1,5.717154529E0
1.019145150E1,-2.935740799E0,6.469097443E0,-1.903680339E0,7.354712407E0
1.020147550E1,-2.730553231E0,5.927074585E0,-2.387268462E0,6.948754190E0
1.021149950E1,-2.606490810E0,3.121508009E0,-2.416310413E0,4.730344872E0
1.022152250E1,-1.802715881E0,3.069946092E-1,-1.986776582E0,2.700242846E0
1.023154650E1,-1.168412851E0,-1.441333396E0,-1.181078505E0,2.199449245E0
1.024157050E1,-8.101823071E-1,-2.189586380E0,-9.201032370E-2,2.336482353E0
1.025159450E1,-6.945474780E-1,-2.618309494E0,1.162866767E0,2.947914504E0
1.026161750E1,-2.104649726E-1,-2.723679829E0,2.000702019E0,3.386079722E0
1.027164150E1,5.208059433E-1,-2.614939159E0,1.796386855E0,3.214988549E0
1.028166550E1,1.571756126E0,-2.468152412E0,1.396441982E0,3.242259067E0
1.029168950E1,2.810281478E0,-2.351281189E0,1.672821448E0,4.027969316E0
1.030171250E1,4.142882975E0,-2.520180936E0,1.830427006E0,5.183170296E0
1.031173650E1,5.220755492E0,-3.147666113E0,1.820977905E0,6.362393449E0
1.032176050E1,5.804830356E0,-3.940363199E0,2.125964581E0,7.330910107E0
1.033178450E1,6.104887828E0,-4.520208187E0,3.345367491E0,8.300206088E0
1.034180750E1,6.364700085E0,-5.227658715E0,5.001785452E0,9.636165240E0
1.035183150E1,6.496722028E0,-6.116871697E0,6.312987894E0,1.093056872E1
1.036185550E1,6.627312573E0,-6.709347839E0,6.994049939E0,1.174109684E1
1.037187950E1,6.803810193E0,-7.089038542E0,7.060574881E0,1.209950488E1
1.038190250E1,6.824196510E0,-7.268529936E0,7.122522622E0,1.225281657E1
1.039192650E1,6.721798316E0,-7.162880690E0,7.462087977E0,1.233580923E1
1.040195050E1,6.299255708E0,-7.293168933E0,8.232690774E0,1.267470445E1
1.041197350E1,5.599630508E0,-7.766384681E0,8.852540656E0,1.303994129E1
1.042199750E1,4.799719128E0,-8.652308019E0,9.176219711E0,1.349454504E1
1.043202150E1,3.911055492E0,-9.796006444E0,9.591316473E0,1.425662825E1
1.044204550E1,2.938614998E0,-1.103957824E1,9.884337991E0,1.510655100E1
1.045206850E1,1.928428094E0,-1.188167552E1,9.563531089E0,1.537381459E1
1.046209250E1,1.263106754E0,-1.226163227E1,8.503496380E0,1.497506312E1
1.047211650E1,8.682059821E-1,-1.281206109E1,7.168507465E0,1.470680762E1
1.048214050E1,6.724452952E-1,-1.361261742E1,6.027101734E0,1.490239883E1
1.049216350E1,4.671485303E-1,-1.430793088E1,4.931284404E0,1.514109242E1
1.050218750E1,3.592299794E-1,-1.460334625E1,4.408550633E0,1.525850866E1
1.051221150E1,8.570296142E-1,-1.408195821E1,4.275862108E0,1.474174493E1
1.052223550E1,1.552113282E0,-1.287249557E1,3.974166830E0,1.356112827E1
1.053225850E1,2.098999561E0,-1.122532790E1,3.113273668E0,1.183664896E1
1.054228250E1,2.613387308E0,-9.839383428E0,9.905575079E-1,1.022861005E1
1.055230650E1,3.276552195E0,-9.142719258E0,-1.557868696E0,9.836262735E0
1.056233050E1,4.684308832E0,-7.546338753E0,-1.443297476E0,8.998504621E0
1.057235350E1,6.131093879E0,-5.319407376E0,-1.719261496E0,8.297124025E0
1.058237750E1,6.773304684E0,-1.697336776E0,-4.614738953E0,8.369852094E0
1.059240150E1,6.615433370E0,3.309790692E0,-9.873223604E0,1.233690469E1
1.060242550E1,4.244743226E0,6.484946321E0,-1.274015320E1,1.491254094E1
1.061244850E1,1.660834948E0,8.376906500E0,-1.180119795E1,1.456705902E1
1.062247250E1,-8.661339847E-2,1.135562375E1,-1.303901492E1,1.729085315E1
1.063249650E1,-3.578595017E-1,1.378288600E1,-1.324915917E1,1.912161679E1
1.064252050E1,-1.425148595E0,1.481389981E1,-3.938347079E0,1.539458521E1
1.065254350E1,-3.264387648E0,1.522363526E1,3.311665310E0,1.591799058E1
1.066256750E1,-3.747757377E0,1.483067547E1,5.380667485E0,1.621561602E1
1.067259150E1,-3.936824757E0,1.422423383E1,5.257988223E0,1.566760535E1
1.068261550E1,-4.281055020E0,1.421803929E1,2.694096426E0,1.509099828E1
1.069263850E1,-3.331581511E0,1.423761460E1,4.148647014E-1,1.462809686E1
1.070266250E1,-2.202569245E0,1.355979367E1,3.842234641E-1,1.374288701E1
1.071268650E1,-1.713323649E0,1.279414288E1,1.023774955E0,1.294888741E1
1.072271050E1,-1.649094031E0,1.233072765E1,1.889907807E0,1.258324708E1
1.073273350E1,-1.724750277E0,1.229133379E1,2.481143171E0,1.265731888E1
1.074275750E1,-1.886481046E0,1.200398758E1,2.324157125E0,1.237158983E1
1.075278150E1,-2.374079483E0,1.092664628E1,1.680355293E0,1.130714138E1
1.076280550E1,-3.163984523E0,9.183082588E0,9.109096599E-1,9.755488726E0
1.077282850E1,-3.677665341E0,8.048839695E0,6.473028526E-2,8.849476415E0
1.078285250E1,-3.769899321E0,7.971499159E0,-8.456611651E-1,8.858446960E0
1.079287650E1,-3.927724442E0,7.055805892E0,-1.106487621E-1,8.076116593E0
1.080289950E1,-4.813237306E0,6.219962786E0,-7.647989966E-1,7.901905336E0
1.081292350E1,-6.195317357E0,5.658968053E0,-2.776238696E0,8.838177294E0
1.082294750E1,-6.242717226E0,5.069370494E0,-4.106606557E0,9.029631941E0
1.083297150E1,-5.965422964E0,5.064799141E0,-4.661912534E0,9.108890710E0
1.084299450E1,-5.282201543E0,5.447616350E0,-4.796558708E0,8.976923330E0
1.085301850E1,-4.230630679E0,6.292753020E0,-4.254781433E0,8.694834188E0
1.086304250E1,-2.879285932E0,8.696929291E0,-2.666185327E0,9.541247862E0
1.087306650E1,-1.403967057E0,1.160364977E1,-2.161107516E-1,1.169027439E1
1.088308950E1,-1.125284958E0,1.246038615E1,1.844621122E0,1.264634794E1
1.089311350E1,-1.393450547E0,1.253395933E1,3.473869411E0,1.308088718E1
1.090313750E1,-1.462274468E0,1.251312219E1,4.125008329E0,1.325640099E1
1.091316150E1,-1.591348976E0,1.224637923E1,3.115072564E0,1.273616398E1
1.092318450E1,-1.790336741E0,1.174783042E1,1.533247533E0,1.198197284E1
1.093320850E1,-1.835171583E0,1.164345177E1,5.194830108E-1,1.179863070E1
1.094323250E1,-1.986752609E0,1.154120853E1,-4.238237321E-1,1.171863075E1
1.095325650E1,-2.100390614E0,1.140008715E1,-1.086783382E0,1.164279716E1
1.096327950E1,-2.078178649E0,1.132854062E1,-1.443247190E0,1.160765357E1
1.097330350E1,-2.051792504E0,1.127472284E1,-1.450360912E0,1.155131051E1
1.098332750E1,-2.095962371E0,1.117630368E1,-1.516470702E0,1.147181353E1
1.099335150E1,-1.938393943E0,1.111112009E1,-1.806549901E0,1.142269597E1
1.100337450E1,-1.638079339E0,1.105874073E1,-2.134738328E0,1.138139527E1
1.101339850E1,-1.285912357E0,1.085406830E1,-2.539767355E0,1.122117585E1
1.102342250E1,-1.671086579E0,1.042744025E1,-4.206012731E0,1.136725928E1
1.103344650E1,-3.449119609E0,1.012457085E1,-6.604821843E0,1.257088034E1
1.104346950E1,-5.958503954E0,9.766874446E0,-9.043356353E0,1.458348038E1
1.105349350E1,-7.559110826E0,9.745469543E0,-1.160378309E1,1.693405194E1
1.106351762E1,-8.649052874E0,9.650169868E0,-1.260172855E1,1.807582520E1
1.107354162E1,-9.575702069E0,9.793514945E0,-9.501257073E0,1.666975978E1
1.108356462E1,-1.243325273E1,8.591204615E0,-7.074465526E0,1.668660039E1
1.109358862E1,-1.412099773E1,4.574065136E0,-1.289260911E0,1.489922288E1
1.110361262E1,-1.549549921E1,5.119529665E-1,8.151001663E0,1.751603322E1
1.111363662E1,-1.099718358E1,-2.148602661E0,2.301765095E1,2.560013273E1
1.112365962E1,2.298032350E0,-2.445742490E1,3.471277925E1,4.252556441E1
1.113368362E1,3.201768529E1,-7.029645683E1,2.544680887E1,8.132812610E1
1.114370762E1,3.318778564E1,-6.955274245E1,-3.230651669E1,8.356269574E1
1.115373062E1,1.289891563E1,-4.687648235E1,-1.569508573E1,5.108935641E1
1.116375462E1,9.233821217E0,-7.014901110E0,7.988619221E0,1.408155989E1
1.117377863E1,9.206748024E0,4.210686995E0,8.116414213E0,1.297575716E1
1.118380262E1,6.599582153E0,5.493204167E0,9.484436388E0,1.279391692E1
1.119382562E1,5.305077605E0,4.306672549E0,8.721070690E0,1.107918548E1
1.120384962E1,7.266874005E0,-1.386592348E0,9.713105205E0,1.220960724E1
1.121387362E1,1.112580011E1,-6.539655209E0,7.742394724E0,1.504975729E1
1.122389762E1,1.359996872E1,-8.966467221E0,3.261381009E-1,1.629303685E1
1.123392063E1,1.131307590E1,-7.655130293E0,-2.252631352E0,1.384417040E1
1.124394462E1,7.611259804E0,-4.529491226E0,-1.745578060E0,9.027436476E0
1.125396862E1,6.913987523E0,-3.321015007E0,-1.644920581E0,7.844624138E0
1.126399262E1,6.192456899E0,-2.298931652E0,1.806998675E0,6.848127729E0
1.127401562E1,4.562360764E0,-2.359180192E0,5.069664609E0,7.216811358E0
1.128403962E1,3.095543156E0,-2.471443809E0,5.392808644E0,6.691248538E0
1.129406362E1,1.764577125E0,-1.238070731E0,4.521178240E0,5.008752763E0
1.130408763E1,3.356866041E-1,1.317694021E0,3.770841308E0,4.008521822E0
1.131411062E1,-7.118599141E-1,3.776461067E0,2.922529015E0,4.827999437E0
1.132413462E1,-9.345022979E-1,5.307804746E0,2.446078003E0,5.918562610E0
1.133415862E1,-9.807574283E-1,6.206904784E0,2.056258754E0,6.611788880E0
1.134418262E1,-1.096645149E0,6.711497276E0,1.671517811E0,7.002913541E0
1.135420562E1,-8.324544977E-1,6.442951033E0,5.254780148E-1,6.517723962E0
1.136422963E1,9.749998212E-2,4.974569002E0,-8.340991732E-1,5.044954354E0
1.137425362E1,9.274740909E-1,3.355969663E0,-1.234318281E0,3.694087463E0
1.138427762E1,1.551558966E0,2.669545137E0,-9.479368606E-1,3.229921168E0
1.139430062E1,1.771514700E0,2.720511807E0,-3.289789706E-1,3.263077687E0
1.140432462E1,1.297850325E0,2.753029928E0,3.546231043E-1,3.064204105E0
1.141434862E1,5.237412456E-1,2.927136621E0,8.324552286E-1,3.087946793E0
1.142437262E1,-2.630272020E-1,3.020010286E0,9.493409233E-1,3.176616695E0
1.143439562E1,-1.170552932E0,2.807369857E0,7.413268112E-1,3.130668478E0
1.144441962E1,-2.194696262E0,2.221285890E0,2.812903954E-1,3.135271436E0
1.145444362E1,-3.188228248E0,1.534671915E0,-2.368018551E-1,3.546278665E0
1.146446762E1,-3.516295638E0,1.033018234E0,-6.959293212E-1,3.730385946E0
1.147449062E1,-3.403553719E0,5.378210485E-1,-6.063599177E-1,3.498728590E0
1.148451462E1,-2.408888542E0,5.687469721E-1,-1.998199703E-1,2.483172396E0
1.149453863E1,-1.518943782E0,5.706648588E-1,4.615698481E-1,1.686978161E0
1.150456262E1,-1.092389838E0,3.680167365E-1,1.081245630E0,1.580456893E0
1.151458563E1,-4.444550478E-1,2.234232795E-1,1.011588042E0,1.127283735E0
1.152460962E1,2.858019608E-1,1.933890563E-1,3.480291992E-1,4.901085711E-1
1.153463362E1,6.532363147E-1,1.546167541E-1,-3.252111711E-1,7.459130842E-1
1.154465762E1,4.772775158E-1,-1.015971261E-1,-8.657983911E-1,9.938423704E-1
1.155468062E1,-5.627901211E-2,-4.672515875E-1,-1.148659787E0,1.241334234E0
1.156470462E1,-5.904345873E-1,-4.372442615E-1,-1.150515109E0,1.365093609E0
1.157472862E1,-1.090662425E0,-3.164068723E-1,-8.950420707E-1,1.445945414E0
1.158475262E1,-1.399605326E0,-3.357494617E-1,-5.464404291E-1,1.539551854E0
1.159477562E1,-1.396357490E0,-3.084558284E-1,-2.395610100E-1,1.449947832E0
1.160479962E1,-1.273743424E0,-2.416209841E-1,7.407822892E-2,1.298572522E0
1.161482362E1,-1.140231611E0,-2.665242755E-1,3.919675165E-1,1.234828672E0
1.162484762E1,-9.446089178E-1,-2.462075400E-1,2.936591569E-1,1.019382098E0
1.163487062E1,-9.535387856E-1,3.066279888E-2,9.396914095E-3,9.540779448E-1
1.164489463E1,-9.428234705E-1,2.931706220E-1,-1.718878211E-1,1.002202840E0
1.165491862E1,-7.622060488E-1,4.296838117E-1,-3.755733857E-1,9.521772980E-1
1.166494163E1,-5.184970240E-1,3.814571464E-1,-4.785127401E-1,8.020742864E-1
1.167496562E1,-3.431005812E-1,2.076340431E-1,-4.577541013E-1,6.085792651E-1
1.168498962E1,-2.893651079E-1,-1.259431779E-2,-4.058530457E-1,4.986055327E-1
1.169501362E1,-2.842699903E-1,-2.387131637E-1,-3.027093311E-1,4.789846981E-1
1.170503662E1,-3.099240643E-1,-3.230282593E-1,-2.227350622E-1,5.000110897E-1
1.171506062E1,-3.012571751E-1,-3.055316359E-1,-1.519777595E-1,4.551952388E-1
1.172508462E1,-2.300303409E-1,-1.955420011E-1,-9.829052567E-2,3.175085186E-1
1.173510862E1,-1.212540033E-1,-6.034735858E-2,-6.435737908E-2,1.499540238E-1
1.174513162E1,6.611475974E-2,5.335233450E-2,-8.891977787E-2,1.229811366E-1
1.175515562E1,2.543378010E-1,2.124492252E-1,-1.882417524E-1,3.811264195E-1
1.176517962E1,4.500502485E-1,2.689011687E-1,-2.092396885E-1,5.644770252E-1
1.177520363E1,6.541062342E-1,2.923882645E-1,-2.628167023E-1,7.631634699E-1
1.178522662E1,8.642813310E-1,2.856739068E-1,-3.214997971E-1,9.653776047E-1
1.179525063E1,1.037281293E0,3.148404032E-1,-3.411610597E-1,1.136427661E0
1.180527462E1,1.109074868E0,3.041271347E-1,-3.023181523E-1,1.189090679E0
1.181529862E1,1.119162631E0,2.618125892E-1,-1.581497879E-1,1.160207818E0
1.182532162E1,1.067938244E0,1.437356704E-1,-1.218033493E-2,1.077636486E0
1.183534562E1,9.822711262E-1,2.663757563E-2,5.560117364E-3,9.826479740E-1
1.184536962E1,9.332239504E-1,1.834037662E-2,-3.158446625E-2,9.339383757E-1
1.185539362E1,7.651473445E-1,5.439021528E-2,-7.803942516E-2,7.710375517E-1
1.186541662E1,4.885024157E-1,1.583291513E-1,-1.411835070E-1,5.325744201E-1
1.187544062E1,1.902015929E-1,2.880057764E-1,-1.612831646E-1,3.809674952E-1
1.188546462E1,-6.887464553E-2,3.439759094E-1,-1.235434806E-1,3.719222158E-1
1.189548862E1,-2.595305671E-1,3.540032995E-1,-5.186202541E-2,4.420001368E-1
1.190551162E1,-3.150659595E-1,3.244655049E-1,-1.120209575E-2,4.524045863E-1
1.191553562E1,-2.940729935E-1,2.113107723E-1,2.316973820E-2,3.628608615E-1
1.192555963E1,-1.564318760E-1,6.131097972E-2,5.399962127E-2,1.764820873E-1
1.193558362E1,5.832656085E-2,-1.274669623E-1,8.702396438E-2,1.649938925E-1
1.194560662E1,2.722039685E-1,-2.884495801E-1,8.326069638E-2,4.052536295E-1
1.195563062E1,4.661644439E-1,-3.876522714E-1,1.643710792E-2,6.065094812E-1
1.196565462E1,5.802677411E-1,-3.880194765E-1,-8.199360475E-2,7.028461544E-1
1.197567862E1,5.484216119E-1,-2.698934412E-1,-1.182114047E-1,6.225613787E-1
1.198570163E1,4.193390639E-1,-1.248187584E-1,-9.927534297E-2,4.486430281E-1
1.199572562E1,3.670390821E-1,3.716665685E-2,-3.923715591E-2,3.709967689E-1
1.200574962E1,2.911572795E-1,1.078460455E-1,2.719773889E-2,3.116777950E-1
1.201577362E1,2.450499375E-1,1.489946562E-1,5.636028841E-2,2.922761734E-1
1.202579662E1,2.716519913E-1,1.972183979E-1,3.206905425E-2,3.372214778E-1
1.203582062E1,3.566687527E-1,1.562551439E-1,-5.196464404E-2,3.928467811E-1
1.204584462E1,5.668363944E-1,9.414777339E-2,-9.882846951E-2,5.830389075E-1
1.205586863E1,7.504769728E-1,7.246571302E-2,-8.137160718E-2,7.583457685E-1
1.206589162E1,7.725544511E-1,1.267886853E-1,-6.574653134E-2,7.856451852E-1
1.207591562E1,7.795471363E-1,1.927043474E-1,-5.951646924E-2,8.052148243E-1
1.208593962E1,8.100662398E-1,2.188846707E-1,-6.046006367E-2,8.412925955E-1
1.209596362E1,5.486647099E-1,1.333293808E-1,-1.285111289E-1,5.790723598E-1
1.210598662E1,2.508864820E-1,-8.134646416E-3,-1.750937033E-1,3.060522901E-1
1.211601063E1,1.204292536E-1,-7.341413140E-2,-1.866168112E-1,2.339202300E-1
1.212603462E1,-1.531755616E-1,-1.130260938E-1,-2.480220772E-1,3.126541242E-1
1.213605862E1,-4.706996906E-1,-1.738318741E-1,-2.533902597E-1,5.621230674E-1
1.214608162E1,-6.191885626E-1,-1.390456188E-1,-1.508429611E-1,6.522896282E-1
1.215610562E1,-5.948175140E-1,-7.424969852E-2,-7.145765305E-2,6.036779678E-1
1.216612962E1,-5.548626123E-1,-6.471113563E-3,-3.246491075E-2,5.558492280E-1
1.217615362E1,-6.332429302E-1,4.621171474E-2,-6.783354878E-3,6.349631053E-1
1.218617662E1,-6.612652726E-1,1.069040591E-1,-3.791334629E-3,6.698616371E-1
1.219620062E1,-6.404613179E-1,5.414287806E-2,-7.943208575E-2,6.476353968E-1
1.220622462E1,-6.368739049E-1,-1.593366265E-2,-2.039118518E-1,6.689112764E-1
1.221624862E1,-6.071107002E-1,1.384445250E-2,-3.301390582E-1,6.912068206E-1
1.222627162E1,-6.234880203E-1,-1.985246658E-2,-3.746264291E-1,7.276512855E-1
1.223629562E1,-6.620948464E-1,-7.943734825E-2,-3.549591731E-1,7.554309316E-1
1.224631963E1,-6.286775704E-1,-1.785628563E-1,-2.921023357E-1,7.158519090E-1
1.225634362E1,-5.294304402E-1,-2.049753141E-1,-2.416309243E-1,6.170064619E-1
1.226636663E1,-5.379499796E-1,-1.427784812E-1,-2.459501164E-1,6.084959614E-1
1.227639062E1,-5.309513010E-1,-2.024130642E-1,-2.419975448E-1,6.176108356E-1
1.228641462E1,-4.295230132E-1,-3.450167137E-1,-2.425514223E-1,6.019615803E-1
1.229643862E1,-2.789645192E-1,-3.715297437E-1,-2.624103939E-1,5.335867017E-1
1.230646162E1,-2.245968157E-1,-2.883039844E-1,-2.732976902E-1,4.563491476E-1
1.231648562E1,-2.936807916E-1,-1.206368297E-1,-3.362735184E-1,4.624732762E-1
1.232650962E1,-3.836770418E-1,6.649862945E-2,-4.495877337E-1,5.947766560E-1
1.233653262E1,-3.989837368E-1,1.883259523E-1,-5.856810933E-1,7.332646382E-1
1.234655662E1,-3.436215681E-1,2.499491733E-1,-6.213128561E-1,7.527151097E-1
1.235658062E1,-2.860190387E-1,2.493363851E-1,-6.439229427E-1,7.474036925E-1
1.236660462E1,-2.262749666E-1,2.409602487E-1,-6.153569553E-1,6.985172757E-1
1.237662762E1,-2.127977192E-1,2.101635486E-1,-5.874212978E-1,6.591777966E-1
1.238665162E1,-2.701591972E-1,2.227748233E-1,-5.970172365E-1,6.921301860E-1
1.239667563E1,-4.065339540E-1,2.475190705E-1,-6.421704590E-1,7.993237420E-1
1.240669962E1,-5.923325935E-1,2.113189584E-1,-7.574879305E-1,9.845311414E-1
1.241672262E1,-8.228771970E-1,1.553213435E-1,-9.568735988E-1,1.271557582E0
1.242674662E1,-1.037531407E0,1.109725517E-1,-1.120640076E0,1.531215370E0
1.243677062E1,-1.192833893E0,1.344502920E-1,-1.224887160E0,1.715015491E0
1.244679462E1,-1.319933358E0,1.239627260E-1,-1.184934305E0,1.778105772E0
1.245681763E1,-1.230517444E0,6.892873228E-2,-9.690947181E-1,1.567822988E0
1.246684162E1,-8.139841667E-1,3.999729395E-2,-6.859362835E-1,1.065212933E0
1.247686562E1,-3.063651565E-1,-1.033378422E-2,-4.573031348E-1,5.505384213E-1
1.248688962E1,1.459618516E-1,-1.978972596E-1,-2.676030868E-1,3.634275713E-1
1.249691262E1,5.563789415E-1,-3.922440898E-1,-2.409245807E-1,7.221202159E-1
1.250693662E1,8.429243758E-1,-6.189102352E-1,-3.620916067E-1,1.106653385E0
1.251696062E1,9.410463555E-1,-8.867828786E-1,-5.452031583E-1,1.403281369E0
1.252698463E1,8.906560743E-1,-1.039864739E0,-7.179113437E-1,1.545957184E0
1.253700762E1,6.658297554E-1,-1.154124595E0,-8.744100241E-1,1.593714446E0
1.254703162E1,3.101132217E-1,-1.150401673E0,-1.048454883E0,1.587089116E0
1.255705562E1,-4.347360983E-2,-9.746706229E-1,-1.246695228E0,1.583073520E0
1.256707962E1,-3.120922118E-1,-6.346187800E-1,-1.372779470E0,1.544236387E0
1.257710262E1,-5.807858044E-1,-1.683881164E-1,-1.377341614E0,1.504239552E0
1.258712663E1,-7.691828004E-1,2.922163564E-1,-1.092838174E0,1.367964858E0
1.259715062E1,-7.440030818E-1,8.726945972E-1,-5.712199058E-1,1.281182511E0
1.260717462E1,-6.907007410E-1,1.411037802E0,-1.508343364E-1,1.578241486E0
1.261719762E1,-7.664087351E-1,1.723960319E0,1.014016829E-1,1.889365986E0
1.262722162E1,-7.900271009E-1,1.954145318E0,-4.661376929E-1,2.158729046E0
1.263724562E1,-5.661291736E-1,2.275183185E0,-1.565248175E0,2.819035760E0
1.264726962E1,-5.556170493E-1,2.728958110E0,-2.568898183E0,3.788820469E0
1.265729262E1,-7.598364647E-1,3.260615609E0,-2.815049590E0,4.374182186E0
1.266731662E1,-9.121314356E-1,4.241263255E0,-2.218171663E0,4.872430942E0
1.267734062E1,-1.059464167E0,5.608524708E0,-1.228657883E0,5.838459893E0
1.268736462E1,-1.214272856E0,6.985311275E0,5.338056193E-1,7.110132250E0
1.269738762E1,-1.697564233E0,8.421106773E0,1.804853477E0,8.778055575E0
1.270741162E1,-2.256001248E0,9.131918866E0,2.034645106E0,9.623994208E0
1.271743563E1,-2.121912899E0,8.324496152E0,1.260322310E0,8.682635710E0
1.272745962E1,-1.991393690E0,6.134556016E0,6.211848021E-1,6.479529064E0
1.273748263E1,-2.156175390E0,4.017208477E0,-1.530906308E-1,4.561851926E0
1.274750662E1,-1.754898229E0,2.980439254E0,-1.244159437E0,3.675679345E0
1.275753062E1,-1.271361561E0,2.450171054E0,-2.074974814E0,3.453291023E0
1.276755462E1,-9.002069163E-1,1.967500359E0,-2.577004178E0,3.364874543E0
1.277757762E1,-2.693584210E-1,1.378054243E0,-2.268689268E0,2.668058929E0
1.278760162E1,1.049799158E0,4.893236572E-1,-1.110061147E0,1.604291639E0
1.279762562E1,1.818989852E0,-1.016891613E0,-6.820379448E-1,2.192708004E0
1.280764962E1,1.699703437E0,-3.043258815E0,-8.963650033E-1,3.599150762E0
1.281767262E1,1.306085544E0,-4.105425419E0,-3.771053562E-1,4.324648630E0
1.282769662E1,5.857573995E-1,-2.834012695E0,1.146714126E0,3.112827167E0
1.283772062E1,-2.725954396E-1,1.603639823E-1,1.265591236E0,1.304509892E0
1.284774463E1,-1.703439808E0,2.859633440E0,4.851543000E-1,3.363715993E0
1.285776762E1,-3.329000550E0,4.682897606E0,7.343079597E-2,5.746056625E0
1.286779163E1,-4.426393997E0,4.418065515E0,-5.647387058E-2,6.254235046E0
1.287781562E1,-4.581471511E0,2.392033943E0,1.115561331E0,5.287360842E0
1.288783962E1,-3.230976073E0,4.494532478E-1,2.142407828E0,3.902707510E0
1.289786262E1,-9.291401088E-1,-7.950207692E-1,1.951552955E0,2.303023730E0
1.290788662E1,1.381904050E0,-1.517426721E0,1.326088576E0,2.443512548E0
1.291791062E1,2.937562791E0,-1.843104939E0,1.302341864E0,3.704376506E0
1.292793462E1,3.778624244E0,-1.981196877E0,1.722409052E0,4.601068918E0
1.293795762E1,4.553854527E0,-2.589124871E0,1.938841985E0,5.585719909E0
1.294798162E1,5.019208401E0,-3.609647021E0,2.137874190E0,6.541598477E0
1.295800562E1,4.920065936E0,-4.485389187E0,2.288686745E0,7.040159940E0
1.296802962E1,4.671000862E0,-4.350130810E0,2.686564335E0,6.925280863E0
1.297805262E1,4.514910609E0,-3.667806936E0,3.296697022E0,6.686212439E0
1.298807662E1,4.396480811E0,-2.633923314E0,3.470783835E0,6.189744419E0
1.299810063E1,3.972745956E0,-1.899097291E0,3.625925669E0,5.704087825E0
1.300812462E1,3.543889818E0,-1.964765616E0,4.019397674E0,5.707452727E0
1.301814762E1,3.690436538E0,-2.797440700E0,4.257362394E0,6.290479383E0
1.302817162E1,4.512248957E0,-4.081527264E0,4.600530218E0,7.627852499E0
1.303819562E1,6.006713662E0,-5.284758530E0,5.193675867E0,9.538529801E0
1.304821962E1,7.575690022E0,-6.083851300E0,5.693670108E0,1.126153654E1
1.305824358E1,8.765840482E0,-6.289580905E0,6.534632451E0,1.261349312E1
1.306826758E1,9.355821033E0,-5.886192023E0,7.725876925E0,1.348583768E1
1.307829158E1,9.321710131E0,-5.089224715E0,8.436096695E0,1.356326714E1
1.308831558E1,9.185268277E0,-4.432875343E0,8.615072950E0,1.335061868E1
1.309833858E1,8.987077487E0,-4.014981857E0,8.528415459E0,1.302388234E1
1.310836258E1,8.582282349E0,-3.771998472E0,8.595773045E0,1.271891729E1
1.311838658E1,7.914597564E0,-4.163956048E0,8.635140009E0,1.243161404E1
1.312841058E1,7.157031720E0,-5.597962883E0,8.393123753E0,1.236951162E1
1.313843358E1,6.519128559E0,-7.719316349E0,7.818501499E0,1.277559579E1
1.314845758E1,5.878040419E0,-9.758314122E0,7.087065107E0,1.341650273E1
1.315848158E1,5.063665951E0,-1.139844759E1,6.346841519E0,1.399456028E1
1.316850558E1,4.081511769E0,-1.267406329E1,5.591169587E0,1.444132251E1
1.317852858E1,2.854974086E0,-1.347175331E1,5.163797765E0,1.470727105E1
1.318855258E1,1.787887635E0,-1.378750530E1,4.814940015E0,1.471310613E1
1.319857658E1,8.863928694E-1,-1.357175824E1,4.057318037E0,1.419296106E1
1.320860058E1,-1.107404172E-2,-1.266865812E1,3.277975115E0,1.308587567E1
1.321862358E1,-6.442035359E-1,-1.137058210E1,2.753673121E0,1.171698985E1
1.322864758E1,-1.042493354E0,-1.040283399E1,1.920187613E0,1.062981034E1
1.323867158E1,-1.066077514E0,-1.005562984E1,8.759766394E-1,1.014985457E1
1.324869558E1,-2.486633706E-1,-1.043844003E1,2.922531939E-1,1.044549068E1
1.325871858E1,1.020922683E0,-9.878420609E0,-1.379546745E-1,9.931994178E0
1.326874258E1,2.374494343E0,-8.334067460E0,-1.047706878E0,8.728836893E0
1.327876658E1,3.146697230E0,-5.843059452E0,-2.969148281E0,7.270411867E0
1.328879058E1,2.300947918E0,-3.541828090E-1,-5.880478708E0,6.324542404E0
1.329881358E1,4.286244424E-1,4.494845304E0,-8.865975219E0,9.949516059E0
1.330883758E1,-1.764595690E0,7.149103480E0,-1.226803848E1,1.430832788E1
1.331886158E1,-3.441853859E0,9.352131439E0,-1.299428021E1,1.637559277E1
1.332888558E1,-3.923668229E0,1.161321231E1,-9.813730524E0,1.570258512E1
1.333890858E1,-4.526177609E0,1.311870428E1,-5.211934383E0,1.482399898E1
1.334893258E1,-5.330321789E0,1.361769280E1,-9.042835951E-1,1.465167623E1
1.335895658E1,-5.781829748E0,1.384352045E1,5.548189775E-1,1.501267591E1
1.336898058E1,-5.080648019E0,1.398055463E1,-8.033657692E-2,1.487532675E1
1.337900358E1,-3.600743465E0,1.386546505E1,-8.700428849E-1,1.435177513E1
1.338902758E1,-2.422515624E0,1.327352101E1,-1.431979166E0,1.356854842E1
1.339905158E1,-1.907204163E0,1.242050931E1,-7.752688748E-1,1.258997701E1
1.340907558E1,-1.765862782E0,1.241722200E1,-9.450438045E-2,1.254251190E1
1.341909858E1,-1.549937094E0,1.263921505E1,2.142940217E-1,1.273569724E1
1.342912258E1,-7.947744553E-1,1.225305558E1,1.593413189E0,1.238176090E1
1.343914658E1,8.169612765E-2,1.185368841E1,2.958253164E0,1.221752286E1
1.344917058E1,7.778694239E-1,1.137425415E1,3.722487758E0,1.199315027E1
1.345919358E1,2.068263672E0,1.106150763E1,3.763094916E0,1.186573003E1
1.346921758E1,2.623844176E0,1.048459795E1,3.118185037E0,1.124875239E1
1.347924158E1,1.159804873E0,9.285015344E0,6.710649137E-1,9.381203835E0
1.348926558E1,-8.672040617E-1,8.274722899E0,-2.021449402E0,8.562087340E0
1.349928858E1,-2.618235235E0,7.146055326E0,-4.381067843E0,8.781515696E0
1.350931258E1,-3.232926411E0,5.841546192E0,-5.879724417E0,8.896439418E0
1.351933658E1,-3.285811553E0,6.073386539E0,-7.512382218E0,1.020384576E1
1.352936058E1,-3.650083148E0,6.761447700E0,-8.821366811E0,1.169858087E1
1.353938358E1,-4.374042413E0,7.632209793E0,-6.634520436E0,1.101815478E1
1.354940758E1,-5.813647372E0,8.473275631E0,-3.071193888E0,1.072507005E1
1.355943158E1,-7.463520545E0,9.585689113E0,-1.226292100E0,1.221037948E1
1.356945558E1,-6.864220701E0,1.126565030E1,5.540844941E-1,1.320376508E1
1.357947858E1,-5.326673126E0,1.243682889E1,2.316754550E0,1.372645297E1
1.358950258E1,-4.676613019E0,1.258976632E1,3.474596804E0,1.387248169E1
1.359952658E1,-4.625897194E0,1.249130623E1,3.720628928E0,1.383021098E1
1.360955058E1,-4.490123970E0,1.224600033E1,3.303892021E0,1.345516406E1
1.361957358E1,-4.412401902E0,1.198877546E1,2.142747259E0,1.295343173E1
1.362959758E1,-4.396868481E0,1.192588047E1,1.398463365E0,1.278728968E1
1.363962158E1,-4.424589254E0,1.181209833E1,1.026421405E0,1.265528340E1
1.364964558E1,-4.639751002E0,1.168501963E1,8.998420501E-1,1.260462966E1
1.365966858E1,-4.896243795E0,1.164351726E1,6.955052519E-1,1.265023419E1
1.366969258E1,-5.087344251E0,1.157397165E1,1.704059905E-1,1.264384947E1
1.367971658E1,-5.151806880E0,1.158208992E1,-8.107439321E-1,1.270209537E1
1.368974058E1,-4.834755352E0,1.118804840E1,-1.685698478E0,1.230401827E1
1.369976358E1,-4.368967322E0,9.774492198E0,-2.347092243E0,1.096072147E1
1.370978758E1,-4.276497992E0,8.624639579E0,-1.794418098E0,9.792485857E0
1.371981158E1,-4.238986642E0,8.796583972E0,-1.039678797E0,9.819869110E0
1.372983458E1,-3.942971934E0,9.401916972E0,-5.597147781E-1,1.021059994E1
1.373985858E1,-4.059316615E0,9.462159081E0,-7.639112431E-1,1.032444024E1
1.374988258E1,-5.062367284E0,9.409776215E0,-1.731438907E0,1.082447835E1
1.375990658E1,-5.902038562E0,1.013657401E1,-3.211163367E0,1.216124015E1
1.376993058E1,-6.443408285E0,9.824351406E0,-4.093973647E0,1.244170451E1
1.377995358E1,-6.375163093E0,6.890169475E0,-5.066067402E0,1.066687296E1
1.378997758E1,-4.178772892E0,6.137796543E0,-4.512300997E0,8.688817501E0
1.380000158E1,-2.277489620E0,6.318229339E0,-1.289753832E0,6.838892154E0
1.381002558E1,1.275940516E0,3.969193481E0,6.274645362E0,7.533504862E0
1.382004858E1,1.968721959E1,-3.176906636E1,2.285762436E1,4.381017215E1
1.383007258E1,4.383867139E1,-7.185442171E1,3.069825874E1,8.959503400E1
1.384009658E1,3.700801955E1,-6.585077199E1,6.387772613E0,7.580713239E1
1.385012058E1,2.596295195E1,-3.652608736E1,-2.131914123E0,4.486396092E1
1.386014358E1,1.806897459E1,-1.404497691E1,1.808219281E0,2.295689170E1
1.387016758E1,9.266189064E0,-4.815918839E0,-2.012809263E0,1.063516503E1
1.388019158E1,2.454157101E0,-4.122947186E0,-4.099978738E0,6.311212738E0
1.389021558E1,-1.253030248E0,-7.709683646E0,-2.796049063E0,8.296215829E0
1.390023858E1,-2.942078596E0,-9.970340009E0,4.230628924E0,1.122326724E1
1.391026258E1,-3.053802222E0,-9.689445031E0,9.068270754E0,1.361780406E1
1.392028658E1,-2.194935413E0,-9.186972156E0,7.475210883E0,1.204562064E1
1.393031058E1,-1.354930552E0,-7.824404848E0,3.040446889E0,8.503026832E0
1.394033358E1,-2.307920869E0,-7.175094938E0,-8.428761363E-2,7.537611725E0
1.395035758E1,-3.141176873E0,-7.184194375E0,-5.180007416E-1,7.857987385E0
1.396038158E1,-2.173933384E0,-6.802599819E0,1.107354471E0,7.226865474E0
1.397040558E1,-3.316336066E-1,-6.152830904E0,2.561845272E0,6.673107235E0
1.398042858E1,7.092380226E-1,-4.605457082E0,3.050860780E0,5.569650349E0
1.399045258E1,1.252727654E0,-2.302915360E0,3.571295426E0,4.430225361E0
1.400047658E1,1.967919312E0,1.939872265E-2,3.835156294E0,4.310627162E0
1.401050058E1,2.272657773E0,1.729391212E0,3.008226977E0,4.147914761E0
1.402052358E1,2.007139218E0,2.989267380E0,6.262543380E-1,3.654657550E0
1.403054758E1,1.515425220E0,3.707180332E0,-1.318984209E0,4.216564829E0
1.404057158E1,4.969563201E-1,3.933769294E0,-1.929982869E0,4.409800485E0
1.405059558E1,-6.844081137E-1,3.771889713E0,-2.042571006E0,4.343692299E0
1.406061771E1,-1.449641120E0,3.306642551E0,-2.197283070E0,4.226511236E0
1.407064171E1,-1.925347196E0,3.103287501E0,-2.154254580E0,4.240066973E0
1.408066571E1,-2.631994610E0,3.055239760E0,-1.637838726E0,4.352516664E0
1.409068971E1,-3.008706449E0,3.283213928E0,-8.703139034E-1,4.537538372E0
1.410071271E1,-2.490356628E0,3.972904124E0,-3.497664070E-1,4.701933629E0
1.411073671E1,-1.699656951E0,4.687628004E0,-1.091008580E-1,4.987443539E0
1.412076071E1,-1.084872512E0,4.990160018E0,-1.512850106E-2,5.106747913E0
1.413078471E1,-8.412973881E-1,5.039518120E0,3.346829295E-2,5.109368288E0
1.414080771E1,-8.037544629E-1,4.916565208E0,-6.592589468E-2,4.982266643E0
1.415083171E1,-7.642898503E-1,4.829453389E0,-8.232441097E-2,4.890249106E0
1.416085571E1,-4.752178341E-1,4.601731237E0,1.815162849E-1,4.629763550E0
1.417087971E1,3.498038292E-2,4.062807988E0,4.880495489E-1,4.092166264E0
1.418090271E1,2.890521356E-1,3.259358457E0,6.346141022E-1,3.333122222E0
1.419092671E1,5.102850482E-1,2.226068913E0,6.450193687E-1,2.373146355E0
1.420095071E1,6.324322137E-1,7.714658457E-1,3.271271574E-1,1.049829621E0
1.421097471E1,6.121958774E-1,-6.095833415E-1,-1.308513308E-1,8.737835621E-1
1.422099771E1,5.065325975E-1,-1.638138980E0,-1.621953303E-1,1.722318761E0
1.423102171E1,1.597313136E-1,-2.070505494E0,-1.076339377E-1,2.079445157E0
1.424104571E1,-3.489214844E-1,-1.743953118E0,-2.743105741E-1,1.799545768E0
1.425106971E1,-3.357974088E-1,-9.422887427E-1,-2.047466880E-1,1.021072564E0
1.426109271E1,-1.387827864E-1,-1.854204708E-1,-1.433224185E-1,2.723650647E-1
1.427111671E1,-1.521501061E-1,2.574891579E-1,-3.177191336E-1,4.363436365E-1
1.428114071E1,-8.328715503E-2,4.597899556E-1,-4.360163462E-1,6.391039099E-1
1.429116471E1,6.187582076E-2,5.035019857E-1,-3.318116543E-1,6.061698117E-1
1.430118771E1,1.621324727E-1,4.707575780E-1,-1.312783237E-1,5.149112877E-1
1.431121171E1,2.691721871E-1,4.465126830E-1,1.683381227E-1,5.478731295E-1
1.432123571E1,3.881492847E-1,3.367703855E-1,5.212282585E-1,7.319515402E-1
1.433125971E1,5.387566030E-1,1.514656895E-1,8.216150755E-1,9.941085779E-1
1.434128271E1,8.023479152E-1,-5.687118888E-2,1.055575038E0,1.327115356E0
1.435130671E1,1.023401611E0,-2.534633499E-1,1.150451082E0,1.560491018E0
1.436133071E1,1.112685962E0,-4.306135190E-1,1.097486125E0,1.621102664E0
1.437135471E1,1.120276233E0,-5.182679594E-1,9.056150061E-1,1.530934047E0
1.438137771E1,1.138279810E0,-4.221607840E-1,5.549890584E-1,1.334883331E0
1.439140171E1,1.151714373E0,-2.418303144E-1,2.530616462E-2,1.177101652E0
1.440142571E1,1.081879030E0,-1.277803731E-1,-4.972706079E-1,1.197525831E0
1.441144971E1,9.122849250E-1,-9.972543240E-2,-7.830966885E-1,1.206420064E0
1.442147271E1,6.714115074E-1,-1.494372904E-2,-6.621275908E-1,9.430957925E-1
1.443149671E1,3.683032501E-1,2.255013800E-1,-2.638532674E-1,5.060797399E-1
1.444152071E1,5.172593147E-2,4.891488254E-1,1.493204923E-1,5.140415886E-1
1.445154471E1,-1.905484790E-1,6.883190238E-1,4.614007173E-1,8.502837311E-1
1.446156771E1,-3.360979557E-1,8.140727520E-1,6.204480529E-1,1.077326352E0
1.447159171E1,-4.033283642E-1,8.948514515E-1,6.610709989E-1,1.183405153E0
1.448161571E1,-3.065888125E-1,8.315927643E-1,6.358730078E-1,1.090815157E0
1.449163971E1,-4.529516369E-2,6.601255041E-1,4.625416553E-1,8.073178531E-1
1.450166271E1,2.850082013E-1,5.125657547E-1,1.465452576E-1,6.045071051E-1
1.451168671E1,6.026538062E-1,3.844310403E-1,-1.648020190E-1,7.335792666E-1
1.452171071E1,8.891609412E-1,2.694677639E-1,-3.350723541E-1,9.876707638E-1
1.453173471E1,1.064639976E0,1.816069168E-1,-3.363577183E-1,1.131183392E0
1.454175771E1,1.044468398E0,1.480368823E-1,-1.761533649E-1,1.069513516E0
1.455178171E1,8.411868757E-1,1.720484734E-1,3.664683938E-2,8.593829344E-1
1.456180571E1,5.535689159E-1,2.306796741E-1,1.037470011E-1,6.086173650E-1
1.457182971E1,2.588484894E-1,3.178107888E-1,5.306421295E-2,4.133062407E-1
1.458185271E1,6.124739125E-2,3.787335134E-1,2.638263702E-2,3.845599571E-1
1.459187671E1,1.191650856E-1,3.166425151E-1,1.455271111E-1,3.682946375E-1
1.460190071E1,2.941482764E-1,2.301879233E-1,2.332202893E-1,4.403423576E-1
1.461192471E1,3.566346927E-1,6.950585246E-2,1.227697478E-1,3.835254601E-1
1.462194771E1,4.756015576E-1,-2.228917676E-1,-8.896217018E-2,5.327211742E-1
1.463197171E1,8.547038841E-1,-3.558042419E-1,-1.273270677E-1,9.345199678E-1
1.464199571E1,9.065838897E-1,-2.020452744E-1,-1.310477972E-1,9.380246090E-1
1.465201971E1,6.194581193E-1,-1.203415453E-2,-2.652647853E-1,6.739722463E-1
1.466204271E1,5.722650956E-1,1.158678406E-1,-2.029780515E-1,6.181527202E-1
1.467206671E1,5.191308622E-1,2.138619125E-1,-6.671921566E-2,5.654071307E-1
1.468209071E1,4.308044305E-1,3.518421686E-1,-5.146894634E-2,5.586004130E-1
1.469211471E1,5.076035151E-1,4.607091379E-1,4.983581901E-3,6.855210240E-1
1.470213771E1,5.938126700E-1,3.975720727E-1,6.795794830E-2,7.178407364E-1
1.471216171E1,4.292680746E-1,1.939486349E-1,6.447139978E-3,4.710931102E-1
1.472218571E1,2.033654295E-1,-8.712351322E-5,-1.308912380E-1,2.418471039E-1
1.473220971E1,6.484737575E-2,-2.017055511E-1,-2.524289775E-1,3.295613754E-1
1.474223271E1,-1.567824166E-1,-3.377924788E-1,-3.338473624E-1,5.001385271E-1
1.475225671E1,-3.866781253E-1,-3.434923446E-1,-3.622822259E-1,6.314708026E-1
1.476228071E1,-4.809543912E-1,-2.619412279E-1,-3.106409329E-1,6.296253827E-1
1.477230471E1,-5.494425358E-1,-1.518030739E-1,-2.769732499E-1,6.337550430E-1
1.478232771E1,-6.675926909E-1,-5.732200921E-2,-2.993571223E-1,7.338804401E-1
1.479235171E1,-7.211255582E-1,5.760442972E-2,-4.033083375E-1,8.282499357E-1
1.480237571E1,-6.682926026E-1,1.634267539E-1,-4.202275483E-1,8.061727476E-1
1.481239971E1,-5.659072718E-1,1.980586427E-1,-3.427779610E-1,6.906337646E-1
1.482242271E1,-4.551390803E-1,2.172433573E-1,-2.584668124E-1,5.667021720E-1
1.483244671E1,-3.854728679E-1,1.798556757E-1,-1.887463671E-1,4.653628553E-1
1.484247071E1,-3.186922565E-1,7.762821972E-2,-1.327363269E-1,3.538500068E-1
1.485249471E1,-2.407678753E-1,-4.159826159E-2,-1.232587212E-1,2.736645712E-1
1.486251771E1,-1.988493325E-1,-1.549915606E-1,-1.969429940E-1,3.199218401E-1
1.487254171E1,-2.431148015E-1,-2.042210233E-1,-2.889717364E-1,4.293200409E-1
1.488256571E1,-3.622398336E-1,-1.242995256E-1,-3.869231236E-1,5.444057060E-1
1.489258971E1,-4.728315854E-1,3.555984199E-2,-3.534216477E-1,5.913891034E-1
1.490261271E1,-5.138003942E-1,1.464008313E-1,-1.983394553E-1,5.698794505E-1
1.491263671E1,-4.223468716E-1,1.409149736E-1,-1.075200632E-2,4.453644748E-1
1.492266071E1,-2.504206051E-1,1.307004726E-1,9.913237855E-2,2.993665336E-1
1.493268471E1,2.929455042E-4,1.137669361E-1,2.279238814E-1,2.547396657E-1
1.494270771E1,1.935801141E-1,1.624590397E-2,2.948142743E-1,3.530618166E-1
1.495273171E1,3.696375847E-1,-9.230823934E-2,3.133943868E-1,4.933242308E-1
1.496275571E1,5.988083848E-1,-8.149673760E-2,2.786028689E-1,6.654568044E-1
1.497277971E1,6.915222748E-1,7.368719637E-2,1.728371166E-1,7.165930004E-1
1.498280271E1,6.661208005E-1,3.409037822E-1,4.657131851E-2,7.497340844E-1
1.499282671E1,5.566327107E-1,5.729242229E-1,-9.122518882E-2,8.039926461E-1
1.500285071E1,4.112377466E-1,6.933353502E-1,-1.757041526E-1,8.250468722E-1
1.501287471E1,3.908223394E-1,7.905757159E-1,-2.947948323E-1,9.298688384E-1
1.502289771E1,3.980401424E-1,7.877064872E-1,-4.603898799E-1,9.954277002E-1
1.503292171E1,3.523595010E-1,6.390141320E-1,-5.475714268E-1,9.123216244E-1
1.504294571E1,1.333276266E-1,4.107207066E-1,-6.312877674E-1,7.648476974E-1
1.505296971E1,-1.713219568E-1,1.825939268E-1,-7.880586357E-1,8.268785693E-1
1.506299246E1,-4.613739663E-1,9.560197592E-2,-1.049771091E0,1.150662861E0
1.507301646E1,-8.783080705E-1,1.036091530E-1,-1.454694868E0,1.702438570E0
1.508304046E1,-1.430207606E0,4.451368332E-2,-1.950701308E0,2.419237661E0
1.509306446E1,-1.919991732E0,6.177641809E-2,-2.412415583E0,3.083818010E0
1.510308746E1,-2.190099619E0,1.546687943E-1,-2.818949683E0,3.573084955E0
1.511311146E1,-2.760761701E0,6.998766303E-2,-2.945230830E0,4.037460598E0
1.512313546E1,-3.365992375E0,2.410163820E-2,-3.055192983E0,4.545843125E0
1.513315946E1,-3.902178250E0,5.456680119E-2,-3.090644066E0,4.978157628E0
1.514318246E1,-4.401214132E0,1.028104234E-1,-3.077852113E0,5.371631916E0
1.515320646E1,-4.862767900E0,1.525731522E-1,-2.702548284E0,5.565389245E0
1.516323046E1,-5.107034165E0,3.407687116E-1,-2.120514391E0,5.540261957E0
1.517325446E1,-5.151288232E0,7.679382205E-1,-1.876708887E0,5.536021658E0
1.518327746E1,-4.790411238E0,1.246687188E0,-2.116193006E0,5.383357838E0
1.519330146E1,-3.787189538E0,1.862948635E0,-2.577448859E0,4.945363974E0
1.520332546E1,-2.921314256E0,2.462910967E0,-3.008800004E0,4.863423165E0
1.521334946E1,-2.497586418E0,2.698322793E0,-3.538173580E0,5.102700863E0
1.522337246E1,-2.289796839E0,2.835933505E0,-3.916005745E0,5.349840129E0
1.523339646E1,-2.055578722E0,3.354989085E0,-4.105831801E0,5.686757461E0
1.524342046E1,-1.852893763E0,4.206226739E0,-3.276375609E0,5.644483662E0
1.525344446E1,-1.622054752E0,5.171971588E0,-1.823937766E0,5.719012213E0
1.526346746E1,-1.333680893E0,5.495027913E0,-3.060736728E-1,5.662836532E0
1.527349146E1,-8.289735040E-1,5.793701350E0,1.009761518E-1,5.853577418E0
1.528351546E1,1.380893067E-1,5.684319241E0,-7.458965564E-1,5.734711463E0
1.529353946E1,1.219723923E0,3.725656949E0,-1.860421468E0,4.339287290E0
1.530356246E1,2.732474333E0,1.449596681E0,-1.773394434E0,3.565483745E0
1.531358646E1,4.336180815E0,-3.755450267E-1,-7.139231041E-1,4.410576416E0
1.532361046E1,5.518315619E0,-1.846259512E0,8.700510710E-2,5.819626392E0
1.533363446E1,6.246026165E0,-2.393639004E0,1.861472213E0,6.943157015E0
1.534365746E1,6.545368524E0,-2.570604401E0,4.347470911E0,8.267427618E0
1.535368146E1,6.693872598E0,-2.212049044E0,5.110679319E0,8.707475779E0
1.536370546E1,6.643835050E0,-1.527115558E0,4.755762100E0,8.312033401E0
1.537372946E1,5.800957160E0,-2.390365148E-1,4.617239514E0,7.418028253E0
1.538375246E1,4.921051776E0,4.372378296E-1,4.461761173E0,6.656969301E0
1.539377646E1,4.251898171E0,8.177787173E-1,3.049839564E0,5.296123248E0
1.540380046E1,3.050315528E0,1.304332548E0,3.156839810E0,4.579448198E0
1.541382446E1,1.723398694E0,1.606741771E0,4.125631642E0,4.751058685E0
1.542384746E1,8.727939999E-1,2.215160347E0,4.386721516E0,4.991195286E0
1.543387146E1,6.914806134E-1,1.750491475E0,4.213710591E0,4.614945588E0
1.544389546E1,1.793344549E0,9.237770426E-1,4.585153211E0,5.009299219E0
1.545391946E1,2.538401153E0,2.806271750E-1,4.322475818E0,5.020560648E0
1.546394246E1,1.702379415E0,-3.515720272E-1,4.153379019E0,4.502472192E0
1.547396646E1,-1.426083273E-1,-1.232282572E0,4.297055048E0,4.472531673E0
1.548399046E1,-1.880179502E0,-1.676404329E0,3.626179146E0,4.415266881E0
1.549401446E1,-3.204390830E0,-1.214614041E0,2.190806694E0,4.067313834E0
1.550403746E1,-4.731844356E0,-4.947574747E-1,1.126504979E0,4.889186992E0
1.551406146E1,-5.740479409E0,-1.548787093E-1,3.967783132E-1,5.756259574E0
1.552408546E1,-5.842570624E0,-2.978782153E-1,-3.717335191E-1,5.861957757E0
1.553410946E1,-5.234795827E0,-2.748203051E-1,-6.116041392E-1,5.277563185E0
1.554413246E1,-4.300502859E0,-7.566940248E-2,-5.120856982E-1,4.331545043E0
1.555415646E1,-2.978413486E0,2.456415296E-2,-5.186953908E-1,3.023341727E0
1.556418046E1,-1.324972927E0,1.229622674E-1,-7.857181415E-1,1.545323906E0
1.557420446E1,2.166060108E-1,-2.435037875E-1,-5.877682570E-1,6.720742387E-1
1.558422746E1,1.963740014E0,-8.078706104E-1,3.525034887E-1,2.152484257E0
1.559425146E1,3.853267460E0,-1.122936716E0,1.185733766E0,4.185047377E0
1.560427546E1,5.694068304E0,-1.432423993E0,2.125871610E0,6.244484162E0
1.561429946E1,6.977115818E0,-2.309414540E0,3.025846977E0,7.947911083E0
1.562432346E1,7.416983140E0,-2.708373572E0,2.625171787E0,8.320964681E0
1.563434646E1,7.020269439E0,-2.410553244E0,2.203398088E0,7.742732920E0
1.564437046E1,6.031956092E0,-2.039752648E0,2.290344431E0,6.766887229E0
1.565439446E1,4.899657399E0,-2.533793839E0,2.703900160E0,6.143112397E0
1.566441846E1,4.103873276E0,-3.783749621E0,3.292975854E0,6.480912516E0
1.567444146E1,3.734226920E0,-4.994555370E0,3.622722564E0,7.212083805E0
1.568446546E1,3.541046025E0,-5.953762447E0,4.084619272E0,8.041791393E0
1.569448946E1,3.565748172E0,-6.769009904E0,4.689908710E0,8.973811833E0
1.570451346E1,3.840975736E0,-7.434672722E0,5.495554748E0,1.001142223E1
1.571453646E1,4.316736192E0,-7.870935236E0,6.401469131E0,1.102563558E1
1.572456046E1,5.060755792E0,-8.251745680E0,7.467223586E0,1.222546457E1
1.573458446E1,5.970035248E0,-9.211715818E0,8.333601437E0,1.378208773E1
1.574460846E1,7.127323186E0,-1.086620829E1,8.399174452E0,1.547318163E1
1.575463146E1,8.295781646E0,-1.295910921E1,8.098060972E0,1.738784334E1
1.576465546E1,9.119111710E0,-1.492983840E1,7.566015218E0,1.906050522E1
1.577467946E1,8.666623757E0,-1.620318538E1,7.329010026E0,1.978302231E1
1.578470346E1,7.283409930E0,-1.642338451E1,7.197450013E0,1.935404106E1
1.579472646E1,6.695231491E0,-1.541682258E1,5.997484417E0,1.784585001E1
1.580475046E1,5.703104006E0,-1.434035486E1,4.486413327E0,1.607168558E1
1.581477446E1,3.969376498E0,-1.316513234E1,3.590084576E0,1.421145195E1
1.582479846E1,2.355304950E0,-1.204160389E1,2.845535218E0,1.259542601E1
1.583482146E1,1.182638250E0,-1.095456440E1,2.073835922E0,1.121168630E1
1.584484546E1,4.607310650E-1,-1.081178942E1,1.291052352E0,1.089834299E1
1.585486946E1,9.401007146E-2,-1.043206656E1,-5.404976115E-2,1.043263016E1
1.586489346E1,1.202931304E0,-7.820702391E0,-5.870937806E-1,7.934425544E0
1.587491646E1,3.300854977E0,-3.486115234E0,-2.377292381E0,5.357253221E0
1.588494046E1,3.153795457E0,1.220350159E0,-5.942159817E0,6.837027394E0
1.589496446E1,9.134005737E-1,4.503702081E0,-9.114829794E0,1.020773017E1
1.590498846E1,-1.151433560E0,6.827065154E0,-1.310220578E1,1.481898829E1
1.591501146E1,-2.305839260E0,9.913493378E0,-1.697589025E1,1.979330936E1
1.592503546E1,-2.723264092E0,1.290763032E1,-1.453257155E1,1.962698967E1
1.593505946E1,-3.047223812E0,1.463765069E1,-6.072825206E0,1.613770729E1
1.594508346E1,-3.843307313E0,1.492415490E1,2.485260341E-1,1.541308457E1
1.595510646E1,-3.845514929E0,1.492887712E1,2.915207132E0,1.568941648E1
1.596513046E1,-2.960042412E0,1.402052152E1,2.339830002E0,1.451935533E1
1.597515446E1,-2.287469647E0,1.298902941E1,1.396268905E0,1.326261547E1
1.598517846E1,-1.744574531E0,1.282319653E1,5.575734911E-1,1.295333153E1
1.599520146E1,-1.522026434E0,1.222227583E1,-3.284071495E-1,1.232105687E1
1.600522546E1,-1.371227765E0,1.135755450E1,-5.064999262E-1,1.145123801E1
1.601524946E1,-8.598893411E-1,1.142009281E1,3.366030820E-1,1.145736580E1
1.602527346E1,-6.101078367E-1,1.127301195E1,1.244431917E0,1.135788892E1
1.603529646E1,-6.893225522E-1,1.127937255E1,1.091952174E0,1.135305114E1
1.604532046E1,-3.238642649E-1,1.126313132E1,1.248934273E0,1.133679197E1
1.605534446E1,-1.109246045E-1,1.116717501E1,9.587270200E-1,1.120880276E1
1.606536833E1,-6.716319475E-1,1.073615920E1,-9.035307661E-2,1.075752609E1
1.607539133E1,-1.863544174E0,9.761706676E0,-1.590803723E0,1.006451045E1
1.608541533E1,-2.590041423E0,7.598528661E0,-9.892738979E-1,8.088548401E0
1.609543933E1,-2.832135154E0,5.954712619E0,-1.498695458E-1,6.595608599E0
1.610546333E1,-3.099926521E0,6.696036653E0,-2.698856936E-1,7.383717870E0
1.611548633E1,-3.786947463E0,7.334072546E0,-8.190825733E-1,8.294605925E0
1.612551033E1,-4.498939524E0,8.110566412E0,-9.410432857E-1,9.322408854E0
1.613553433E1,-5.613203650E0,9.443999968E0,-7.191689336E-1,1.100974089E1
1.614555833E1,-6.905331305E0,1.066644402E1,-9.277169696E-1,1.274038018E1
1.615558133E1,-6.333957179E0,1.156517276E1,-6.113297586E-1,1.320022570E1
1.616560533E1,-5.806812562E0,1.222119176E1,-4.477118008E-1,1.353798530E1
1.617562933E1,-5.471189985E0,1.228448319E1,-7.064009535E-1,1.346630794E1
1.618565333E1,-5.196026448E0,1.201351152E1,-7.078592491E-1,1.310817358E1
1.619567633E1,-4.309772158E0,1.179974200E1,-7.286928785E-1,1.258328417E1
1.620570033E1,-3.862169846E0,1.147732068E1,-7.636335003E-1,1.213377031E1
1.621572433E1,-3.253180582E0,1.120325934E1,-1.329752734E0,1.174156915E1
1.622574833E1,-2.738934630E0,1.096288849E1,-1.450456806E0,1.139256389E1
1.623577133E1,-2.471098531E0,1.070066192E1,-1.617226413E0,1.110071686E1
1.624579533E1,-2.023854946E0,1.056160578E1,-1.833121988E0,1.090888820E1
1.625581933E1,-1.594087666E0,1.041107272E1,-2.204113787E0,1.076056078E1
1.626584333E1,-1.323231042E0,1.020719200E1,-2.429501293E0,1.057545202E1
1.627586633E1,-1.085921502E0,9.943252198E0,-2.489084859E0,1.030742612E1
1.628589033E1,-7.521990509E-1,9.555937895E0,-2.243573722E0,9.844560707E0
1.629591433E1,-4.956708097E-1,8.979910555E0,-1.291363278E0,9.085818744E0
1.630593833E1,-1.870795452E-1,8.337520241E0,-5.871170233E-1,8.360260099E0
1.631596233E1,-4.877454937E-3,8.157865709E0,-3.510954791E-1,8.165418835E0
1.632598533E1,-3.607578568E-1,8.445558075E0,-4.391406597E-1,8.464658407E0
1.633600933E1,-1.062430167E0,9.170287710E0,-1.493948543E0,9.351728011E0
1.634603333E1,-1.590368105E0,9.634647265E0,-1.773755792E0,9.924812756E0
1.635605733E1,-2.135649324E0,9.921859574E0,-9.021183711E-1,1.018911738E1
1.636608033E1,-2.575953434E0,1.053463374E1,-1.497859307E-1,1.084603522E1
1.637610433E1,-3.087809044E0,1.107547546E1,2.776659988E-1,1.150120949E1
1.638612833E1,-4.076769385E0,8.753458418E0,8.180927128E-2,9.656592341E0
1.639615233E1,-3.825732629E0,6.447275049E0,9.194781697E-1,7.553080551E0
1.640617533E1,-2.672156503E0,4.938252531E0,2.277777010E-1,5.619487620E0
1.641619933E1,-1.231194259E0,2.317796524E0,1.385909685E0,2.967956483E0
1.642622333E1,1.060842209E0,1.669876497E0,7.107830324E0,7.378016374E0
1.643624733E1,9.778772945E0,-2.947994692E1,1.421860297E1,3.415933753E1
1.644627033E1,1.889154218E1,-7.145925752E1,2.653554405E1,7.853312008E1
1.645629433E1,2.507755486E1,-6.925810827E1,1.483445511E1,7.513740997E1
1.646631833E1,1.939108151E1,-4.893571266E1,4.947477683E0,5.286960896E1
