"Time (s)","Linear Acceleration x (m/s^2)","Linear Acceleration y (m/s^2)","Linear Acceleration z (m/s^2)","Absolute acceleration (m/s^2)"
4.819916678E-3,9.190587781E-1,1.544483542E-1,5.193146110E-1,1.066869719E0
1.484291666E-2,1.291177921E0,-1.796785051E-1,3.890912712E-1,1.360447282E0
2.486691668E-2,1.097018640E0,-2.935571229E-1,-1.415645993E-1,1.144406491E0
3.489091666E-2,6.492983611E-1,-1.314986175E-1,-1.452313882E-1,6.782126542E-1
4.491491665E-2,7.377120624E-1,-2.040824443E-1,-1.939755321E-1,7.896171466E-1
5.493891667E-2,9.850777897E-1,-4.568803811E-1,-2.103822345E-1,1.106064473E0
6.496291666E-2,9.290790054E-1,-4.959731108E-1,-6.629853773E-1,1.244478499E0
7.498591667E-2,7.540670170E-1,-5.178498834E-1,-1.229242020E0,1.532260263E0
8.500991666E-2,5.987434807E-1,-6.197329384E-1,-1.765764402E0,1.964812102E0
9.503391667E-2,3.872280559E-1,-6.456039441E-1,-2.082976436E0,2.214845560E0
1.050579167E-1,2.805052605E-1,-6.551717430E-1,-2.180712646E0,2.294219008E0
1.150819167E-1,3.441777845E-1,-7.061249650E-1,-2.150914065E0,2.289869457E0
1.251049167E-1,4.855472329E-1,-7.604146081E-1,-1.878698695E0,2.084105390E0
1.351289167E-1,6.887725485E-1,-7.921743447E-1,-1.551035932E0,1.872874870E0
1.451529167E-1,6.131551132E-1,-6.531807661E-1,-1.085366601E0,1.407346782E0
1.551769167E-1,2.021674812E-4,-6.909549487E-1,-7.987407678E-1,1.056127642E0
1.652009167E-1,-2.504668346E-1,-1.117772455E0,-3.789662325E-1,1.206550580E0
1.752249167E-1,-2.103885568E-1,-6.803071690E-1,-5.452610457E-1,8.968783624E-1
1.852479167E-1,2.265614253E-1,-5.206986469E-1,-1.869202816E-1,5.978263561E-1
1.952719167E-1,1.691585784E-1,-7.082556903E-1,1.529064435E-1,7.440572075E-1
2.052959167E-1,5.633251414E-2,-6.252971488E-1,8.790119290E-3,6.278910277E-1
2.153199167E-1,-8.764135726E-3,-2.471498188E-1,-1.226704913E-1,2.760577702E-1
2.253439167E-1,-1.160839684E-1,1.961331546E-2,-3.428807259E-2,1.226207233E-1
2.353679167E-1,5.823527120E-2,1.582584000E-1,-3.031372011E-2,1.713358970E-1
2.453909167E-1,1.549038523E-1,1.018102571E-1,-1.333404905E-1,2.283423271E-1
2.554149167E-1,1.937217629E-1,6.008014083E-2,-1.927832848E-1,2.798269816E-1
2.654389167E-1,2.510930349E-1,2.191594899E-1,-4.123742992E-1,5.302180276E-1
2.754629167E-1,2.986023930E-1,4.540246010E-1,-8.471405107E-1,1.006453562E0
2.854869167E-1,6.281109752E-1,6.446914861E-1,-1.077913156E0,1.404296009E0
2.955099167E-1,1.295449020E0,8.372353274E-1,-8.614808071E-1,1.766720220E0
3.055339167E-1,1.893147018E0,1.072674635E0,-1.079951495E0,2.429183348E0
3.155579167E-1,2.558656785E-1,7.261908549E-1,-1.759339482E0,1.920441568E0
3.255819167E-1,-9.873346688E-1,2.736625564E-1,-1.170785066E0,1.555782316E0
3.356090417E-1,-1.231839207E0,1.688842526E-1,-2.630153614E-1,1.270876392E0
3.456330417E-1,-1.146858114E0,4.521306878E-1,2.035942018E-1,1.249462401E0
3.556560417E-1,-1.026046160E0,8.852488616E-1,5.593352938E-1,1.466046466E0
3.656800417E-1,-8.422237332E-1,1.010826881E0,6.754054481E-1,1.478947031E0
3.757040417E-1,-5.317589477E-1,7.363831365E-1,7.817382342E-1,1.198391576E0
3.857280417E-1,-1.740432510E-1,4.385052136E-1,9.785151672E-1,1.086310180E0
3.957520417E-1,4.154750776E-1,3.542722714E-1,7.793361980E-1,9.515741127E-1
4.057750417E-1,1.117801984E0,1.129614821E-1,3.311477029E-1,1.171281509E0
4.157990417E-1,1.889518383E0,-8.255528829E-1,-4.253323138E-2,2.062432146E0
4.258230417E-1,2.265362202E0,-9.836016601E-1,-2.256826437E-1,2.479973949E0
4.358470417E-1,1.137091071E0,-4.420439485E-1,-5.298489547E-1,1.330082280E0
4.458710417E-1,-4.878317401E-1,-9.147618055E-1,-1.093885995E0,1.507101701E0
4.558950417E-1,-9.929004872E-1,-1.256580092E0,-1.107163852E0,1.946960888E0
4.659180417E-1,-5.319647697E-1,-1.257852154E0,-1.053250769E0,1.724678446E0
4.759420417E-1,1.917570984E-1,-1.010932716E0,-1.182542063E0,1.567533563E0
4.859660417E-1,8.704852268E-1,-1.255450118E0,-9.266363311E-1,1.786772067E0
4.959900417E-1,1.417924068E0,-1.999946558E0,-3.655930656E-1,2.478699899E0
5.060140417E-1,1.452543093E0,-3.015693579E0,2.355375409E-1,3.355557649E0
5.160370417E-1,1.182761918E0,-3.856839524E0,1.049657071E0,4.168442975E0
5.260610417E-1,7.281794930E-1,-4.437867988E0,1.483958429E0,4.735720671E0
5.360850417E-1,5.491319025E-1,-4.403236392E0,1.140884160E0,4.581664897E0
5.461090417E-1,6.640133178E-1,-4.253260573E0,6.262496603E-1,4.350095151E0
5.561330417E-1,9.508379567E-1,-4.092484654E0,3.121921992E-1,4.213073395E0
5.661570417E-1,1.185776158E0,-3.823885494E0,-6.649687529E-2,4.004071328E0
5.761800417E-1,1.511395903E0,-3.290627320E0,-5.353909457E-1,3.660490295E0
5.862040417E-1,1.738861948E0,-2.772774221E0,-8.199889648E-1,3.374062782E0
5.962280417E-1,1.935617831E0,-2.528034624E0,-8.581502330E-1,3.297574453E0
6.062520417E-1,2.355205840E0,-2.400701709E0,-6.650406736E-1,3.428212704E0
6.162760417E-1,2.585115436E0,-3.059480746E0,-4.970998693E-1,4.036130886E0
6.263000417E-1,2.072324563E0,-3.270868701E0,4.314555180E-1,3.896057625E0
6.363230417E-1,1.145369559E0,-2.667926627E0,2.161102839E0,3.619401801E0
6.463470417E-1,5.464971471E-1,-2.528507664E0,5.062894703E0,5.685500234E0
6.563710417E-1,4.253580415E-1,-1.372313008E0,6.452468546E0,6.610485821E0
6.663950417E-1,9.349183273E-1,-1.056612334E-1,4.645162016E0,4.739490134E0
6.764190417E-1,1.611380952E0,3.484599929E-1,2.165679454E0,2.721789933E0
6.864420417E-1,1.686240515E0,5.133361253E-1,1.521461300E0,2.328468497E0
6.964660417E-1,1.445517663E0,7.970286300E-1,2.336625143E0,2.860872771E0
7.064900417E-1,1.138910725E0,1.209198204E0,3.252159950E0,3.651824513E0
7.165140417E-1,1.159660739E0,1.755611005E0,3.354265199E0,3.959555285E0
7.265380417E-1,1.496122976E0,2.432408090E0,2.925529806E0,4.088241397E0
7.365620417E-1,2.144459324E0,3.237021801E0,2.682342938E0,4.719319820E0
7.465850417E-1,2.746118519E0,3.910942934E0,2.476899261E0,5.382533929E0
7.566090417E-1,2.955099760E0,3.976307788E0,2.197590049E0,5.419690050E0
7.666330417E-1,2.926022142E0,3.807455987E0,1.892780983E0,5.161486851E0
7.766570417E-1,2.791504022E0,3.848893450E0,1.295553393E0,4.927974644E0
7.866810417E-1,2.591198294E0,4.217103145E0,6.604704899E-1,4.993444583E0
7.967040417E-1,2.214494349E0,4.847580342E0,4.664950309E-1,5.349825980E0
8.067280417E-1,1.977866887E0,5.909718879E0,1.043722147E0,6.318709566E0
8.167520417E-1,1.173736741E0,7.312088769E0,9.599888492E-1,7.467655502E0
8.267760417E-1,6.183974344E-1,7.674535448E0,-1.525121073E0,7.849006562E0
8.368000417E-1,1.163299461E0,6.439323421E0,-5.265885472E0,8.399267918E0
8.468240417E-1,9.549701840E-1,3.956809955E0,-6.463859507E0,7.638703607E0
8.568470417E-1,-8.498050869E-2,2.964861102E0,-6.283683404E0,6.948546622E0
8.668710417E-1,-7.977508342E-1,2.761485586E0,-5.827283664E0,6.497649108E0
8.768950417E-1,-1.558963587E0,2.836575530E0,-5.148942329E0,6.081787180E0
8.869190417E-1,-2.730558493E0,2.938136695E0,-4.722959805E0,6.196365567E0
8.969430417E-1,-3.588896422E0,3.120724483E0,-3.951540152E0,6.183346052E0
9.069670417E-1,-3.760567165E0,3.417592299E0,-2.382530902E0,5.612330712E0
9.169900417E-1,-3.431230345E0,3.281155123E0,-1.052777145E0,4.862886009E0
9.270140417E-1,-3.074699879E0,2.406121786E0,-1.916275826E-1,3.908954147E0
9.370380417E-1,-2.810146700E0,1.194204627E0,5.990367186E-1,3.111574224E0
9.470620417E-1,-1.864278876E0,3.057953453E-1,9.154508999E-1,2.099308665E0
9.570860417E-1,-1.018947494E-1,-2.380865176E0,7.762187549E-1,2.506275540E0
9.671090417E-1,2.436441207E-1,-1.176726130E0,2.598505560E-1,1.229458887E0
9.771330417E-1,-4.210930824E-1,-1.455065143E0,-6.305575964E-1,1.640773244E0
9.871570417E-1,-1.774218891E0,-9.283118507E-1,-5.216356632E-1,2.069231580E0
9.971810417E-1,-2.737158830E0,-7.037362312E-1,-1.752442691E-1,2.831606205E0
1.007205042E0,-4.130858468E0,-1.014704243E0,-3.049977851E-1,4.264579702E0
1.017229042E0,-4.885732255E0,-6.734711891E-1,-1.503506255E-1,4.934222170E0
1.027252042E0,-4.347945705E0,-1.291757088E0,-5.119918504E-1,4.564581458E0
1.037276042E0,-2.548216581E0,-1.557302978E0,-8.010963187E-1,3.091982475E0
1.047300042E0,-7.316340280E-1,4.195268326E-1,-2.199917241E0,2.356040530E0
1.057324042E0,1.517105709E0,4.514545743E0,-5.663668630E0,7.399991577E0
1.067348042E0,3.406156899E0,6.224638805E0,-3.959835304E0,8.125781729E0
1.077371042E0,5.041344790E0,1.559481066E0,-3.474917232E0,6.318400767E0
1.087395042E0,4.570426998E0,-2.452838554E0,-1.952087975E0,5.542189764E0
1.097419042E0,6.933195627E-1,-3.390591611E0,-8.192767739E-1,3.556405197E0
1.107443042E0,-1.536718440E0,-3.468991079E0,-3.035783735E-1,3.806253078E0
1.117467042E0,-2.070506664E0,-3.099921259E0,6.016141713E-1,3.776036184E0
1.127491042E0,-1.305428901E0,-2.458326750E0,2.166113902E0,3.526976675E0
1.137514042E0,6.283698606E-1,-1.610769772E0,3.347076632E0,3.767273540E0
1.147538042E0,2.331251552E0,-1.046277380E0,2.723019678E0,3.734202233E0
1.157562042E0,3.230328201E0,-9.821784478E-1,1.997262102E0,3.922849818E0
1.167586042E0,2.354045752E0,7.232571606E-1,1.363007019E0,2.814679459E0
1.177610042E0,1.703888581E0,1.139018752E0,1.296873548E0,2.425382653E0
1.187633042E0,2.109215232E0,-6.311594211E-1,5.938566703E-1,2.280310692E0
1.197657042E0,1.835266746E0,-5.382566661E-2,-1.905823928E-1,1.845920605E0
1.207681042E0,2.685201057E0,3.837208959E-1,-6.963250315E-1,2.800431215E0
1.217705042E0,4.375495446E0,1.646884368E-1,-1.083884332E0,4.510752479E0
1.227729042E0,5.589147035E0,-2.344654539E-1,3.943303764E-2,5.594201784E0
1.237753042E0,3.809373874E0,4.649925157E-2,6.779121494E-1,3.869503376E0
1.247776042E0,6.319594663E-1,4.231654818E-1,-1.398788470E0,1.592184341E0
1.257800042E0,-6.937113261E-1,6.559451835E-1,-2.504067180E0,2.679897746E0
1.267824042E0,-9.623236424E-1,4.427606709E-1,-2.996032024E0,3.177784085E0
1.277848042E0,-1.024756118E0,-1.274225235E-1,-3.732114614E0,3.872343101E0
1.287872042E0,-1.525205857E0,-3.839682332E-1,-4.961533220E0,5.204853159E0
1.297895042E0,-2.367684968E0,-4.767274390E-1,-5.213726555E0,5.745967781E0
1.307919042E0,-3.056558892E0,-5.889412084E-1,-4.562150264E0,5.522917621E0
1.317943042E0,-3.169018975E0,-5.677837895E-1,-3.321601191E0,4.625807407E0
1.327967042E0,-2.392087737E0,-8.864472485E-1,-1.626297199E0,3.025345443E0
1.337987292E0,-1.573806744E0,-8.902970552E-1,-3.073980671E-1,1.834118340E0
1.348011292E0,-1.255245173E-1,-9.967827460E-1,3.968505263E-1,1.080195625E0
1.358034292E0,3.941761268E0,-2.001018938E0,3.909179413E-1,4.437834553E0
1.368058292E0,4.675441822E0,-1.995214114E0,8.041994360E-1,5.146588416E0
1.378082292E0,1.656272950E0,-1.072503604E0,4.344712195E-1,2.020462647E0
1.388106292E0,-3.369914103E-1,2.010828227E-2,2.004276422E-1,3.926051367E-1
1.398130292E0,-1.149541547E0,3.842424676E-1,3.381319097E-1,1.258340666E0
1.408154292E0,-9.506181014E-1,1.000517070E-1,-2.335933417E-2,9.561541597E-1
1.418177292E0,-6.491286457E-1,-5.855811059E-2,-3.763870257E-1,7.526381893E-1
1.428201292E0,-1.084949695E0,5.618589520E-2,-1.354601061E-1,1.094816028E0
1.438225292E0,-1.910985850E0,1.125244612E0,-1.462230760E-1,2.222481393E0
1.448249292E0,-2.263367132E0,2.087650115E0,5.719455452E-1,3.131810257E0
1.458273292E0,-2.594545240E0,2.041775785E0,1.004546094E0,3.451032630E0
1.468296292E0,-3.649704541E0,8.314009756E-1,4.351676229E-1,3.768413682E0
1.478320292E0,-3.824054478E0,-4.529487133E-1,1.124374254E-1,3.852427464E0
1.488344292E0,-2.995227447E0,-8.329978502E-1,8.268793237E-1,3.216986524E0
1.498368292E0,-4.038825048E0,-1.093994753E0,2.220924386E0,4.737239430E0
1.508392292E0,-5.447467246E0,-1.530162542E0,3.026003097E0,6.416618389E0
1.518416292E0,-4.358543199E0,-1.412296708E0,3.020845853E0,5.487894904E0
1.528439292E0,-2.602558849E0,-8.698318005E-3,2.562038230E0,3.652044375E0
1.538463292E0,-1.208684379E0,2.235664194E0,1.806574459E0,3.118144255E0
1.548487292E0,-3.109099048E-1,3.764653784E0,1.097732878E0,3.933738750E0
1.558511292E0,-4.219894606E-1,4.509987838E0,3.224166405E-1,4.541147200E0
1.568535292E0,-1.376304756E0,5.310600300E0,-3.161449170E-1,5.495146762E0
1.578558292E0,-2.224355094E0,7.080704505E0,3.735949802E0,8.309118654E0
1.588582292E0,5.874522150E-2,1.018493750E1,8.155442623E0,1.304789819E1
1.598606292E0,2.578556029E0,8.399338759E0,5.682392876E-1,8.804586229E0
1.608630292E0,3.813033062E0,4.281013212E0,-2.930528591E0,6.438500840E0
1.618654292E0,1.552816994E0,4.181105347E0,-3.416170256E0,5.618104819E0
1.628678292E0,3.213657789E0,-9.513583589E-1,-4.684255915E0,5.759768449E0
1.638701292E0,-2.466825094E0,-2.448411042E0,-7.914273044E0,8.643822099E0
1.648725292E0,-6.508988902E0,1.138640700E1,-1.340414254E0,1.318385040E1
1.658749292E0,2.958685858E0,7.376992278E0,3.811278312E0,8.814742166E0
1.668773292E0,2.730638015E-1,3.155589675E0,3.478579928E0,4.704554001E0
1.678797292E0,-1.802519415E0,2.604808273E0,1.709343449E0,3.599438485E0
1.688820292E0,3.423310876E-2,8.974365056E-2,8.480239519E-1,8.534462206E-1
1.698844292E0,5.729043424E-2,-1.838506688E0,6.685004711E-2,1.840613476E0
1.708868292E0,1.043244429E0,-2.342110416E0,-2.078872275E-1,2.572364134E0
1.718892292E0,4.625533497E-1,-3.450361850E0,-7.039170563E-1,3.551682942E0
1.728916292E0,-1.046445195E0,-6.203422768E0,-1.207168196E0,6.405837700E0
1.738940292E0,-4.753265923E-1,-8.033812351E0,1.471157119E0,8.181221152E0
1.748963292E0,5.659403086E-2,-8.404231124E0,4.731644089E0,9.644830712E0
1.758987292E0,-3.460136640E-1,-7.309630600E0,4.922131172E0,8.819172310E0
1.769011292E0,1.213957983E0,-3.739623608E0,4.717745258E0,6.141302714E0
1.779035292E0,7.825790638E-1,-1.814576374E0,2.886555190E0,3.498187856E0
1.789059292E0,-5.031546611E-1,-7.088351494E-1,1.664560794E0,1.877864350E0
1.799082292E0,-7.195080721E-1,5.698023945E-1,9.786728959E-1,1.341703124E0
1.809106292E0,-1.454680250E0,4.096114898E-1,4.675199747E-2,1.511972868E0
1.819130292E0,-1.882947574E0,-2.349586666E-1,-6.023639305E-1,1.990863995E0
1.829154292E0,-1.525141538E0,-4.129239374E-1,-1.147230874E0,1.952614034E0
1.839178292E0,-1.724763434E0,-1.392875181E0,-8.935248645E-1,2.390250375E0
1.849202292E0,-6.377011397E-1,-1.151897390E0,-5.823557818E-1,1.439676560E0
1.859225292E0,6.710422558E-1,-7.967953992E-1,2.328127384E-2,1.041980151E0
1.869249292E0,7.071920818E-1,-6.646851629E-1,-5.064462049E-1,1.094721318E0
1.879273292E0,3.000875857E-1,5.090568405E-1,-9.828000069E-1,1.146772549E0
1.889297292E0,3.169784376E-1,3.279483989E0,-4.979781941E-1,3.332187396E0
1.899321292E0,9.205417782E-1,3.575954195E0,-5.344051782E-1,3.731009845E0
1.909344292E0,1.434332232E0,2.206440395E0,-1.440458068E0,3.000101267E0
1.919368292E0,9.565395766E-1,1.876728183E-1,-2.816105597E0,2.980040232E0
1.929392292E0,1.576251757E0,-1.166904854E0,-2.672611417E0,3.314979385E0
1.939416292E0,1.772982790E0,-1.542324750E0,-8.246959734E-1,2.490453183E0
1.949440292E0,-1.423982660E0,-4.418311098E0,1.563864723E0,4.898456129E0
1.959464292E0,-1.005648002E0,-4.379873257E0,4.316425120E0,6.231062788E0
1.969487292E0,-1.459553905E0,-4.411179834E0,2.511299601E0,5.281612520E0
1.979511292E0,-1.827743134E0,-5.183302322E0,8.789850318E-1,5.565957475E0
1.989535292E0,-1.552703851E0,-5.511478470E0,2.441621840E-1,5.731221453E0
1.999559292E0,-1.712456214E0,-5.252837411E0,3.013222253E-1,5.533136744E0
2.009583292E0,-2.684866011E0,-4.604665369E0,-5.818564296E-2,5.330556653E0
2.019606292E0,-3.856926648E0,-3.234375644E0,-5.979842198E-1,5.068989455E0
2.029630292E0,-5.390627047E0,-2.654601408E0,-6.532731521E-1,6.044214954E0
2.039654292E0,-6.741606343E0,-2.674142218E0,-7.788385999E-1,7.294304782E0
2.049678292E0,-6.327967876E0,-2.021974189E0,-1.163758467E0,6.744322860E0
2.059702292E0,-4.876936873E0,-1.501566734E0,-2.040052611E0,5.495546431E0
2.069726292E0,-3.274563557E0,-7.331806165E-1,-3.000613317E0,4.501555352E0
2.079749292E0,-2.081560533E0,-3.400588596E-1,-3.003015354E0,3.669691471E0
2.089773292E0,-8.911194661E-1,-2.896242857E-2,-2.216468954E0,2.389072487E0
2.099797292E0,-6.822846973E-1,4.135694700E-1,-1.850669482E0,2.015323707E0
2.109821292E0,-1.398419803E0,1.621903017E0,-1.256020514E0,2.482687027E0
2.119845292E0,-5.150563762E-1,2.918449997E0,3.015911973E0,4.228280795E0
2.129868292E0,2.406386226E0,3.590047154E0,2.151833248E0,4.827993327E0
2.139892292E0,1.810741477E0,2.321075057E0,1.610584561E0,3.355615703E0
2.149916292E0,7.703884962E-1,9.985816419E-1,1.806368637E0,2.203095863E0
2.159940292E0,9.797936609E-1,5.657350713E-1,1.234971707E0,1.674875191E0
2.169964292E0,1.357581095E0,4.414764762E-2,7.594305217E-1,1.556184488E0
2.179988292E0,2.065001803E0,-6.506600314E-1,-1.153158635E-1,2.168153286E0
2.190011292E0,1.509891999E0,-5.279509485E-1,-1.704224796E0,2.337282227E0
2.200035292E0,1.086453014E0,1.454869115E-1,-2.853749387E0,3.057029957E0
2.210059292E0,1.569349704E0,2.558566153E-1,-3.545374426E0,3.885614613E0
2.220083292E0,8.137035003E-1,3.182996160E-1,-2.587854272E0,2.731376533E0
2.230107292E0,-4.027509516E-1,3.467819881E-1,-1.565786119E0,1.653527213E0
2.240130292E0,-7.607370821E-1,2.679071420E-1,-1.052011160E0,1.325602740E0
2.250154292E0,-8.894492090E-1,3.924259382E-1,-2.832204151E-1,1.012586695E0
2.260178292E0,-8.232669139E-1,4.566997021E-1,2.157751032E-1,9.658684820E-1
2.270202292E0,-9.524751770E-1,6.259415120E-1,1.217530632E-1,1.146226656E0
2.280226292E0,-1.122106996E0,8.716906303E-1,2.253446746E-1,1.438662187E0
2.290250292E0,-9.469995520E-1,6.114181978E-1,2.461069314E-1,1.153780302E0
2.300273292E0,-5.097014961E-1,-1.461102247E-1,-2.225220043E-2,5.306966867E-1
2.310297292E0,-4.690689021E-1,-6.370564842E-1,-3.804034781E-1,8.778231059E-1
2.320321292E0,-6.153872877E-2,-1.438719690E0,-1.626151603E0,2.172111968E0
2.330349292E0,-1.598385223E0,-7.550509572E-2,-6.574375391E-1,1.729959669E0
2.340373292E0,-2.752995429E0,1.114151275E0,3.413861775E-1,2.989458382E0
2.350396292E0,-1.172843871E0,4.806253392E-1,6.350777864E-2,1.269092865E0
2.360420292E0,-1.337234538E0,8.179558879E-1,-1.591097546E-1,1.575615422E0
2.370444292E0,1.994789314E-1,5.630851132E-1,-2.180017777E-1,6.359099495E-1
2.380468292E0,3.676632723E-1,-4.841634893E-1,-1.755194171E-1,6.327698097E-1
2.390492292E0,-3.444942650E-1,-1.474164927E0,-8.646289480E-1,1.743393744E0
2.400516292E0,2.915061243E0,-2.524011447E0,2.317075416E-1,3.862888068E0
2.410539292E0,-7.460611555E-1,-1.497133375E0,5.316300531E-1,1.755176944E0
2.420563292E0,-1.584698791E0,8.878488261E-1,-7.800793791E-1,1.976883819E0
2.430587292E0,-6.107125850E-1,9.226356661E-1,-1.629024925E0,1.969250782E0
2.440611292E0,-6.269232595E-1,3.521666890E-1,-9.950206876E-1,1.227648288E0
2.450635292E0,-8.601049572E-2,3.080178720E-1,-6.638004792E-1,7.368201212E-1
2.460658292E0,1.816174418E-2,3.616345006E-1,-9.379331517E-1,1.005399402E0
2.470682292E0,-7.873856212E-1,1.346660542E-1,-9.770299745E-1,1.262021645E0
2.480706292E0,-7.825752631E-1,-1.843328887E-1,-7.436734450E-1,1.095195347E0
2.490730292E0,-2.249603663E-1,6.784231961E-2,-5.389647639E-1,5.879564299E-1
2.500754292E0,1.332961978E-1,5.413796639E-1,-6.185173023E-1,8.327205234E-1
2.510778292E0,2.049215198E-2,7.108717346E-1,-8.515861487E-1,1.109485250E0
2.520801292E0,-4.638391525E-1,3.765454853E-1,-1.011157833E0,1.174467294E0
2.530825292E0,-7.760515246E-1,-5.079774445E-1,-6.600313640E-1,1.138392926E0
2.540849292E0,-6.821692148E-1,-1.591220337E-1,-2.728375326E-1,7.517412975E-1
2.550873292E0,-8.686114866E-1,-4.454993606E-3,-1.400946458E-1,8.798478683E-1
2.560897292E0,-1.181796543E0,3.038213253E-3,-1.576374074E-1,1.192267525E0
2.570921292E0,-1.134375039E0,4.377050221E-2,6.314174294E-2,1.136973820E0
2.580944292E0,-8.452723253E-1,-1.448238373E-2,1.402542748E-1,8.569517518E-1
2.590968292E0,-4.669878781E-1,-4.374723029E-1,-2.163826472E-1,6.754858578E-1
2.600992292E0,-1.261747277E-1,-8.158736944E-1,-6.821496266E-1,1.070933266E0
2.611016292E0,-3.658477119E-1,-4.379962134E-1,-1.167771996E0,1.299760234E0
2.621040292E0,-1.544384140E-1,3.696662360E-1,-1.240278640E0,1.303378477E0
2.631063292E0,9.672756493E-2,3.500675386E-1,-1.157842839E0,1.213467570E0
2.641087292E0,5.224975428E-1,5.559240282E-2,-1.321171360E0,1.421825573E0
2.651111292E0,1.890033961E0,-1.159025731E0,-1.150379380E0,2.497787368E0
2.661135292E0,2.128986422E0,-2.449019153E0,-3.724617168E-1,3.266344398E0
2.671159292E0,3.539437163E0,-2.309216319E0,2.344324172E-1,4.232617866E0
2.681183292E0,-1.246165909E-1,-2.842929699E0,-2.065172249E-1,2.853143517E0
2.691206292E0,-4.772869883E0,8.841153789E-1,3.187983104E-1,4.864522514E0
2.701230292E0,-5.586763126E-1,2.390119565E0,2.891774122E-1,2.471520651E0
2.711254292E0,-1.232370573E0,1.337972165E0,-1.546133627E0,2.387349144E0
2.721278292E0,-3.559527612E-1,-1.283797127E-1,1.638120854E0,1.681256569E0
2.731302292E0,1.225574062E0,2.517074311E-1,2.479631081E0,2.777401431E0
2.741325292E0,-2.215089011E-1,-7.042901087E-1,-6.685249563E-1,9.960001846E-1
2.751349292E0,-5.874551386E-2,-1.147485082E0,-1.671603180E0,2.028405837E0
2.761373292E0,-2.340117100E-1,-4.302311110E-1,-1.287100219E0,1.377130082E0
2.771397292E0,-1.004592580E-1,-1.738774824E-1,-1.576304675E0,1.589044326E0
2.781421292E0,2.400156310E-1,1.120765060E-1,-1.671068160E0,1.691933049E0
2.791445292E0,3.246432602E-2,1.015746728E0,-1.262632545E0,1.620813466E0
2.801468292E0,4.093814018E0,-1.046557929E1,1.984401151E0,1.141163928E1
2.811492292E0,1.191568410E0,-1.074995980E1,-2.964387478E0,1.121468074E1
2.821516292E0,-1.935083688E0,-4.241623444E0,-4.186763113E0,6.266171373E0
2.831540292E0,-9.171585792E-1,-2.457471887E0,-1.262751828E0,2.911166453E0
2.841564292E0,-3.546552640E-1,1.425209699E0,5.052754462E-1,1.553160107E0
2.851588292E0,-2.567120630E-1,3.704258478E0,3.327545178E-1,3.728023273E0
2.861611292E0,-2.344131213E-1,5.787414424E0,-3.184510589E-1,5.800907369E0
2.871635292E0,-9.002496010E-1,5.951324742E0,-6.672690475E-1,6.055903196E0
2.881659292E0,-2.044844989E0,6.367853488E0,-5.960505456E-1,6.714627713E0
2.891683292E0,-3.998528962E0,1.146855336E1,-3.898145717E-1,1.215186840E1
2.901707292E0,-4.212452270E0,8.806122535E0,8.716602248E-1,9.800629560E0
2.911731292E0,-9.327510568E-1,1.817066703E0,1.738829788E0,2.682402835E0
2.921754292E0,-5.506162181E-1,4.181870162E-2,-1.554784582E0,1.649933975E0
2.931778292E0,-3.380924410E-1,-1.923760262E0,-2.621421382E0,3.269099281E0
2.941802292E0,9.621970502E-1,-3.004942596E0,-2.223920061E0,3.860223259E0
2.951826292E0,1.313779018E0,-2.180364152E0,-1.985961188E0,3.228628963E0
2.961850292E0,1.664557285E0,-1.152630631E0,-1.655332718E0,2.615231297E0
2.971873292E0,1.101396743E0,-1.025257809E0,-2.135820063E0,2.612653001E0
2.981897292E0,4.087756303E-1,-4.244663411E-1,-2.478089170E0,2.547193578E0
2.991921292E0,-2.336167306E-2,3.238217264E-1,-2.116288024E0,2.141046771E0
3.001945292E0,-1.649107772E-1,7.085843039E-1,-1.296432375E0,1.486615009E0
3.011969292E0,-2.124036169E-1,9.508707011E-1,-2.149062617E-1,9.977249561E-1
3.021993292E0,-5.728400230E-2,1.124031315E0,5.294840884E-1,1.243817211E0
3.032016292E0,-1.837519678E-1,1.099722100E0,7.531207913E-1,1.345490398E0
3.042040292E0,-3.488016164E-1,1.016139076E0,9.185589143E-1,1.413489183E0
3.052064292E0,-4.489565268E-1,8.557610607E-1,1.076296400E0,1.446479484E0
3.062088292E0,-5.239818585E-1,5.005760390E-1,1.128312646E0,1.340978294E0
3.072112292E0,-5.369293481E-1,1.011223322E-1,1.095683356E0,1.224353244E0
3.082135292E0,-4.448786786E-1,-1.728869641E-1,9.470998317E-1,1.060568259E0
3.092159292E0,-3.471673197E-1,-2.428336966E-1,7.557093537E-1,8.663659615E-1
3.102183292E0,-2.248450300E-1,-6.914332509E-2,5.951523767E-1,6.399550284E-1
3.112207292E0,-1.340357244E-1,2.539317119E-1,5.373263741E-1,6.092343736E-1
3.122231292E0,-1.380881372E-1,6.756907922E-1,4.987868275E-1,8.511255369E-1
3.132255292E0,-1.290629598E-1,1.017526621E0,4.260906976E-1,1.110662394E0
3.142278292E0,-9.933016062E-2,1.245287365E0,3.275112830E-1,1.291460701E0
3.152302292E0,-1.612571445E-1,1.437797585E0,2.999890236E-1,1.477585590E0
3.162326292E0,-1.002315089E-1,1.517137869E0,2.795676412E-1,1.545933936E0
3.172350292E0,-6.811713874E-2,1.428663064E0,2.348440429E-1,1.449437760E0
3.182374292E0,2.584469318E-2,1.239251284E0,2.480535426E-1,1.264097406E0
3.192398292E0,5.489366055E-2,1.005453290E0,2.985652632E-1,1.050281319E0
3.202421292E0,7.937682956E-2,8.137096399E-1,4.077187461E-1,9.135965384E-1
3.212445292E0,1.396101674E-1,6.267227000E-1,5.414498305E-1,8.399049116E-1
3.222469292E0,2.664386138E-1,5.388109821E-1,6.415477306E-1,8.791417974E-1
3.232493292E0,3.648683032E-1,3.461627680E-1,7.264633352E-1,8.835759831E-1
3.242517292E0,4.097953847E-1,-2.053425193E-2,7.530384187E-1,8.575667746E-1
3.252540292E0,6.221788287E-1,-4.604588771E-1,7.434489119E-1,1.073240494E0
3.262564292E0,8.461991090E-1,-9.692818290E-1,7.378326613E-1,1.483225280E0
3.272588292E0,1.068130764E0,-1.497329841E0,9.149933553E-1,2.054291319E0
3.282612292E0,1.100219114E0,-1.915161347E0,1.198363459E0,2.512847003E0
3.292636292E0,1.101454046E0,-2.166768790E0,1.355020307E0,2.782834533E0
3.302660292E0,1.157544047E0,-2.231600963E0,1.364818486E0,2.860538512E0
3.312683292E0,1.100919026E0,-2.092547743E0,1.320925777E0,2.708435649E0
3.322707292E0,1.071587345E0,-1.776064857E0,1.224738495E0,2.408877373E0
3.332727958E0,1.074925228E0,-1.371355088E0,1.056103626E0,2.037506784E0
3.342751958E0,1.027902505E0,-8.986240751E-1,8.399841034E-1,1.603022795E0
3.352775958E0,9.593713832E-1,-4.788670814E-1,6.697709980E-1,1.264239029E0
3.362798958E0,8.691286728E-1,-3.464750093E-1,5.963491921E-1,1.109532307E0
3.372822958E0,8.178015214E-1,-3.628372729E-1,6.463276832E-1,1.103716308E0
3.382846958E0,7.056881779E-1,-4.119334191E-1,6.886615976E-1,1.068615807E0
3.392870958E0,5.954091060E-1,-4.600665289E-1,6.834617418E-1,1.016510289E0
3.402894958E0,5.242549235E-1,-4.782320738E-1,6.411412760E-1,9.563531131E-1
3.412918958E0,3.711388573E-1,-3.867354280E-1,5.730007484E-1,7.846261532E-1
3.422941958E0,2.185217048E-1,-1.568217391E-1,5.072652537E-1,5.741627216E-1
3.432965958E0,1.540979598E-1,3.661117136E-2,4.788104365E-1,5.043272680E-1
3.442989958E0,6.229696646E-2,1.031483924E-1,4.441948467E-1,4.602494593E-1
3.453013958E0,-3.509586543E-2,5.113273144E-2,3.915862050E-1,3.964669367E-1
3.463037958E0,-4.775713384E-2,-1.267676353E-3,3.792702878E-1,3.822673175E-1
3.473060958E0,-1.311065617E-1,-6.591741621E-2,3.678957722E-1,3.960824857E-1
3.483084958E0,-3.720760198E-1,-4.454935133E-2,2.853096984E-1,4.709849607E-1
3.493108958E0,-3.995655347E-1,1.303560716E-1,2.330348595E-1,4.805731658E-1
3.503132958E0,-5.492212187E-1,3.171044451E-1,2.502801257E-1,6.817912565E-1
3.513156958E0,-6.587286043E-1,4.911935967E-1,3.305431008E-1,8.856936632E-1
3.523180958E0,-6.289977054E-1,5.862283927E-1,4.161802518E-1,9.552527644E-1
3.533203958E0,-6.001359951E-1,6.090682018E-1,4.925413799E-1,9.867746947E-1
3.543227958E0,-5.112073003E-1,5.214365655E-1,5.764178612E-1,9.303152941E-1
3.553251958E0,-3.584182397E-1,3.888696617E-1,6.932330239E-1,8.719261859E-1
3.563275958E0,-3.348948911E-1,1.161906070E-1,8.559264638E-1,9.264259046E-1
3.573299958E0,-2.387603800E-1,-1.696885371E-1,9.604806000E-1,1.004153226E0
3.583323958E0,-3.208761916E-2,-5.184813827E-1,9.227368961E-1,1.058912621E0
3.593346958E0,1.955450709E-1,-8.329686141E-1,8.245153675E-1,1.188234059E0
3.603370958E0,3.857488565E-1,-8.905426383E-1,7.604625553E-1,1.232952420E0
3.613394958E0,6.038862531E-1,-7.356247526E-1,7.709495366E-1,1.224820628E0
3.623418958E0,8.424647116E-1,-7.331946498E-1,8.936592042E-1,1.430366372E0
3.633442958E0,1.054494765E0,-9.321718901E-1,1.014562667E0,1.735004624E0
3.643465958E0,1.240494402E0,-1.112385415E0,1.071357257E0,1.980917476E0
3.653489958E0,1.378193699E0,-1.159435036E0,1.107107134E0,2.114094057E0
3.663513958E0,1.461857708E0,-8.696306562E-1,1.163838574E0,2.061020539E0
3.673537958E0,1.440682893E0,-2.594041210E-1,1.159873577E0,1.867662821E0
3.683561958E0,1.348776650E0,4.871601874E-1,1.059780940E0,1.783159875E0
3.693585958E0,1.261449215E0,1.175553471E0,9.374291217E-1,1.962639407E0
3.703608958E0,1.192343458E0,1.623148474E0,7.404352570E-1,2.145818785E0
3.713632958E0,1.185109575E0,1.654925752E0,5.521221685E-1,2.109052593E0
3.723656958E0,1.306033211E0,1.266898089E0,4.208428216E-1,1.867581912E0
3.733680958E0,1.477972634E0,9.364538062E-1,4.668446213E-1,1.810881757E0
3.743704958E0,1.483408206E0,4.737232858E-1,5.332765925E-1,1.645994405E0
3.753727958E0,1.517724345E0,1.361869150E-1,6.604026622E-1,1.660772633E0
3.763751958E0,1.490785930E0,-1.017433065E-1,7.885373765E-1,1.689551888E0
3.773775958E0,1.440454559E0,-4.991265142E-1,8.565054113E-1,1.748610344E0
3.783799958E0,1.414147059E0,-9.637620574E-1,8.630963928E-1,1.916659748E0
3.793823958E0,1.365923902E0,-1.265687131E0,8.473328841E-1,2.045894679E0
3.803847958E0,1.224399210E0,-1.240373949E0,7.395909190E-1,1.893323978E0
3.813870958E0,1.033698777E0,-9.066885549E-1,5.181007290E-1,1.469369137E0
3.823894958E0,8.777300732E-1,-4.228881776E-1,3.503271550E-1,1.035361583E0
3.833918958E0,5.326771067E-1,8.942497730E-2,2.582668559E-1,5.987015078E-1
3.843942958E0,1.160339016E-1,2.844992012E-1,-6.305637360E-2,3.136554926E-1
3.853966958E0,-1.976861020E-1,3.650282246E-1,-5.013268214E-1,6.508870728E-1
3.863990958E0,-4.364130798E-1,3.907536346E-1,-9.477108657E-1,1.114136735E0
3.874013958E0,-6.673053002E-1,3.548031986E-1,-1.389636408E0,1.581856827E0
3.884037958E0,-7.587500520E-1,2.221684670E-1,-1.851656492E0,2.013378313E0
3.894061958E0,-7.621415102E-1,9.691058278E-2,-2.244585875E0,2.372428522E0
3.904085958E0,-7.727103525E-1,1.154866022E-1,-2.460453383E0,2.581520733E0
3.914109958E0,-6.817907538E-1,2.959538966E-1,-2.425278872E0,2.536612889E0
3.924132958E0,-3.757214664E-1,6.172923106E-1,-2.046911395E0,2.170728604E0
3.934156958E0,-2.733708534E-1,1.013821825E0,-1.487850920E0,1.821061964E0
3.944180958E0,-3.167164093E-1,1.380392545E0,-1.072495126E0,1.776524319E0
3.954204958E0,-1.743516185E-1,1.959120714E0,-8.487467408E-1,2.142177278E0
3.964228958E0,-1.964034056E-1,2.548044088E0,-6.942656422E-1,2.648227286E0
3.974252958E0,-1.934161362E-1,3.177148359E0,-5.323240811E-1,3.227235725E0
3.984275958E0,-2.172872845E-1,3.859315528E0,-3.909302205E-1,3.885145627E0
3.994299958E0,-1.926697026E-1,4.600384038E0,-2.926514258E-1,4.613707811E0
4.004323958E0,-2.433727368E-1,5.336963641E0,-2.464922994E-1,5.348193120E0
4.014347958E0,-1.900020932E-1,6.052258210E0,-2.528329470E-1,6.060516045E0
4.024371958E0,-3.043065711E-1,6.795150467E0,-3.520444822E-1,6.811065091E0
4.034394958E0,-3.871152777E-1,7.491301836E0,-4.623165375E-1,7.515530455E0
4.044418958E0,-3.751661271E-1,8.161393334E0,-5.255429920E-1,8.186897228E0
4.054442958E0,-3.772325696E-1,8.770367981E0,-5.158571523E-1,8.793620843E0
4.064466958E0,-5.099362618E-1,9.271468515E0,-4.545678073E-1,9.296601277E0
4.074490958E0,-6.439048894E-1,9.437359285E0,-3.215775651E-1,9.464764969E0
4.084514958E0,-7.209909260E-1,8.634568151E0,-5.234953701E-1,8.680417183E0
4.094537958E0,-4.275870732E-1,7.713970824E0,-7.978800577E-1,7.766903448E0
4.104561958E0,-1.701462645E-1,7.504621793E0,-8.659170896E-1,7.556329163E0
4.114585958E0,-3.990240095E-1,6.604103220E0,-5.942379087E-1,6.642779403E0
4.124609958E0,-7.517984435E-1,6.002978461E0,-3.492822576E-1,6.059946320E0
4.134633958E0,-1.384117367E0,5.882149258E0,-5.499446289E-1,6.067775529E0
4.144656958E0,-1.649453050E0,5.743825770E0,-1.642640752E0,6.197620389E0
4.154680958E0,-1.610808948E0,4.277431208E0,-1.933330400E0,4.962750209E0
4.164704958E0,-1.934933122E0,3.626700425E0,-1.285187595E0,4.306811966E0
4.174728958E0,-2.175090548E0,2.141510573E0,-1.349281265E0,3.337311247E0
4.184752958E0,-2.412383130E0,6.540835762E-1,-1.182353710E0,2.765027665E0
4.194776958E0,-2.800429504E0,-4.663973093E-1,-1.202771529E-1,2.841548601E0
4.204799958E0,-3.647092590E0,-1.112365535E0,6.559464260E-1,3.868967195E0
4.214823958E0,-4.638193889E0,-1.902770512E0,1.521909782E0,5.239235398E0
4.224847958E0,-5.406851901E0,-2.570169368E0,2.610544684E0,6.531061293E0
4.234871958E0,-5.876694975E0,-3.576590372E0,3.374425814E0,7.662525177E0
4.244895958E0,-5.310925405E0,-4.684109150E0,3.635203446E0,7.959994427E0
4.254919958E0,-4.470073575E0,-6.028668203E0,3.626364795E0,8.335281620E0
4.264942958E0,-3.499352454E0,-7.551232288E0,2.998118895E0,8.846202212E0
4.274966958E0,-2.109404097E0,-8.999751327E0,1.890046825E0,9.434902575E0
4.284990958E0,-2.483685248E-1,-1.057750553E1,9.123585999E-1,1.061968494E1
4.295014958E0,1.331717544E0,-1.189850030E1,6.380888101E-1,1.198978475E1
4.305038958E0,2.256317729E0,-1.223229328E1,9.583668315E-1,1.247551344E1
4.315061958E0,3.360649482E0,-1.180076877E1,1.568207889E0,1.236977706E1
4.325085958E0,4.739325284E0,-1.059011212E1,2.333233027E0,1.183451120E1
4.335109417E0,6.048712458E0,-9.433528774E0,3.179736922E0,1.164856705E1
4.345133417E0,7.528786581E0,-8.021984019E0,4.314672124E0,1.181741302E1
4.355157417E0,7.769042240E0,-6.455317309E0,4.683032677E0,1.113372956E1
4.365181417E0,6.744505978E0,-5.407910247E0,3.821964684E0,9.452051003E0
4.375204417E0,5.748237494E0,-4.988994668E0,2.662130867E0,8.063451050E0
4.385228417E0,4.908593699E0,-5.045468246E0,1.390306499E0,7.175234776E0
4.395252417E0,4.163699355E0,-4.701882931E0,3.372369933E-1,6.289501109E0
4.405276417E0,3.655651744E0,-4.743981130E0,-1.059564520E0,6.082090397E0
4.415300417E0,3.240048320E0,-5.095982927E0,-2.231327899E0,6.437839645E0
4.425324417E0,2.482392428E0,-6.191887380E0,-3.152286583E0,7.378255363E0
4.435347417E0,1.831255118E0,-7.301417601E0,-3.871699930E0,8.464883616E0
4.445371417E0,1.324710241E0,-8.219604705E0,-4.126022236E0,9.291976013E0
4.455395417E0,8.146994273E-1,-9.480482501E0,-3.973426280E0,1.031171179E1
4.465419417E0,3.164662946E-1,-1.079013134E1,-3.202745715E0,1.125986968E1
4.475443417E0,-9.871050194E-3,-1.148547638E1,-2.439316868E0,1.174165797E1
4.485466417E0,9.884973876E-2,-1.139438962E1,-1.571535101E0,1.150267833E1
4.495490417E0,6.535820313E-1,-1.055157663E1,-1.082382694E0,1.062706409E1
4.505514417E0,1.311169990E0,-1.097288022E1,-7.750869533E-1,1.107808768E1
4.515538417E0,1.730887953E0,-1.140806041E1,-6.126912097E-1,1.155487802E1
4.525562417E0,2.127566864E0,-1.118029499E1,-7.952493954E-1,1.140867908E1
4.535586417E0,2.528393058E0,-1.112769110E1,-5.317153128E-1,1.142370351E1
4.545609417E0,2.553432882E0,-1.189379329E1,-1.472025577E-1,1.216568974E1
4.555633417E0,2.557671529E0,-1.232199425E1,9.425704323E-2,1.258499544E1
4.565657417E0,2.646630191E0,-1.337128061E1,3.572661189E-1,1.363537442E1
4.575681417E0,2.464986144E0,-1.440189330E1,4.138495517E-1,1.461718026E1
4.585705417E0,1.974663929E0,-1.476869498E1,-6.712252736E-2,1.490027364E1
4.595728417E0,1.462084726E0,-1.519918220E1,-8.449109674E-2,1.526957662E1
4.605752417E0,8.887483471E-1,-1.531668317E1,5.653602648E-1,1.535285931E1
4.615776417E0,-1.670523930E-2,-1.572209870E1,2.002967230E0,1.584918118E1
4.625800417E0,-7.258693311E-1,-1.571882426E1,3.121548940E0,1.604220652E1
4.635824417E0,-1.341534873E0,-1.436550373E1,3.187714863E0,1.477595816E1
4.645848417E0,-1.332751478E0,-1.146629868E1,2.600626345E0,1.183281409E1
4.655871417E0,-6.068149772E-1,-8.345679445E0,2.070948129E0,8.620174939E0
4.665895417E0,-2.992375468E-1,-5.536199913E0,1.491956835E0,5.741514415E0
4.675919417E0,-6.027678269E-1,-2.994495376E0,9.690029168E-1,3.204574584E0
4.685943417E0,-1.024961063E0,-1.175376885E0,4.573353310E-1,1.625180485E0
4.695967417E0,-1.230376672E0,6.772145766E-1,3.233849394E-1,1.441188453E0
4.705991417E0,-1.535862408E0,2.531495299E0,2.054395831E-1,2.968088140E0
4.716014417E0,-1.986896889E0,4.251592947E0,8.912676930E-2,4.693798612E0
4.726038417E0,-2.436718073E0,5.717770577E0,6.018305182E-2,6.215634910E0
4.736062417E0,-2.936552392E0,7.035979153E0,5.538252432E-2,7.624395702E0
4.746086417E0,-3.547054624E0,8.095632039E0,1.195931200E-1,8.839409320E0
4.756110417E0,-4.230500870E0,8.985942543E0,2.391511385E-1,9.934862569E0
4.766133417E0,-4.979521594E0,9.725149300E0,3.230259204E-1,1.093062258E1
4.776157417E0,-6.198151503E0,1.029914649E1,3.244731063E-1,1.202475710E1
4.786181417E0,-7.635537443E0,1.028885422E1,1.226102833E-1,1.281315677E1
4.796205417E0,-9.872443585E0,9.968342600E0,-7.975894511E-2,1.402994505E1
4.806229417E0,-1.256649674E1,9.691321403E0,1.683985683E-1,1.587031534E1
4.816253417E0,-1.527301265E1,9.655283843E0,4.263883209E-1,1.807404848E1
4.826276417E0,-1.690315440E1,9.993390902E0,5.322236551E-1,1.964351680E1
4.836300417E0,-1.604350845E1,1.024651336E1,1.137880007E0,1.907039512E1
4.846324417E0,-1.350745407E1,1.091373680E1,2.418489524E-1,1.736719486E1
4.856348417E0,-1.064284465E1,1.162723744E1,-1.003115646E0,1.579458875E1
4.866372417E0,-8.051911823E0,1.199110032E1,-1.558601060E0,1.452752588E1
4.876395417E0,-6.062346411E0,1.200165337E1,-1.531037870E0,1.353276781E1
4.886419417E0,-4.810310190E0,1.180717030E1,-1.497983999E0,1.283714574E1
4.896443417E0,-4.093602057E0,1.154304455E1,-1.425407919E0,1.233009502E1
4.906467417E0,-3.648917798E0,1.127596011E1,-1.384469808E0,1.193225185E1
4.916491417E0,-3.358807609E0,1.101422003E1,-1.402334222E0,1.160005055E1
4.926515417E0,-3.165790728E0,1.079553300E1,-1.389986072E0,1.133568811E1
4.936538417E0,-3.074694031E0,1.067843782E1,-1.352990153E0,1.119434501E1
4.946562417E0,-3.063177648E0,1.061022187E1,-1.282097926E0,1.111771741E1
4.956586417E0,-3.098714393E0,1.052718673E1,-1.194163989E0,1.103855602E1
4.966610417E0,-3.101668407E0,1.055549661E1,-1.121704050E0,1.105880082E1
4.976634417E0,-3.145987670E0,1.064212077E1,-9.893962508E-1,1.114140376E1
4.986658417E0,-3.250204057E0,1.075506442E1,-8.713286877E-1,1.126918146E1
4.996681417E0,-3.331896383E0,1.085202996E1,-8.186733413E-1,1.138148997E1
5.006705417E0,-3.384141255E0,1.082512575E1,-8.788587320E-1,1.137577040E1
5.016729417E0,-3.343226533E0,1.056843533E1,-1.091696797E0,1.113825798E1
5.026753417E0,-3.339861461E0,1.002797251E1,-1.224159036E0,1.064018198E1
5.036777417E0,-3.479009990E0,9.547456509E0,-1.233140359E0,1.023611603E1
5.046800417E0,-3.630190921E0,9.366388121E0,-1.209998834E0,1.011788564E1
5.056824417E0,-3.543033201E0,9.339241253E0,-1.299788677E0,1.007293215E1
5.066848417E0,-3.329520075E0,9.401224077E0,-1.357197810E0,1.006532185E1
5.076872417E0,-3.148958640E0,9.513532133E0,-1.047424604E0,1.007572987E1
5.086896417E0,-3.026278794E0,9.706878505E0,-5.771043974E-1,1.018405141E1
5.096920417E0,-2.945613530E0,9.733425449E0,-2.883706427E-1,1.017346390E1
5.106943417E0,-2.845220053E0,9.719112049E0,-2.301195109E-1,1.012962838E1
5.116967417E0,-2.721769251E0,9.682171680E0,-1.465978825E-1,1.005852709E1
5.126991417E0,-2.495779044E0,9.480011800E0,-8.577631474E-2,9.803412382E0
5.137015417E0,-2.296153347E0,9.240720931E0,-1.593950987E-2,9.521738160E0
5.147039417E0,-2.033206691E0,9.058144546E0,8.794329286E-2,9.283945610E0
5.157063417E0,-1.874318253E0,8.905586012E0,1.229915035E-1,9.101519546E0
5.167086417E0,-1.873413689E0,8.816797212E0,1.586384690E-1,9.015029567E0
5.177110417E0,-1.920616068E0,8.865188769E0,1.763999712E-1,9.072566061E0
5.187134417E0,-1.896357871E0,8.908092129E0,1.287709645E-1,9.108614632E0
5.197158417E0,-1.734124241E0,8.884075275E0,-2.470214725E-2,9.051772786E0
5.207182417E0,-1.551320838E0,8.848021928E0,-2.273969742E-1,8.985866556E0
5.217205417E0,-1.422350410E0,8.755092130E0,-4.283564206E-1,8.880214418E0
5.227229417E0,-1.331016902E0,8.383993911E0,-6.536765369E-1,8.514120794E0
5.237253417E0,-8.721657166E-1,6.990938051E0,-1.042586691E0,7.121858948E0
5.247277417E0,8.788658948E-1,2.387654963E0,-2.161777607E0,3.338650013E0
5.257301417E0,7.155159441E0,-2.877085975E1,-4.527780915E0,2.999098994E1
5.267325417E0,1.433284002E1,-6.976418245E1,2.998193740E0,7.128436449E1
5.277348417E0,1.441523430E1,-6.865708935E1,1.734186046E1,7.226572508E1
5.287372417E0,1.420879368E1,-5.230861118E1,1.162150483E0,5.421652161E1
5.297396417E0,6.681878205E0,-2.570988914E1,-1.023557673E1,2.846775240E1
5.307420417E0,2.760724571E0,-1.331124023E1,-8.173773644E0,1.586257520E1
5.317444417E0,2.530809128E0,-9.974440076E0,-7.313375741E0,1.262457581E1
5.327468417E0,2.039245110E0,-7.760264985E0,-5.488960258E0,9.721569728E0
5.337491292E0,8.716707498E-1,-5.854966722E0,-3.766496826E0,7.016191527E0
5.347515292E0,-7.931543380E-2,-5.097313753E0,-3.488444180E0,6.177227634E0
5.357539292E0,-1.111401475E0,-4.292061526E0,-2.925408476E0,5.311781258E0
5.367563292E0,-1.958792685E0,-4.097705340E0,-1.827246851E0,4.895598931E0
5.377587292E0,-2.489441831E0,-4.969493034E0,-8.020590627E-1,5.615735071E0
5.387610292E0,-2.217092121E0,-5.436111369E0,3.939232640E-1,5.884044512E0
5.397634292E0,-1.487129374E0,-5.201948508E0,9.214651997E-1,5.488252925E0
5.407658292E0,-1.233690728E0,-4.389194888E0,8.625650270E-1,4.640155493E0
5.417682292E0,-1.240550828E0,-3.521499660E0,8.378137632E-1,3.826468099E0
5.427706292E0,-1.299993476E0,-2.749286540E0,7.485570395E-1,3.131915893E0
5.437730292E0,-1.412305040E0,-2.039071448E0,4.741683320E-1,2.525322455E0
5.447753292E0,-1.430514585E0,-1.253624910E0,2.336488903E-1,1.916387016E0
5.457777292E0,-1.384682793E0,-4.069463289E-1,-4.561763763E-2,1.443964238E0
5.467801292E0,-1.237617864E0,5.217657638E-1,-5.118593379E-1,1.437336938E0
5.477825292E0,-9.824613069E-1,1.428183008E0,-8.484391773E-1,1.929970456E0
5.487849292E0,-7.182189073E-1,2.185058296E0,-9.504648312E-1,2.488714840E0
5.497872292E0,-5.220683572E-1,2.929710565E0,-9.548291930E-1,3.125293291E0
5.507896292E0,-4.733993500E-1,3.661535797E0,-8.767595085E-1,3.794688205E0
5.517920292E0,-5.536753352E-1,4.356818855E0,-6.683718324E-1,4.442425893E0
5.527944292E0,-6.876983419E-1,4.967272847E0,-4.879688207E-1,5.038337237E0
5.537968292E0,-8.449274857E-1,5.476200464E0,-3.654463371E-1,5.553037457E0
5.547992292E0,-9.928309053E-1,5.908176384E0,-2.861557174E-1,5.997845153E0
5.558015292E0,-1.095142415E0,6.230937425E0,-2.535609802E-1,6.331525194E0
5.568039292E0,-1.174850636E0,6.423517812E0,-2.905843985E-1,6.536535350E0
5.578063292E0,-1.260742287E0,6.418188075E0,-3.586050582E-1,6.550664612E0
5.588087292E0,-1.355329624E0,6.124903432E0,-4.078222418E-1,6.286308887E0
5.598111292E0,-1.442986258E0,5.647433251E0,-3.995952094E-1,5.842549785E0
5.608135292E0,-1.491738295E0,4.995097407E0,-2.976443267E-1,5.221577673E0
5.618158292E0,-1.455194221E0,4.271111537E0,-1.450027621E-1,4.514533175E0
5.628182292E0,-1.420572272E0,3.583488332E0,7.753524899E-2,3.855570765E0
5.638206292E0,-1.461845867E0,2.831424717E0,2.560758859E-1,3.196800608E0
5.648230292E0,-1.489752434E0,2.049907508E0,3.956986248E-1,2.564772994E0
5.658254292E0,-1.431172251E0,1.212839411E0,4.828782713E-1,1.937112509E0
5.668278292E0,-1.277316219E0,3.241503400E-1,5.284198952E-1,1.419802012E0
5.678301292E0,-1.050499654E0,-6.140079296E-1,6.309566689E-1,1.370642761E0
5.688325292E0,-9.333876725E-1,-1.728926359E0,8.086593997E-1,2.124695020E0
5.698349292E0,-8.555977041E-1,-3.094544159E0,7.189210117E-1,3.290151730E0
5.708373292E0,-5.913763545E-1,-4.186512852E0,5.381134093E-1,4.262180415E0
5.718397292E0,-2.663713709E-1,-4.766913909E0,5.714787912E-1,4.808431130E0
5.728420292E0,8.225599855E-2,-4.475231404E0,8.136061442E-1,4.549331503E0
5.738444292E0,3.654867925E-1,-3.175134578E0,9.128053272E-1,3.323894365E0
5.748468292E0,5.774166387E-1,-1.806778527E0,7.767932439E-1,2.049699091E0
5.758492292E0,7.735394146E-1,-9.949581224E-1,5.573074794E-1,1.378004542E0
5.768516292E0,9.502584245E-1,-5.738042289E-1,3.398600543E-1,1.160925158E0
5.778540292E0,1.172705950E0,-3.996601135E-1,1.367359686E-1,1.246460660E0
5.788563292E0,1.389801592E0,-2.611752427E-1,1.325505316E-2,1.414191171E0
5.798587292E0,1.569903143E0,-1.145808685E-1,-7.599626184E-2,1.575912461E0
5.808611292E0,1.706558712E0,-4.921601415E-3,-1.430597323E-1,1.712551590E0
5.818635292E0,1.754777922E0,1.609124511E-1,-1.852959251E-1,1.771855794E0
5.828659292E0,1.731928027E0,3.632243586E-1,-2.380740631E-1,1.785549183E0
5.838683292E0,1.630139405E0,5.399564517E-1,-2.800483006E-1,1.739923705E0
5.848706292E0,1.445923022E0,6.858994460E-1,-3.262442279E-1,1.633274848E0
5.858730292E0,1.247729162E0,8.468025416E-1,-4.389469707E-1,1.570534001E0
5.868754292E0,1.050643496E0,9.774106282E-1,-5.705677950E-1,1.544257394E0
5.878778292E0,8.344770496E-1,7.881614006E-1,-6.093512070E-1,1.299561169E0
5.888802292E0,7.154778787E-1,6.682443631E-1,-4.775777704E-1,1.089284008E0
5.898825292E0,5.377889619E-1,4.962695646E-1,-3.306384104E-1,8.030082234E-1
5.908849292E0,3.883564223E-1,4.765024674E-1,-2.971467286E-1,6.827675231E-1
5.918873292E0,3.108156185E-1,4.486317140E-1,-2.647888402E-1,6.066217053E-1
5.928897292E0,2.597057643E-1,3.477087718E-1,-2.420758975E-1,4.969398496E-1
5.938921292E0,1.033651780E-1,2.288073957E-2,-4.421722949E-1,4.546693596E-1
5.948945292E0,6.885666534E-2,-1.410675859E-1,-5.189661169E-1,5.421873612E-1
5.958968292E0,1.598566633E-1,5.256354511E-2,-3.367598605E-1,3.764628570E-1
5.968992292E0,5.682623841E-2,2.421641904E-1,-2.830105183E-1,3.767859737E-1
5.979016292E0,-3.720861062E-2,4.498754168E-1,-3.130985177E-1,5.493660465E-1
5.989040292E0,-6.828933924E-2,5.879170686E-1,-3.862401688E-1,7.067470420E-1
5.999064292E0,-1.354356209E-1,3.739692020E-1,-4.463951540E-1,5.978832704E-1
6.009088292E0,-1.773275955E-1,-1.054469329E-1,-3.731231099E-1,4.263625065E-1
6.019111292E0,-2.364883347E-1,-4.946837997E-1,-2.200453430E-1,5.908119389E-1
6.029135292E0,-3.147696519E-1,-7.644193661E-1,-1.183143339E-1,8.351138741E-1
6.039159292E0,-4.619048935E-1,-9.548222494E-1,-4.398745218E-2,1.061591520E0
6.049183292E0,-6.741368946E-1,-8.611533630E-1,2.934715709E-2,1.094032414E0
6.059207292E0,-7.736817212E-1,-6.219648206E-1,3.783439061E-2,9.934058007E-1
6.069231292E0,-8.047927822E-1,-5.114886975E-1,1.267565074E-1,9.619663831E-1
6.079254292E0,-9.309917758E-1,-5.672746432E-1,2.253850204E-1,1.113258557E0
6.089278292E0,-1.116786468E0,-3.747229081E-1,2.682035776E-1,1.208123517E0
6.099302292E0,-1.191469519E0,-1.329376173E-1,3.661573219E-1,1.253532293E0
6.109326292E0,-1.256523520E0,-7.895495296E-3,4.301205987E-1,1.328125531E0
6.119350292E0,-1.327658553E0,1.103328663E-1,3.803257102E-1,1.385459571E0
6.129373292E0,-1.353148174E0,2.995394093E-1,2.649589576E-1,1.411005701E0
6.139397292E0,-1.354713036E0,6.337890601E-1,1.864139128E-1,1.507211375E0
6.149421292E0,-1.274504293E0,9.742075235E-1,1.780711055E-1,1.614047958E0
6.159445292E0,-1.058166012E0,7.265381795E-1,1.748709244E-1,1.295435400E0
6.169469292E0,-1.024758457E0,4.322700351E-1,2.295400518E-1,1.135638989E0
6.179493292E0,-1.237582781E0,2.889968795E-1,2.904721320E-1,1.303650412E0
6.189516292E0,-1.624589227E0,3.538401622E-1,2.634895706E-1,1.683425012E0
6.199540292E0,-1.989375670E0,3.320756561E-1,1.998461366E-1,2.026777806E0
6.209564292E0,-2.410952024E0,2.228771496E-1,8.764742374E-2,2.422817773E0
6.219588292E0,-2.688123495E0,3.006357622E-1,-1.288235164E-1,2.707948538E0
6.229612292E0,-2.968317684E0,6.259631467E-1,-3.386765778E-1,3.052448453E0
6.239636292E0,-3.131894419E0,1.111787830E0,-4.209433937E-1,3.349929577E0
6.249659292E0,-3.059635112E0,1.655840256E0,-6.312595546E-1,3.535769025E0
6.259683292E0,-3.068439557E0,2.264637147E0,-7.533003008E-1,3.887333799E0
6.269707292E0,-2.840078012E0,2.979291446E0,-8.380439973E-1,4.200540248E0
6.279731292E0,-2.025734241E0,4.069591343E0,-7.906277561E-1,4.614137532E0
6.289755292E0,-1.190421478E0,5.127136307E0,-5.870241988E-1,5.296152133E0
6.299779292E0,-6.364751248E-1,5.894493315E0,-3.268406439E-1,5.937758569E0
6.309802292E0,-1.032593434E-1,6.704937285E0,-5.167769194E-3,6.705734351E0
6.319826292E0,4.562697856E-1,7.360356950E0,3.733798027E-1,7.383931813E0
6.329850292E0,1.006067978E0,7.771455386E0,6.462050378E-1,7.862904842E0
6.339873667E0,1.593894854E0,8.063326757E0,7.725563514E-1,8.255578872E0
6.349897667E0,2.139119062E0,8.283894841E0,7.746145713E-1,8.590621155E0
6.359921667E0,2.625246339E0,8.435323693E0,7.014986479E-1,8.862206525E0
6.369944667E0,3.026046659E0,8.520892432E0,5.359639728E-1,9.058135768E0
6.379968667E0,3.378640487E0,8.588105006E0,3.918488181E-1,9.237115602E0
6.389992667E0,3.675336980E0,8.644293825E0,3.233323145E-1,9.398747865E0
6.400016667E0,3.963190144E0,8.654518266E0,3.727225757E-1,9.526094932E0
6.410040667E0,4.227209765E0,8.557155109E0,4.942148530E-1,9.557115374E0
6.420063667E0,4.419346055E0,7.941539195E0,6.460319602E-1,9.111312838E0
6.430087667E0,4.439378324E0,6.712078489E0,7.189584339E-1,8.079416982E0
6.440111667E0,4.395304059E0,5.555719088E0,7.985028592E-1,7.128977428E0
6.450135667E0,4.401929539E0,4.348770162E0,8.324002647E-1,6.243530715E0
6.460159667E0,4.540572577E0,2.817786672E0,8.728525452E-1,5.414664590E0
6.470183667E0,4.561559696E0,8.084553319E-1,1.038601155E0,4.747643546E0
6.480206667E0,4.422882744E0,-1.617381365E0,1.552662628E0,4.958686870E0
6.490230667E0,3.958637210E0,-4.538168494E0,2.719963338E0,6.607872759E0
6.500254667E0,3.210980934E0,-8.247711686E0,4.362074332E0,9.867260972E0
6.510278667E0,2.041120312E0,-1.243914322E1,5.989562609E0,1.395612111E1
6.520302667E0,1.040225512E0,-1.564383605E1,6.977469574E0,1.716090782E1
6.530326667E0,1.127680854E0,-1.697833790E1,6.171743138E0,1.810044296E1
6.540349667E0,2.816395911E0,-1.564512595E1,3.691604519E0,1.631961997E1
6.550373667E0,4.948655312E0,-1.232008923E1,1.369769908E0,1.334728652E1
6.560397667E0,6.376128468E0,-9.681079420E0,6.395579231E-1,1.160979532E1
6.570421667E0,6.724975108E0,-9.272708709E0,1.613677154E0,1.156772972E1
6.580445667E0,6.470007854E0,-1.036198184E1,2.297773318E0,1.243026272E1
6.590469667E0,6.113225958E0,-1.000028009E1,1.585451474E0,1.182754370E1
6.600492667E0,5.687508312E0,-9.091742647E0,-7.601544070E-1,1.075106366E1
6.610516667E0,5.044757810E0,-8.836073143E0,-2.030812256E0,1.037545027E1
6.620540667E0,4.328595514E0,-9.466785983E0,-1.852751091E0,1.057305361E1
6.630564667E0,2.538875070E0,-1.095157998E1,-7.677535216E-1,1.126820465E1
6.640588667E0,-6.282254344E-1,-1.241106489E1,5.423952522E-1,1.243878577E1
6.650612667E0,-3.177112399E0,-1.331592852E1,2.688956723E0,1.395128969E1
6.660635667E0,-3.793773503E0,-1.190561870E1,5.725241565E0,1.374463041E1
6.670659667E0,-3.991126971E0,-9.111856484E0,6.401325874E0,1.182928553E1
6.680683667E0,-5.373415768E0,-8.723629432E0,6.009053718E0,1.187788003E1
6.690707667E0,-6.253786590E0,-8.839237656E0,6.211494849E0,1.248297390E1
6.700731667E0,-7.441189443E0,-8.783925335E0,5.432729924E0,1.272961897E1
6.710755667E0,-8.464511824E0,-8.698574697E0,3.185363113E0,1.254829472E1
6.720778667E0,-8.725785300E0,-8.072753053E0,6.947606090E-1,1.190761787E1
6.730802667E0,-8.017826064E0,-6.372538862E0,-1.867512679E0,1.041068633E1
6.740826667E0,-6.254796404E0,-4.564261694E0,-3.770127947E0,8.612132582E0
6.750850667E0,-3.443736954E0,-2.850311809E0,-5.767168440E0,7.296837221E0
6.760874667E0,-1.821942404E0,-4.104782810E0,-7.699235841E0,8.913301778E0
6.770898667E0,-2.579355344E0,-7.042546161E0,-8.147530171E0,1.107396850E1
6.780921667E0,-3.006725412E0,-9.541501120E0,-7.637869313E0,1.258640890E1
6.790945667E0,-2.391957491E0,-1.088806635E1,-6.629936804E0,1.297025488E1
6.800969667E0,-1.437600387E0,-1.139027552E1,-5.689375913E0,1.281304295E1
6.810993667E0,-8.259178953E-1,-1.252898568E1,-5.517661901E0,1.371503611E1
6.821017667E0,-4.507552765E-1,-1.376928888E1,-4.887412745E0,1.461791025E1
6.831040667E0,-7.553297232E-1,-1.494205557E1,-2.868394908E0,1.523362193E1
6.841064667E0,-1.871211627E0,-1.639814441E1,-1.244459399E0,1.655141240E1
6.851088667E0,-2.198859187E0,-1.639262698E1,1.228046265E0,1.658497207E1
6.861112667E0,-2.302044271E0,-1.550073013E1,2.998862661E0,1.595510011E1
6.871136667E0,-2.717884653E0,-1.383398365E1,2.761603700E0,1.436636542E1
6.881160667E0,-2.531303510E0,-1.216180627E1,1.670113310E0,1.253420551E1
6.891183667E0,-2.279268050E0,-1.053261645E1,2.043641632E0,1.096847953E1
6.901207667E0,-2.000895854E0,-8.994484155E0,2.496393878E0,9.546534022E0
6.911231667E0,-1.781526303E0,-7.268126478E0,1.833421365E0,7.704604621E0
6.921255667E0,-1.792136076E0,-3.669185125E0,6.054674864E-1,4.128106354E0
6.931279667E0,-1.942969535E0,1.551921785E0,-5.040627337E-1,2.537256605E0
6.941303667E0,-2.323314249E0,5.829840066E0,-1.114664075E0,6.373954840E0
6.951326667E0,-3.069549651E0,8.644996660E0,-1.207017338E0,9.252837034E0
6.961350667E0,-3.992434701E0,1.035179482E1,-7.495393717E-1,1.112029676E1
6.971374667E0,-4.471353238E0,1.120005390E1,-2.055816704E-1,1.206136273E1
6.981398667E0,-4.789033049E0,1.184480298E1,7.748025776E-2,1.277654877E1
6.991422667E0,-5.330694841E0,1.262450931E1,3.710028730E-1,1.370883605E1
7.001446667E0,-6.233734733E0,1.333910806E1,2.173035836E-1,1.472543627E1
7.011469667E0,-7.336514343E0,1.386837229E1,-3.659900916E-1,1.569363379E1
7.021493667E0,-8.151717947E0,1.406976677E1,-7.579377276E-1,1.627830802E1
7.031517667E0,-8.037531180E0,1.352854381E1,-8.712573516E-1,1.576015528E1
7.041541667E0,-6.498670321E0,1.283887642E1,-1.154402338E0,1.443613897E1
7.051565667E0,-4.677242764E0,1.287906316E1,-1.450488966E0,1.377863513E1
7.061589667E0,-3.545711811E0,1.313917772E1,-1.417392556E0,1.368280180E1
7.071612667E0,-3.074402840E0,1.331321659E1,-1.644307793E0,1.376217413E1
7.081636667E0,-2.700813415E0,1.324680157E1,-1.203040720E0,1.357274666E1
7.091660667E0,-2.347989206E0,1.293148462E1,-4.813199884E-1,1.315173056E1
7.101684667E0,-2.279598126E0,1.248120692E1,5.629553050E-1,1.270015797E1
7.111708667E0,-2.403506180E0,1.223925732E1,1.336426746E0,1.254441302E1
7.121732667E0,-2.842963613E0,1.243983202E1,1.060207202E0,1.280452662E1
7.131755667E0,-3.781204913E0,1.332664647E1,2.300429124E0,1.404239976E1
7.141779667E0,-4.796961289E0,1.500859455E1,3.673928386E0,1.617919954E1
7.151803667E0,-5.196884819E0,1.618077417E1,3.871781791E0,1.743031150E1
7.161827667E0,-5.459527713E0,1.608631474E1,3.237057177E0,1.729319242E1
7.171851667E0,-5.497471465E0,1.488430262E1,2.873103086E0,1.612511638E1
7.181875667E0,-5.583609138E0,1.216663373E1,3.416996760E0,1.381591597E1
7.191898667E0,-5.087566445E0,1.024037846E1,4.154027183E0,1.216571515E1
7.201922667E0,-3.923653611E0,9.702826969E0,4.295677152E0,1.131338813E1
7.211946667E0,-3.013818669E0,9.365732648E0,4.328755143E0,1.074886841E1
7.221970667E0,-2.145847161E0,9.144176969E0,3.856740414E0,1.015357470E1
7.231994667E0,-1.380570593E0,8.866535967E0,2.853930066E0,9.416281221E0
7.242018667E0,-8.119191494E-1,8.363981815E0,2.010976161E0,8.640568825E0
7.252041667E0,-9.988330722E-2,7.700976557E0,1.508712031E0,7.848007938E0
7.262065667E0,8.199894033E-1,6.618794934E0,1.238191184E0,6.783358048E0
7.272089667E0,2.153681260E0,4.663422285E0,1.120452819E0,5.257496068E0
7.282113667E0,3.368373361E0,3.282001800E0,1.496855047E0,4.935387518E0
7.292137667E0,3.772392574E0,3.644436200E0,2.128163719E0,5.660560198E0
7.302161667E0,3.279901188E0,5.413385580E0,3.403613361E0,7.186590231E0
7.312184667E0,2.837766023E0,7.713300149E0,4.783585491E0,9.509500793E0
7.322208667E0,2.532856823E0,9.140009074E0,5.472623137E0,1.095010199E1
7.332232667E0,2.150000145E0,1.001149271E1,5.607444143E0,1.167458422E1
7.342257208E0,1.718432069E0,1.076500000E1,5.358705928E0,1.214717922E1
7.352281208E0,1.186517366E0,1.111301225E1,4.820038787E0,1.217126282E1
7.362305208E0,6.832667372E-1,1.094832191E1,4.385411155E0,1.181373933E1
7.372328208E0,2.525546195E-1,1.053024833E1,4.430662757E0,1.142719065E1
7.382352208E0,-1.567424362E-1,9.967049196E0,4.738825055E0,1.103735026E1
7.392376208E0,-2.597647481E-1,9.260245954E0,4.808267173E0,1.043738789E1
7.402400208E0,-1.108072948E-1,8.549676520E0,4.551445182E0,9.686325418E0
7.412424208E0,-5.511296768E-2,8.000649868E0,4.180503083E0,9.027183491E0
7.422448208E0,2.347956754E-2,7.356360378E0,3.671150374E0,8.221553038E0
7.432471208E0,1.162505409E-1,6.048294382E0,2.823683004E0,6.675969205E0
7.442495208E0,3.900010248E-1,3.243404329E0,1.185023037E0,3.475061444E0
7.452519208E0,8.511105508E-1,-3.133631042E0,-1.737405406E0,3.682744930E0
7.462543208E0,4.179642373E-1,-2.092523185E1,-6.781655678E0,2.200070171E1
7.472567208E0,-2.723575456E0,-5.243271249E1,-1.025518946E1,5.349557097E1
7.482591208E0,3.271104929E-1,-6.889225033E1,4.580162905E0,6.904510880E1
7.492614208E0,2.431901867E0,-5.725399439E1,1.379041253E0,5.732221014E1
7.502638208E0,-1.451422533E1,-2.803677691E1,-2.724526739E1,4.170165694E1
7.512662208E0,-1.264334787E1,-1.461226676E1,-3.009051084E1,3.576047298E1
7.522686208E0,-4.322298648E0,-4.792104884E0,-2.104053894E1,2.200797160E1
7.532710208E0,-6.753121850E-1,-2.687121867E0,-9.500640192E0,9.896405132E0
7.542734208E0,-3.376807970E0,-5.530838601E0,-4.475014764E0,7.875199352E0
7.552757208E0,-4.644492509E0,-8.258656504E0,-4.965549088E0,1.069735461E1
7.562781208E0,-2.904469597E0,-8.513919042E0,-4.584783082E0,1.009668248E1
7.572805208E0,-1.860925498E0,-9.213126751E0,-3.016738476E0,9.871446666E0
7.582829208E0,-6.436392065E-1,-8.768943014E0,-1.436144869E0,8.909048496E0
7.592853208E0,1.021844789E-1,-7.383153489E0,3.530045950E-1,7.392293917E0
7.602877208E0,-1.738631567E-1,-5.483294891E0,1.603072351E0,5.715469553E0
7.612900208E0,-9.056506741E-1,-4.406927154E0,1.918697158E0,4.891074408E0
7.622924208E0,-1.202259313E0,-4.230902574E0,1.660578840E0,4.701434476E0
7.632948208E0,-2.846341257E-1,-3.640654805E0,1.243434967E0,3.857656609E0
7.642972208E0,5.112662841E-1,-2.612383341E0,7.983741474E-1,2.779089997E0
7.652996208E0,9.993233612E-1,-1.710805253E0,2.627396652E-1,1.998633014E0
7.663020208E0,1.128504946E0,-9.484248108E-1,-1.302370808E-1,1.479863079E0
7.673043208E0,1.263158064E0,-7.247916162E-2,-2.744919840E-1,1.294668827E0
7.683067208E0,1.429721410E0,7.244963318E-1,-2.849710715E-1,1.627945563E0
7.693091208E0,1.437370592E0,1.611373351E0,-2.872590870E-1,2.178319553E0
7.703115208E0,1.333152890E0,2.535190154E0,-4.560977313E-1,2.900432879E0
7.713139208E0,1.210079013E0,3.600983201E0,-6.482843077E-1,3.853783048E0
7.723163208E0,1.081360966E0,4.759858074E0,-6.737571180E-1,4.927427227E0
7.733186208E0,8.278906728E-1,5.669672551E0,-6.942321669E-1,5.771702357E0
7.743210208E0,4.649633528E-1,6.326474497E0,-6.108632970E-1,6.372881958E0
7.753234208E0,7.637874283E-2,6.855049928E0,-6.713714540E-1,6.888271399E0
7.763258208E0,-2.701449811E-1,7.250446837E0,-7.610291505E-1,7.295280873E0
7.773282208E0,-5.111850809E-1,7.393900087E0,-7.227531306E-1,7.446706706E0
7.783306208E0,-6.363885129E-1,7.231862631E0,-4.380079079E-1,7.273010270E0
7.793329208E0,-6.758567069E-1,6.688194952E0,-1.465082739E-1,6.723852964E0
7.803353208E0,-8.425563667E-1,6.043248235E0,-6.829694062E-3,6.101704443E0
7.813377208E0,-1.085560363E0,5.438230984E0,2.708208096E-1,5.552129452E0
7.823401208E0,-1.210623535E0,4.936273833E0,-9.399866939E-2,5.083428415E0
7.833425208E0,-1.222635690E0,4.278134628E0,-3.555025256E-1,4.463592272E0
7.843449208E0,-1.217286145E0,3.620471971E0,-1.194037981E-1,3.821499721E0
7.853472208E0,-1.233762064E0,2.904128997E0,1.513845594E-1,3.158963651E0
7.863496208E0,-1.218849472E0,2.116849941E0,4.419970246E-1,2.482339436E0
7.873520208E0,-1.178829593E0,1.364475839E0,5.512942028E-1,1.885565916E0
7.883544208E0,-1.141661255E0,5.789795995E-1,4.298298459E-1,1.350319034E0
7.893568208E0,-1.114802216E0,-1.708755219E-1,2.752204008E-1,1.160917178E0
7.903592208E0,-1.091212648E0,-8.648306769E-1,2.351843691E-1,1.412086693E0
7.913615208E0,-1.114939552E0,-1.417625275E0,2.356639870E-1,1.818870293E0
7.923639208E0,-1.195892864E0,-1.779657971E0,1.930085488E-1,2.152810846E0
7.933663208E0,-1.292954451E0,-1.988005375E0,1.439011467E-1,2.375837562E0
7.943687208E0,-1.381529828E0,-2.045974086E0,9.868813634E-2,2.470703134E0
7.953711208E0,-1.349641892E0,-1.925154823E0,5.421172902E-2,2.351742596E0
7.963735208E0,-1.240527293E0,-1.740832459E0,5.174186513E-2,2.138242932E0
7.973758208E0,-1.169281236E0,-1.600225634E0,-1.193640371E-1,1.985494513E0
7.983782208E0,-9.855613545E-1,-1.311064448E0,-2.263926418E-1,1.655739955E0
7.993806208E0,-8.119347907E-1,-9.483932358E-1,-3.128260374E-1,1.287069526E0
8.003830208E0,-7.158097082E-1,-3.973241508E-1,-5.760688555E-1,1.001052119E0
8.013854208E0,-9.638380712E-1,1.006890535E-2,-1.121995241E0,1.479174950E0
8.023878208E0,-1.141443446E0,2.580025434E-1,-1.571409971E0,1.959282457E0
8.033901208E0,-1.332686428E0,4.614300996E-1,-1.497653046E0,2.057166862E0
8.043925208E0,-1.927823200E0,4.749441844E-1,-7.782432803E-1,2.132542349E0
8.053949208E0,-2.169182229E0,5.873183137E-1,-4.738828417E-1,2.296706183E0
8.063973208E0,-1.674529858E0,7.873503917E-1,-1.349775062E0,2.290385034E0
8.073997208E0,-1.311157565E0,7.830176049E-1,-2.043351610E0,2.550987364E0
8.084021208E0,-9.371654854E-1,8.343415403E-1,-2.273700478E0,2.596944130E0
8.094044208E0,-1.144617095E0,7.042199421E-1,-1.788003848E0,2.236745802E0
8.104068208E0,-1.806347587E0,3.991660237E-1,-1.399358135E0,2.319575028E0
8.114092208E0,-2.424869275E0,2.541585839E-1,-8.899777973E-1,2.595505358E0
8.124116208E0,-2.951744920E0,1.539922714E-1,-5.199427481E-1,3.001141809E0
8.134140208E0,-3.382045029E0,-6.612791598E-2,-3.738883643E-1,3.403291640E0
8.144164208E0,-3.669912226E0,-3.033307439E-1,-3.030880845E-1,3.694878574E0
8.154187208E0,-3.978906291E0,-6.246761745E-1,-3.192052035E-1,4.040273203E0
8.164211208E0,-3.970809066E0,-8.678297138E-1,-6.307857840E-1,4.113191432E0
8.174235208E0,-3.709681771E0,-1.194464536E0,-9.005214965E-1,3.999927916E0
8.184259208E0,-3.561634071E0,-1.532354078E0,-6.645452683E-1,3.933823419E0
8.194283208E0,-3.762364014E0,-1.867574952E0,-8.144703627E-2,4.201172788E0
8.204307208E0,-4.016403607E0,-2.138048437E0,5.518436949E-1,4.583369996E0
8.214330208E0,-4.120609176E0,-2.186452857E0,1.290063880E0,4.839861661E0
8.224354208E0,-4.292828681E0,-2.376604310E0,1.512292428E0,5.134554948E0
8.234378208E0,-4.262165005E0,-2.287881584E0,1.900257525E0,5.197252287E0
8.244402208E0,-3.779276501E0,-2.137804608E0,2.339540272E0,4.932199114E0
8.254426208E0,-3.419606665E0,-2.131404830E0,2.685272977E0,4.842239901E0
8.264450208E0,-3.245111716E0,-2.222651215E0,2.994112675E0,4.943241769E0
8.274473208E0,-3.307210024E0,-2.331588936E0,2.926034421E0,4.993558104E0
8.284497208E0,-3.500169602E0,-2.879045611E0,2.709898234E0,5.280496124E0
8.294521208E0,-3.372555290E0,-3.338995196E0,2.504338198E0,5.366071925E0
8.304545208E0,-2.821425686E0,-3.335227835E0,2.076973392E0,4.837148549E0
8.314569208E0,-2.011239725E0,-3.157026336E0,1.762690813E0,4.137508842E0
8.324593208E0,-1.044817330E0,-2.961035269E0,1.561511804E0,3.506806557E0
8.334616208E0,-9.668663442E-3,-2.711987736E0,1.397497112E0,3.050896449E0
8.344639667E0,7.903196079E-1,-3.031388383E0,1.317789038E0,3.398600971E0
8.354663667E0,1.807915810E0,-3.007704821E0,1.350291956E0,3.760071307E0
8.364687667E0,3.311921710E0,-2.866389897E0,9.148025899E-1,4.474581571E0
8.374711667E0,4.921550544E0,-3.356193026E0,-3.537711650E-3,5.956987821E0
8.384735667E0,6.039668570E0,-3.162966523E0,3.983732875E-1,6.829396381E0
8.394758667E0,6.555803465E0,-3.090987298E0,7.103186611E-1,7.282672184E0
8.404782667E0,7.028965418E0,-3.208016396E0,1.753978316E-1,7.728420824E0
8.414806667E0,7.421298970E0,-3.397963781E0,-1.509797128E-1,8.163616302E0
8.424830667E0,7.906304458E0,-3.271506048E0,-8.838424601E-2,8.556881078E0
8.434854667E0,8.036878631E0,-3.301906891E0,1.980007553E-1,8.690984498E0
8.444878667E0,8.386259707E0,-3.141752824E0,2.787999566E-1,8.959781922E0
8.454901667E0,8.849959111E0,-2.582170193E0,3.315699084E-1,9.224929147E0
8.464925667E0,9.285933357E0,-1.903128946E0,4.607850786E-1,9.490141252E0
8.474949667E0,9.621398059E0,-9.399638897E-1,6.845802411E-1,9.691412840E0
8.484973667E0,9.797809725E0,-5.159583092E-2,9.459531196E-1,9.843503687E0
8.494997667E0,9.920308893E0,7.508356994E-1,9.884355533E-1,9.997664108E0
8.505021667E0,9.983554716E0,1.486017818E0,9.199154683E-1,1.013537657E1
8.515045667E0,9.980217125E0,2.056993749E0,9.105341955E-1,1.023059283E1
8.525068667E0,9.989766798E0,2.524474547E0,8.761245739E-1,1.034098674E1
8.535092667E0,1.008324273E1,3.012141688E0,8.029584376E-1,1.055412354E1
8.545116667E0,1.027756324E1,3.659550083E0,5.656491903E-1,1.092431106E1
8.555140667E0,1.036195377E1,4.092665040E0,4.375016852E-1,1.114950227E1
8.565164667E0,1.033349654E1,4.269315857E0,3.311805204E-1,1.118561081E1
8.575188667E0,1.018126779E1,4.274160275E0,6.740085483E-2,1.104224627E1
8.585211667E0,1.007738616E1,4.282570326E0,-2.200646389E-1,1.095182856E1
8.595235667E0,9.917877620E0,4.379455181E0,-4.497491169E-1,1.085109204E1
8.605259667E0,9.644119170E0,4.591823714E0,-6.180248205E-1,1.069933803E1
8.615283667E0,9.319956551E0,4.808640225E0,-7.196157340E-1,1.051201492E1
8.625307667E0,9.031236829E0,5.000580926E0,-7.608045443E-1,1.035122562E1
8.635331667E0,8.775353901E0,5.122535133E0,-7.858178365E-1,1.019140383E1
8.645354667E0,8.607577989E0,5.077665939E0,-8.021643126E-1,1.002579462E1
8.655378667E0,8.468747547E0,4.517604421E0,-8.558791745E-1,9.636439378E0
8.665402667E0,8.471476443E0,3.164068723E0,-1.015437995E0,9.099909798E0
8.675426667E0,8.889369344E0,1.481582120E0,-1.266701623E0,9.100577230E0
8.685450667E0,9.063533340E0,-1.315038800E-2,-1.510376734E0,9.188528033E0
8.695474667E0,9.135988528E0,-1.676613659E0,-1.574079224E0,9.420989606E0
8.705497667E0,9.152024517E0,-3.554083854E0,-1.679694557E0,9.960544092E0
8.715521667E0,9.109281955E0,-5.613428768E0,-1.935410985E0,1.087361099E1
8.725545667E0,8.939110438E0,-7.595162419E0,-2.339172190E0,1.196101643E1
8.735569667E0,8.637951935E0,-9.540390149E0,-2.613575588E0,1.313255631E1
8.745593667E0,8.098576697E0,-1.138701160E1,-3.514329512E0,1.440838262E1
8.755617667E0,7.365251654E0,-1.348901546E1,-4.263327431E0,1.594918277E1
8.765640667E0,5.568521567E0,-1.473584649E1,-5.472009180E0,1.667622526E1
8.775664667E0,-1.322686724E1,-1.969724406E1,-4.156066692E0,2.408743097E1
8.785688667E0,-1.683427186E1,-1.431275015E1,-1.136107803E1,2.484595782E1
8.795712667E0,-3.309700060E0,-1.577821326E1,-1.156866471E1,1.984288616E1
8.805736667E0,-4.456059845E0,-1.890944869E1,-4.395014037E0,1.991832994E1
8.815760667E0,2.046785679E-1,-1.655395166E1,-3.218469463E0,1.686516394E1
8.825783667E0,5.395786046E0,-1.076873053E1,5.341397000E0,1.317613700E1
8.835807667E0,-1.223066776E0,-9.716638677E0,1.260390957E1,1.596143778E1
8.845831667E0,-1.763260741E1,-1.006816159E1,2.179758965E1,2.978945512E1
8.855855667E0,-3.236962452E1,-6.631118526E0,3.124164750E1,4.547312243E1
8.865879667E0,-1.806892080E1,-8.106016109E0,1.999119996E1,2.813967789E1
8.875903667E0,5.257876541E0,-1.265395705E1,7.010781162E0,1.539217163E1
8.885926667E0,4.419674084E0,-1.818940151E1,-1.390953786E1,2.332087240E1
8.895950667E0,-3.935250978E0,-1.706043280E1,-8.225692241E0,1.934441988E1
8.905974667E0,-8.194164054E0,-1.146034387E1,5.756274492E0,1.521901778E1
8.915998667E0,-8.673156266E0,-1.529073206E1,9.348836533E0,1.991057184E1
8.926022667E0,-8.508195788E0,-1.850648315E1,1.058417720E1,2.295439220E1
8.936046667E0,-6.457888915E0,-1.668348620E1,5.523982741E0,1.872317885E1
8.946069667E0,-3.951715861E0,-1.404295261E1,3.336192040E0,1.496498425E1
8.956093667E0,-3.009925008E0,-1.249387198E1,3.678270528E0,1.336735426E1
8.966117667E0,-2.762129949E0,-1.057273420E1,4.595482317E0,1.185455727E1
8.976141667E0,-2.122205991E0,-9.435706862E0,4.972803143E0,1.087497556E1
8.986165667E0,-1.555101794E0,-8.674163157E0,4.035869865E0,9.692661844E0
8.996189667E0,-1.489474107E0,-8.956650916E0,4.293838495E0,1.004376313E1
9.006212667E0,-1.230025255E0,-9.208199303E0,3.116074484E0,9.798664027E0
9.016236667E0,-1.390187801E0,-1.045907719E1,1.456108433E0,1.065106425E1
9.026260667E0,-2.606223884E0,-1.141416139E1,7.293723249E-1,1.173062092E1
9.036284667E0,-5.525580785E0,-1.184950063E1,1.089891908E0,1.311985414E1
9.046308667E0,-9.230835044E0,-1.151555094E1,1.991800071E0,1.489239728E1
9.056332667E0,-1.265393600E1,-1.055505690E1,3.183420668E0,1.678289277E1
9.066355667E0,-1.451220219E1,-9.069534922E0,4.559546499E0,1.771016489E1
9.076379667E0,-1.390238437E1,-6.877483941E0,4.810865675E0,1.623947367E1
9.086403667E0,-1.131744962E1,-4.501220523E0,3.818473896E0,1.276426241E1
9.096427667E0,-8.946680244E0,-2.888962489E0,2.567618812E0,9.745863636E0
9.106451667E0,-7.452406742E0,-1.279248578E0,1.756263846E0,7.762686769E0
9.116475667E0,-6.214149485E0,8.857262868E-1,1.446914563E0,6.441562437E0
9.126498667E0,-5.110126172E0,3.127515439E0,1.230676342E0,6.116314787E0
9.136522667E0,-4.067083764E0,5.236873342E0,1.173280073E0,6.733691327E0
9.146546667E0,-3.722577220E0,7.116371936E0,8.205070281E-1,8.073014460E0
9.156570667E0,-3.934290866E0,8.678107688E0,2.473021754E-1,9.531492854E0
9.166594667E0,-4.222778453E0,9.760942445E0,4.726775844E-2,1.063532273E1
9.176618667E0,-4.729113999E0,1.074770745E1,2.357819728E-1,1.174450202E1
9.186642667E0,-5.352654060E0,1.166418600E1,2.210504794E-1,1.283561466E1
9.196665667E0,-5.763145555E0,1.284295544E1,4.217596650E-2,1.407682954E1
9.206689667E0,-6.637883170E0,1.364999984E1,-9.251944077E-1,1.520657664E1
9.216713667E0,-7.514442192E0,1.348594334E1,-2.683883679E0,1.566973965E1
9.226737667E0,-7.440169104E0,1.263050036E1,-3.627755848E0,1.510120089E1
9.236761667E0,-6.511937068E0,1.178155716E1,-2.758850831E0,1.374123980E1
9.246785667E0,-6.625339723E0,1.094234372E1,-3.141506656E0,1.317190482E1
9.256808667E0,-8.248054333E0,9.619004794E0,-3.029711401E0,1.302823106E1
9.266832667E0,-1.092999440E1,8.700710685E0,-1.410403379E0,1.404123861E1
9.276856667E0,-1.187120901E1,1.007930872E1,1.226433018E0,1.562121012E1
9.286880667E0,-8.618562568E0,1.392621412E1,3.244699488E0,1.669572206E1
9.296904667E0,-6.701276928E0,1.540942819E1,-5.337653466E-1,1.681197476E1
9.306928667E0,-6.846725832E0,1.388658403E1,-4.577027335E0,1.614509368E1
9.316951667E0,-6.072894788E0,1.356545261E1,-6.578004173E0,1.625335948E1
9.326975667E0,-5.091568279E0,1.523435788E1,-9.165016446E0,1.849343813E1
9.336999792E0,-4.141927832E0,1.610662095E1,-1.313515367E1,2.119224072E1
9.347023792E0,-2.521077315E0,1.456031308E1,-1.666010786E1,2.226921062E1
9.357047792E0,2.220828053E-1,1.283518566E1,-1.380220520E1,1.884919574E1
9.367071792E0,6.106406642E-1,1.081374123E1,-8.044522696E0,1.349163543E1
9.377094792E0,-1.994039409E0,8.569706742E0,-4.442009863E0,9.856344071E0
9.387118792E0,-3.638184357E0,7.118509094E0,-2.500762333E0,8.376357763E0
9.397142792E0,-3.804961565E0,6.788953003E0,-1.434193361E0,7.913565946E0
9.407166792E0,-3.276657152E0,7.093774787E0,-4.133846980E-1,7.824896787E0
9.417190792E0,-2.345318344E0,8.158504810E0,6.419348162E-1,8.513154479E0
9.427214792E0,-1.646779996E0,9.648863016E0,1.269376431E0,9.870347429E0
9.437238792E0,-1.507501219E0,1.085682468E1,2.091738927E0,1.115878908E1
9.447261792E0,-1.650742946E0,1.190086725E1,3.058743704E0,1.239804447E1
9.457285792E0,-1.964231911E0,1.285044923E1,2.763534451E0,1.329019846E1
9.467309792E0,-2.253001188E0,1.343815989E1,1.922582633E0,1.376068601E1
9.477333792E0,-2.244790966E0,1.375166537E1,1.301142161E0,1.399429734E1
9.487357792E0,-1.994279729E0,1.395414860E1,9.682878023E-1,1.412915412E1
9.497381792E0,-1.877509225E0,1.397269363E1,4.384990374E-1,1.410508737E1
9.507404792E0,-1.928212771E0,1.377092376E1,-5.825925940E-1,1.391746241E1
9.517428792E0,-1.959984786E0,1.340772162E1,-1.644693124E0,1.364967234E1
9.527452792E0,-1.972311448E0,1.300157403E1,-2.360368931E0,1.336047458E1
9.537476792E0,-1.781395764E0,1.232227726E1,-2.365946006E0,1.267318382E1
9.547500792E0,-1.730262740E0,1.132395055E1,-1.838632404E0,1.160199269E1
9.557524792E0,-1.728526848E0,1.039300131E1,-8.099083650E-1,1.056684593E1
9.567547792E0,-1.605789113E0,9.649014459E0,3.150691024E-1,9.786792490E0
9.577571792E0,-1.238530322E0,9.073032142E0,1.125217203E0,9.226049174E0
9.587595792E0,-9.502840792E-1,8.493615755E0,1.481496312E0,8.674063624E0
9.597619792E0,-7.767371106E-1,7.878830146E0,1.614215244E0,8.079911872E0
9.607643792E0,-7.694877326E-1,7.158239754E0,1.650977712E0,7.386354660E0
9.617667792E0,-9.612242197E-1,5.839833543E0,1.458206706E0,6.095406025E0
9.627690792E0,-2.041725499E0,2.351310425E0,6.231309016E-1,3.175782714E0
9.637714792E0,-4.635551824E0,-6.390452977E0,-1.170642833E0,7.981017141E0
9.647738792E0,-9.088105679E0,-3.402686109E1,2.991084695E-1,3.522088026E1
9.657762792E0,-1.287098582E1,-6.921564345E1,8.295363716E-1,7.040707142E1
9.667786792E0,-9.363517722E-1,-6.770128944E1,2.246766010E0,6.774503159E1
9.677810792E0,8.786328540E0,-5.205238152E1,-4.677470806E0,5.299555381E1
9.687834792E0,8.429576465E0,-2.912708616E1,-1.016258710E1,3.198004197E1
9.697857792E0,6.796055616E0,-5.656820371E0,3.560571340E-1,8.849450001E0
9.707881792E0,4.690317723E0,-3.509235125E0,7.847390252E-1,5.910129173E0
9.717905792E0,1.223673717E0,-8.245145928E0,-1.551571245E0,8.478630907E0
9.727929792E0,-1.000560047E0,-1.157663798E1,-2.850158319E0,1.196424129E1
9.737953792E0,-2.607355613E0,-1.210699447E1,-2.823849942E0,1.270243075E1
9.747977792E0,-3.935800324E0,-9.237651728E0,-1.956729495E0,1.023003050E1
9.758000792E0,-3.879382002E0,-6.161599388E0,-6.177802607E-1,7.307295272E0
9.768024792E0,-2.989369707E0,-4.702671720E0,2.453339660E-1,5.577781038E0
9.778048792E0,-1.920732866E0,-4.398545170E0,1.173793459E-1,4.801061577E0
9.788072792E0,-4.445826633E-1,-4.695435791E0,-9.153962284E-1,4.804448071E0
9.798096792E0,8.774961846E-1,-4.964499512E0,-2.722996874E0,5.729831318E0
9.808120792E0,1.560373205E0,-4.781990370E0,-4.481042951E0,6.736612084E0
9.818143792E0,2.021561083E0,-4.265068440E0,-5.801373482E0,7.478867046E0
9.828167792E0,2.358176664E0,-4.067385188E0,-6.430193578E0,7.965676927E0
9.838191792E0,2.387665488E0,-3.992988140E0,-5.788248821E0,7.426218768E0
9.848215792E0,1.613742496E0,-4.003938221E0,-4.594507294E0,6.304378113E0
9.858239792E0,1.159703570E0,-3.936540874E0,-3.094567840E0,5.139807053E0
9.868263792E0,8.153404284E-1,-4.119604917E0,-1.301350761E0,4.396525730E0
9.878286792E0,7.297439155E-1,-3.797904561E0,-9.587474853E-2,3.868565264E0
9.888310792E0,9.498256575E-1,-2.777549642E0,8.998046279E-2,2.936843080E0
9.898334792E0,1.249642809E0,-1.756583689E0,5.371828249E-1,2.221656768E0
9.908358792E0,1.493881738E0,-3.498389125E-1,9.008813927E-1,1.779229383E0
9.918382792E0,1.553707671E0,8.827950776E-1,9.186958122E-1,2.009312487E0
9.928406792E0,1.436860714E0,1.649632852E0,7.267179814E-1,2.305206343E0
9.938430792E0,1.240028818E0,1.939044884E0,4.037575498E-1,2.336789826E0
9.948453792E0,1.056587922E0,1.965868401E0,1.938844617E-1,2.240224942E0
9.958477792E0,1.008585205E0,2.207945468E0,2.311863354E-1,2.438383568E0
9.968501792E0,1.036847575E0,2.735476002E0,4.199155994E-1,2.955369852E0
9.978525792E0,1.055760833E0,3.424211932E0,6.255690444E-1,3.637470951E0
9.988549792E0,1.024043050E0,4.135502327E0,7.844704919E-1,4.332024656E0
9.998573792E0,9.615491056E-1,4.762603927E0,8.840487937E-1,4.938472954E0
1.000859679E1,8.877713504E-1,5.279404820E0,9.440365485E-1,5.436125295E0
1.001862079E1,7.808604209E-1,5.674643853E0,9.616764287E-1,5.808282656E0
1.002864479E1,6.049879416E-1,5.913635929E0,8.843047556E-1,6.009916407E0
1.003866879E1,3.776680776E-1,5.982650031E0,6.925290191E-1,6.034428806E0
1.004869279E1,9.113850385E-2,5.832631527E0,4.240143879E-1,5.848733620E0
1.005871679E1,-2.048919182E-1,5.483852130E0,9.660184979E-2,5.488528655E0
1.006873979E1,-4.853616569E-1,5.034194230E0,-2.428500688E-1,5.063364853E0
1.007876379E1,-7.218171376E-1,4.626564361E0,-5.170353663E-1,4.710991758E0
1.008878779E1,-9.131180070E-1,4.164200462E0,-6.962442669E-1,4.319618740E0
1.009881179E1,-1.110083367E0,3.656466846E0,-7.508152342E-1,3.894323868E0
1.010883579E1,-1.377428591E0,3.079140254E0,-6.986896455E-1,3.444790480E0
1.011885979E1,-1.745407028E0,2.443014062E0,-5.933754444E-1,3.060532277E0
1.012888279E1,-2.225162740E0,1.701685935E0,-3.777622908E-1,2.826621409E0
1.013890679E1,-2.827707935E0,1.005697119E0,-2.184817976E-1,3.009168183E0
1.014893079E1,-3.533967678E0,5.859553277E-1,-8.448875785E-2,3.583212183E0
1.015895479E1,-4.144164392E0,7.906546533E-2,1.314612228E-1,4.147002762E0
1.016897879E1,-4.564965699E0,-1.975499350E-1,1.618906903E-1,4.572105248E0
1.017900279E1,-4.250954431E0,-1.244299185E-1,-1.318377378E-1,4.254818159E0
1.018902679E1,-3.239224740E0,4.287412405E-2,-5.446757394E-1,3.284978960E0
1.019904979E1,-2.460139972E0,-6.629923940E-2,-8.083600223E-1,2.590391900E0
1.020907379E1,-1.966150237E0,-4.376488888E-1,-7.154857725E-1,2.137569459E0
1.021909779E1,-1.507732330E0,-7.515005279E-1,-5.344974546E-1,1.767398470E0
1.022912179E1,-9.892369142E-1,-7.372871161E-1,-3.737914467E-1,1.289147784E0
1.023914579E1,-4.854874086E-1,-5.151128018E-1,-2.087069706E-1,7.379687135E-1
1.024916979E1,-8.108370490E-2,-3.511475194E-1,-9.903429151E-2,3.737471584E-1
1.025919279E1,2.790116258E-1,-6.012282550E-2,1.353384658E-1,3.158777324E-1
1.026921679E1,5.272584189E-1,1.668327570E-1,3.013239795E-1,6.297862730E-1
1.027924079E1,4.705067690E-1,-2.886665118E-1,2.628288170E-1,6.113787384E-1
1.028926479E1,3.711901666E-1,-5.076289505E-1,4.538205332E-1,7.755142600E-1
1.029928879E1,3.205790434E-1,-3.729436004E-1,5.616010898E-1,7.464942305E-1
1.030931279E1,1.437551855E-1,-2.329255897E-1,2.195056450E-1,3.508598180E-1
1.031933579E1,1.412330621E-1,7.055074990E-2,1.388631856E-1,2.102550130E-1
1.032935979E1,3.876910457E-1,3.837732285E-1,2.524090970E-1,6.010795206E-1
1.033938396E1,4.100641008E-1,7.027464437E-1,-2.298224723E-1,8.454723530E-1
1.034940796E1,2.847353921E-1,7.664962971E-1,-6.743242979E-1,1.059860404E0
1.035943196E1,3.100834009E-1,9.389610922E-1,-7.671412450E-1,1.251521210E0
1.036945596E1,3.460892393E-1,9.907978284E-1,-5.138825476E-1,1.168560384E0
1.037947996E1,3.465967410E-1,7.090421408E-1,-2.195220172E-1,8.191825037E-1
1.038950296E1,3.355952413E-1,1.972037798E-1,-2.786613411E-1,4.787124813E-1
1.039952696E1,3.059701771E-1,-1.567018712E-1,-4.458595490E-1,5.629955268E-1
1.040955096E1,3.108878316E-1,-2.941780972E-1,-6.021679026E-1,7.387815507E-1
1.041957496E1,3.426232656E-1,-4.774216497E-1,-7.067155337E-1,9.191131483E-1
1.042959896E1,3.471543461E-1,-7.726323652E-1,-7.168622071E-1,1.109670373E0
1.043962296E1,3.061132146E-1,-1.097824094E0,-6.510266519E-1,1.312539045E0
1.044964596E1,2.677020144E-1,-1.289590548E0,-5.912306857E-1,1.443697293E0
1.045966996E1,3.047850926E-1,-1.082995555E0,-5.424864688E-1,1.249025578E0
1.046969396E1,3.929069814E-1,-4.264450389E-1,-5.437969760E-1,7.949505760E-1
1.047971796E1,4.251387344E-1,2.727848893E-1,-7.179217225E-1,8.778189671E-1
1.048974196E1,5.070918472E-1,9.165510535E-1,-7.721570597E-1,1.301320291E0
1.049976596E1,4.938484154E-1,1.063637763E0,-7.613274316E-1,1.398152712E0
1.050978896E1,4.633201755E-1,8.282370472E-1,-9.658096793E-1,1.354042292E0
1.051981296E1,4.628348201E-1,4.595771170E-1,-9.865462448E-1,1.182666771E0
1.052983696E1,4.811102195E-1,9.288886786E-2,-1.026974479E0,1.137880470E0
1.053986096E1,4.257347484E-1,-2.239910442E-1,-9.676597383E-1,1.080642139E0
1.054988496E1,2.924588697E-1,-4.232226384E-1,-8.689248973E-1,1.009792092E0
1.055990896E1,1.547103095E-1,-4.030585152E-1,-8.464780942E-1,9.502192434E-1
1.056993296E1,4.325594723E-2,-2.230496424E-1,-7.985138959E-1,8.302088062E-1
1.057995596E1,-6.111129731E-2,-6.184249163E-2,-7.386161151E-1,7.437155706E-1
1.058997996E1,-1.513850711E-1,9.124053776E-2,-6.212953875E-1,6.459490955E-1
1.060000396E1,-2.481109549E-1,2.772422218E-1,-4.965361246E-1,6.204598444E-1
1.061002796E1,-3.669515931E-1,5.441108984E-1,-5.045813817E-1,8.278360418E-1
1.062005196E1,-5.133166102E-1,7.607139856E-1,-5.751099122E-1,1.083019446E0
1.063007596E1,-6.823538406E-1,8.508271801E-1,-6.400174411E-1,1.264569484E0
1.064009896E1,-8.465755966E-1,8.015234578E-1,-5.770067489E-1,1.300794712E0
1.065012296E1,-1.063013061E0,5.725774831E-1,-4.539965343E-1,1.289943641E0
1.066014696E1,-1.365497932E0,2.563968980E-1,-3.652123388E-1,1.436559788E0
1.067017096E1,-1.687606717E0,-7.780831397E-2,-3.221604594E-1,1.719842413E0
1.068019496E1,-2.034945652E0,-4.537649846E-1,-2.902768715E-1,2.105033760E0
1.069021896E1,-2.337719449E0,-9.973063642E-1,-1.230598794E-1,2.544542383E0
1.070024196E1,-2.662996840E0,-1.248379372E0,1.892123902E-1,2.947168905E0
1.071026596E1,-3.009739359E0,-1.352827016E0,4.174298018E-1,3.326096749E0
1.072028996E1,-3.311006913E0,-1.542290252E0,4.598425806E-1,3.681423801E0
1.073031396E1,-3.609659300E0,-1.585595316E0,2.376378790E-1,3.949711955E0
1.074033796E1,-3.910660513E0,-1.628577029E0,-2.142922493E-1,4.241632935E0
1.075036196E1,-3.989606110E0,-1.416680950E0,-7.509122980E-1,4.299745470E0
1.076038596E1,-3.836403798E0,-8.324400258E-1,-1.212963957E0,4.108799345E0
1.077040896E1,-3.370863398E0,-4.432072520E-2,-1.512437292E0,3.694881722E0
1.078043296E1,-2.808941296E0,7.799653584E-1,-1.575004839E0,3.313478143E0
1.079045696E1,-2.432831721E0,1.637448424E0,-1.449935235E0,3.271424721E0
1.080048096E1,-2.148534395E0,2.478410182E0,-1.168334498E0,3.481913637E0
1.081050496E1,-1.765431111E0,3.227167781E0,-7.852915871E-1,3.761388277E0
1.082052896E1,-1.271756248E0,3.785689142E0,-3.050188716E-1,4.005226929E0
1.083055196E1,-7.168470043E-1,4.072657623E0,1.977739016E-1,4.139990852E0
1.084057596E1,-1.965822208E-1,4.019712839E0,5.639616108E-1,4.063839143E0
1.085059996E1,2.592520934E-1,3.669080459E0,7.987729275E-1,3.763960847E0
1.086062396E1,6.431077677E-1,3.047695683E0,9.368748057E-1,3.252655988E0
1.087064796E1,1.057575662E0,2.354907632E0,1.081564157E0,2.798899295E0
1.088067196E1,1.602963593E0,1.955256874E0,1.363929709E0,2.872773220E0
1.089069496E1,2.129926654E0,1.823612076E0,1.809323820E0,3.337034798E0
1.090071896E1,2.631965666E0,2.046947647E0,2.363746283E0,4.087118108E0
1.091074296E1,3.111657498E0,2.669095486E0,2.757986612E0,4.940948618E0
1.092076696E1,3.494279994E0,3.466620618E0,2.942384405E0,5.734551174E0
1.093079096E1,3.777905329E0,4.124287952E0,2.959213861E0,6.327658845E0
1.094081496E1,4.007806739E0,4.504690846E0,2.873879596E0,6.679366617E0
1.095083896E1,4.171870547E0,4.603660818E0,2.772155585E0,6.803164218E0
1.096086196E1,4.282165991E0,4.453042974E0,2.756807814E0,6.765096202E0
1.097088596E1,4.334850573E0,4.083802416E0,2.749544402E0,6.559601061E0
1.098090996E1,4.453284172E0,3.577611880E0,2.679693564E0,6.309659601E0
1.099093396E1,4.586178812E0,2.977885775E0,2.619662540E0,6.063288844E0
1.100095796E1,4.722913612E0,2.320416661E0,2.431834917E0,5.796901545E0
1.101098196E1,4.845831440E0,1.639875603E0,2.173480078E0,5.558353173E0
1.102100496E1,5.003241409E0,8.375230104E-1,1.904573793E0,5.418604131E0
1.103102896E1,5.251182064E0,3.140539527E-2,1.540315501E0,5.472519640E0
1.104105296E1,5.733529993E0,-6.846317697E-1,1.042543202E0,5.867621594E0
1.105107696E1,5.885952287E0,-1.143696086E0,7.066852013E-1,6.037539154E0
1.106110096E1,6.192678509E0,-1.103067293E0,3.461856452E-1,6.299672140E0
1.107112496E1,6.554682553E0,-8.489449614E-1,1.108514412E-1,6.610359972E0
1.108114896E1,6.927551309E0,-7.346599621E-1,-3.014824390E-2,6.966462612E0
1.109117196E1,7.159126192E0,-7.561525726E-1,-1.738774641E-1,7.201047696E0
1.110119596E1,7.298478205E0,-1.372743802E0,-2.071224117E-1,7.429341112E0
1.111121996E1,7.015819708E0,-2.826568605E0,-2.722791235E-1,7.568708752E0
1.112124396E1,6.500672407E0,-3.621708657E0,-3.705316605E-1,7.450691851E0
1.113126796E1,6.047116753E0,-3.978015175E0,-2.297512094E-1,7.241892803E0
1.114129196E1,6.429300123E0,-4.012282197E0,-1.157983319E-1,7.579427271E0
1.115131496E1,8.091341937E0,-3.419708991E0,1.335837346E-1,8.785332579E0
1.116133896E1,8.996298546E0,-3.763013640E0,2.390049398E-1,9.754526260E0
1.117136296E1,9.733859897E0,-5.418986043E0,9.763060892E-1,1.118331846E1
1.118138696E1,9.158856404E0,-7.928845475E0,2.647473652E0,1.240001443E1
1.119141096E1,6.534053577E0,-1.042871026E1,3.323580766E0,1.274747202E1
1.120143496E1,2.825341567E0,-1.333878178E1,5.115556481E0,1.456278038E1
1.121145796E1,-6.967141637E-1,-1.468157965E1,6.402815745E0,1.603216271E1
1.122148196E1,-3.951507992E0,-1.358617865E1,6.487110375E0,1.556538681E1
1.123150596E1,-7.485595538E0,-1.189518727E1,4.533764956E0,1.476768924E1
1.124152996E1,-1.166504554E1,-1.081664027E1,-5.852127314E-1,1.591902849E1
1.125155396E1,-1.924745752E1,-1.054109608E1,-9.746706229E0,2.401203052E1
1.126157796E1,-2.202944578E1,-1.005760853E1,-1.145377043E1,2.678881909E1
1.127160196E1,-9.115862997E0,-4.040517817E0,-1.180173590E1,1.545010397E1
1.128162496E1,4.410191362E0,-4.357087827E-1,-2.218802227E1,2.262626709E1
1.129164896E1,-2.144181289E0,-8.762915120E0,-1.665692815E1,1.894305810E1
1.130167296E1,-3.544952842E0,-1.233462657E1,-8.174517410E0,1.521619000E1
1.131169696E1,-2.272554862E0,-1.177265536E1,-5.410771290E0,1.315432878E1
1.132172096E1,-7.938802698E-1,-1.078198032E1,-2.887842747E0,1.119021810E1
1.133174496E1,3.244394848E-1,-1.069887267E1,-1.187087104E0,1.076941564E1
1.134176767E1,1.107632799E0,-1.095984560E1,-1.797255751E-1,1.101713971E1
1.135179167E1,1.703712288E0,-1.087202510E1,3.479432452E-1,1.101020571E1
1.136181567E1,1.606094484E0,-1.070188516E1,4.401880422E-1,1.083068100E1
1.137183967E1,6.635926107E-1,-1.076565138E1,4.263891980E-1,1.079450845E1
1.138186367E1,-7.396780425E-1,-1.200851099E1,-9.742484540E-2,1.203166453E1
1.139188767E1,-2.131609775E0,-1.421223067E1,-1.068921307E0,1.441089357E1
1.140191067E1,-3.312365806E0,-1.653818991E1,-1.464747548E0,1.693012044E1
1.141193467E1,-3.486947586E0,-1.841170797E1,-1.042199532E0,1.876795070E1
1.142195867E1,-3.692785072E0,-1.849972026E1,1.124922431E-1,1.886501963E1
1.143198267E1,-4.067400391E0,-1.767598791E1,1.854456139E0,1.823247932E1
1.144200667E1,-4.336264722E0,-1.602633517E1,1.605597617E0,1.668006458E1
1.145203067E1,-4.640735381E0,-1.378741642E1,6.890347230E-1,1.456379227E1
1.146205467E1,-4.491306569E0,-1.113345177E1,1.247170168E0,1.206983913E1
1.147207767E1,-4.573321662E0,-8.917952288E0,1.631601208E0,1.015417483E1
1.148210167E1,-4.637599519E0,-6.778343230E0,9.388336229E-1,8.266478985E0
1.149212567E1,-4.558541363E0,-4.567878197E0,6.538005710E-1,6.486390812E0
1.150214967E1,-4.504142377E0,-2.398555927E0,6.800393665E-1,5.148089221E0
1.151217367E1,-4.163459912E0,5.538055819E-1,4.632982850E-1,4.225605798E0
1.152219767E1,-4.096381238E0,3.495609359E0,4.290745318E-2,5.385300835E0
1.153222067E1,-4.801145849E0,5.562721714E0,-4.054663986E-1,7.359298698E0
1.154224467E1,-5.492052850E0,6.784090458E0,-6.578930372E-1,8.753248032E0
1.155226867E1,-5.661129768E0,8.043711103E0,-7.624745822E-1,9.865649804E0
1.156229267E1,-5.576339879E0,9.776234668E0,-7.519747370E-1,1.127988461E1
1.157231667E1,-6.293503218E0,1.159216116E1,-1.081080008E0,1.323461814E1
1.158234067E1,-7.409790480E0,1.259547086E1,-1.891937376E0,1.473534215E1
1.159236367E1,-8.444682162E0,1.324815462E1,-2.892410592E0,1.597473933E1
1.160238767E1,-8.645709436E0,1.404103706E1,-3.537322810E0,1.686450907E1
1.161241167E1,-7.802028723E0,1.418885350E1,-3.142647448E0,1.649458847E1
1.162243567E1,-6.426624438E0,1.402556065E1,-3.059270246E0,1.572822265E1
1.163245967E1,-4.803815980E0,1.460872335E1,-2.808741614E0,1.563267332E1
1.164248367E1,-3.569234574E0,1.497683598E1,-2.447849125E0,1.558964453E1
1.165250767E1,-2.903733433E0,1.505855783E1,-2.123675981E0,1.548230705E1
1.166253067E1,-2.435867595E0,1.484977130E1,-1.468725847E0,1.511973261E1
1.167255467E1,-2.146010005E0,1.472914909E1,-1.460704637E-1,1.488537969E1
1.168257867E1,-1.997435326E0,1.518132948E1,2.435102779E0,1.550458765E1
1.169260267E1,-2.175684625E0,1.723774611E1,9.281312302E0,1.969812815E1
1.170262667E1,-2.518261588E0,1.906675984E1,1.025543387E1,2.179579997E1
1.171265067E1,-3.288219437E0,1.947778987E1,8.577616271E0,2.153537058E1
1.172267367E1,-3.663857434E0,1.843467817E1,6.983459462E0,2.005068369E1
1.173269767E1,-3.361471600E0,1.590072646E1,4.734523258E0,1.692773770E1
1.174272167E1,-2.398176151E0,1.328823026E1,3.163300691E0,1.386848166E1
1.175274567E1,-1.718323895E0,1.121107473E1,6.237508526E-1,1.135913284E1
1.176276967E1,-2.213098619E0,8.890390853E0,-3.515295472E0,9.812958640E0
1.177279367E1,-2.425462182E0,7.069732205E0,-6.953524057E0,1.020859819E1
1.178281767E1,-1.221510393E0,6.449624460E0,-8.254895575E0,1.054670775E1
1.179284067E1,6.019478646E-1,6.795281444E0,-6.018011652E0,9.096958579E0
1.180286467E1,2.149783652E0,7.422416958E0,-8.967020953E-1,7.779326314E0
1.181288867E1,2.814380084E0,8.055604924E0,2.723938568E0,8.957306921E0
1.182291267E1,2.218946712E0,8.277188669E0,4.418205556E0,9.641375271E0
1.183293667E1,9.720297280E-1,8.015796495E0,4.279937325E0,9.138692398E0
1.184296067E1,6.110655376E-1,7.802800555E0,2.695304461E0,8.277787369E0
1.185298367E1,9.728017797E-1,7.574547476E0,1.164280916E0,7.725002448E0
1.186300767E1,1.360751894E0,7.428595710E0,7.648745719E-1,7.590830854E0
1.187303167E1,1.497388167E0,7.653622881E0,9.699627373E-1,7.858813030E0
1.188305567E1,1.580363227E0,8.127108770E0,1.356883522E0,8.389790092E0
1.189307967E1,1.648153507E0,8.363806983E0,1.376755869E0,8.635110535E0
1.190310367E1,1.829674908E0,8.584680877E0,1.080089197E0,8.843701075E0
1.191312767E1,2.039241309E0,8.832373610E0,7.753253004E-1,9.097827104E0
1.192315067E1,2.335312735E0,9.145011951E0,5.082354529E-1,9.452154910E0
1.193317467E1,2.698383020E0,9.432762204E0,2.020154536E-1,9.813209667E0
1.194319867E1,2.910791899E0,9.678522432E0,4.115270376E-2,1.010683924E1
1.195322267E1,2.938714108E0,9.778681144E0,9.432362840E-2,1.021114795E1
1.196324667E1,2.881405547E0,9.776335825E0,1.668982458E-1,1.019348297E1
1.197327067E1,2.750106027E0,9.832205386E0,2.598945563E-1,1.021287869E1
1.198329367E1,2.576076810E0,9.990744452E0,4.181228431E-1,1.032598534E1
1.199331767E1,2.455693164E0,1.019156357E1,6.165386045E-1,1.050135785E1
1.200334167E1,2.361368074E0,1.038255468E1,6.807046334E-1,1.066943577E1
1.201336567E1,2.221711421E0,1.056031939E1,6.347655451E-1,1.081014683E1
1.202338967E1,1.808682380E0,1.064640444E1,2.988371587E-1,1.080308118E1
1.203341367E1,8.879355110E-1,9.648718005E0,-3.337824583E-1,9.695235909E0
1.204343767E1,2.188453482E-1,8.134402002E0,-5.894285738E-1,8.158665042E0
1.205346067E1,-1.398918571E-1,6.324630870E0,-2.203219163E-1,6.330013201E0
1.206348467E1,4.092113063E0,-1.154535069E1,9.280690159E0,1.536787955E1
1.207350867E1,2.927788585E-1,-5.974132977E1,5.076593560E0,5.995735154E1
1.208353267E1,-3.360433193E1,-4.831269885E1,-4.786553186E1,7.585827005E1
1.209355667E1,-2.669997711E1,-4.453330657E1,-3.278900788E1,6.141028586E1
1.210358067E1,-4.032096950E0,-2.841237632E1,-7.198054615E0,2.958602582E1
1.211360367E1,4.146797978E0,-1.844747656E1,-2.004033177E0,1.901371804E1
1.212362767E1,2.870164275E0,-1.238291756E1,-3.563448170E0,1.320123680E1
1.213365167E1,-4.825683689E-1,-1.063033395E1,-5.685460033E0,1.206487994E1
1.214367567E1,-2.625279960E0,-1.078467238E1,-4.932060914E0,1.214604783E1
1.215369967E1,-2.635503817E0,-1.031359028E1,-2.565092815E0,1.094969068E1
1.216372367E1,-2.894882210E0,-9.301995074E0,1.573725468E-1,9.743316760E0
1.217374667E1,-3.010683977E0,-9.123162076E0,9.556341353E-1,9.654508836E0
1.218377067E1,-2.888134523E0,-9.625447256E0,1.426839318E0,1.015019341E1
1.219379467E1,-3.164915107E0,-1.034655805E1,2.123642651E0,1.102623278E1
1.220381867E1,-2.574070630E0,-9.489627546E0,1.855052847E0,1.000600278E1
1.221384267E1,-2.096105043E0,-8.094395937E0,1.106528260E0,8.434293493E0
1.222386667E1,-1.695710227E0,-7.191721496E0,-6.432346523E-2,7.389210293E0
1.223389067E1,-1.085673288E0,-6.356352015E0,-7.523857963E-1,6.492147704E0
1.224391367E1,-7.722305153E-1,-5.675273014E0,-1.047805550E0,5.822624856E0
1.225393767E1,-6.796268454E-1,-4.961629114E0,-1.387389615E0,5.196586000E0
1.226396167E1,-1.011548647E0,-4.234777524E0,-1.717042770E0,4.680257174E0
1.227398567E1,-1.585758307E0,-3.624317685E0,-1.781119190E0,4.338512839E0
1.228400967E1,-1.697919597E0,-2.848099807E0,-1.494962011E0,3.637240009E0
1.229403367E1,-1.450087993E0,-2.089092624E0,-9.599315464E-1,2.718185379E0
1.230405667E1,-1.450126731E0,-1.366476172E0,-8.104419234E-1,2.151032490E0
1.231408067E1,-1.720721546E0,-9.365789366E-1,-7.071540749E-1,2.082817714E0
1.232410467E1,-2.010206668E0,-2.815656531E-1,-5.300230555E-1,2.097888106E0
1.233412867E1,-1.550125959E0,7.763815999E-1,-7.151448798E-1,1.875390913E0
1.234415321E1,-1.096888832E0,1.578633621E0,-4.194827592E-1,1.967540344E0
1.235417721E1,-1.055300949E0,1.988425789E0,2.160639739E-1,2.261455473E0
1.236420121E1,-8.845664915E-1,2.746479877E0,4.649214721E-1,2.922629221E0
1.237422421E1,-7.265418340E-1,3.558442369E0,8.247651167E-1,3.724327137E0
1.238424821E1,-4.483226155E-1,4.331121511E0,9.350362949E-1,4.453526646E0
1.239427221E1,-1.867887924E-1,4.969353286E0,1.016710349E0,5.075732663E0
1.240429621E1,-7.931017131E-3,5.317683617E0,9.812737374E-1,5.407468918E0
1.241432021E1,1.965632173E-1,5.538948689E0,8.745050414E-1,5.611002472E0
1.242434421E1,3.957975890E-1,5.522077718E0,9.008723295E-1,5.609061330E0
1.243436721E1,5.295443878E-1,5.301530684E0,9.572932827E-1,5.413229653E0
1.244439121E1,4.977885251E-1,5.209498433E0,9.548293392E-1,5.319620889E0
1.245441521E1,3.787763442E-1,5.012630868E0,8.288616760E-1,5.094796504E0
1.246443921E1,2.502652153E-1,4.798228088E0,5.372983074E-1,4.834699053E0
1.247446321E1,9.190770507E-2,4.465001115E0,1.700919950E-1,4.469184855E0
1.248448721E1,-1.461871887E-1,3.833074393E0,-1.947918034E-1,3.840803802E0
1.249451121E1,-4.820215812E-1,2.879700499E0,-4.158399439E-1,2.949227463E0
1.250453421E1,-8.213262230E-1,1.866593789E0,-5.534049746E-1,2.113056129E0
1.251455821E1,-1.110762375E0,6.509757811E-1,-6.872923259E-1,1.459429088E0
1.252458221E1,-1.303449619E0,-4.064703655E-1,-6.974793450E-1,1.533191607E0
1.253460621E1,-1.279320499E0,-1.600250777E0,-7.077411354E-1,2.167570299E0
1.254463021E1,-1.326754574E0,-2.927461726E0,-5.150683630E-1,3.255089135E0
1.255465421E1,-1.465759847E0,-3.643557948E0,-2.239998150E-1,3.933718643E0
1.256467721E1,-1.602268797E0,-3.504892398E0,-4.466337204E-2,3.854027872E0
1.257470121E1,-1.806821650E0,-3.077193131E0,-2.425249636E-1,3.576666101E0
1.258472521E1,-2.018521701E0,-2.787595158E0,-6.660387933E-1,3.505527677E0
1.259474921E1,-2.140912841E0,-2.393680519E0,-1.113187069E0,3.398882121E0
1.260477321E1,-2.243088403E0,-2.073033831E0,-1.522272309E0,3.412657005E0
1.261479721E1,-2.119438065E0,-1.674815640E0,-1.892742537E0,3.298408624E0
1.262482121E1,-1.854078116E0,-1.144691282E0,-2.203446035E0,3.098886610E0
1.263484421E1,-1.624670065E0,-4.687513983E-1,-2.363541046E0,2.906132648E0
1.264486821E1,-1.272623098E0,2.470694196E-1,-2.413328918E0,2.739483402E0
1.265489221E1,-7.383448774E-1,9.714230794E-1,-2.511201952E0,2.791943982E0
1.266491621E1,-1.668409431E-1,1.616641692E0,-2.476279457E0,2.961980116E0
1.267494021E1,3.114627591E-1,2.104623413E0,-2.376777388E0,3.189909013E0
1.268496421E1,7.184704837E-1,2.437042885E0,-2.183797637E0,3.350276105E0
1.269498721E1,1.037149584E0,2.757702438E0,-1.860294583E0,3.484436530E0
1.270501121E1,1.257862679E0,3.009102890E0,-1.555303230E0,3.613293077E0
1.271503521E1,1.480360052E0,3.170791851E0,-1.522630159E0,3.816253326E0
1.272505921E1,1.666996744E0,3.133830432E0,-1.460053257E0,3.838167119E0
1.273508321E1,1.898887084E0,2.919615932E0,-1.270986462E0,3.707470288E0
1.274510721E1,2.107151457E0,2.548642843E0,-1.023975515E0,3.461819386E0
1.275513121E1,2.235047312E0,2.070392058E0,-6.887569803E-1,3.123514998E0
1.276515421E1,2.277178548E0,1.516167816E0,-4.274361420E-1,2.768936373E0
1.277517821E1,2.247387569E0,8.969517714E-1,-2.055097314E-1,2.428478456E0
1.278520221E1,2.183940601E0,2.683041680E-1,1.743641535E-2,2.200428982E0
1.279522621E1,2.130606101E0,-2.141080803E-1,2.401978083E-1,2.154766719E0
1.280525021E1,2.117775848E0,-5.607585061E-1,4.604062521E-1,2.238615322E0
1.281527421E1,2.179062854E0,-7.676481986E-1,6.233927838E-1,2.392951575E0
1.282529721E1,2.337243486E0,-8.437573117E-1,7.447002161E-1,2.594072459E0
1.283532121E1,2.532331743E0,-9.636761034E-1,8.377517096E-1,2.836054234E0
1.284534521E1,2.678178843E0,-1.188360627E0,8.405991574E-1,3.048187960E0
1.285536921E1,2.743202805E0,-1.478968415E0,7.571596093E-1,3.207148246E0
1.286539321E1,2.705147663E0,-1.761293621E0,6.771602706E-1,3.298260925E0
1.287541721E1,2.600829535E0,-1.886004206E0,6.497753477E-1,3.277733079E0
1.288544121E1,2.531230420E0,-1.769882596E0,7.104856722E-1,3.169290415E0
1.289546421E1,2.607172595E0,-1.566700038E0,9.307713358E-1,3.180917042E0
1.290548821E1,2.738064272E0,-1.361030075E0,1.156215705E0,3.268980510E0
1.291551221E1,2.730903479E0,-1.130846829E0,1.294682157E0,3.226894831E0
1.292553621E1,2.636094385E0,-8.471352482E-1,1.287451491E0,3.053549259E0
1.293556021E1,2.621620480E0,-6.630496967E-1,1.137455499E0,2.933655374E0
1.294558421E1,2.660507973E0,-5.193286443E-1,1.004740003E0,2.890935382E0
1.295560721E1,2.656219040E0,-5.146526259E-1,8.583418755E-1,2.838506242E0
1.296563121E1,2.519072012E0,-7.996739835E-1,7.152221362E-1,2.738018441E0
1.297565521E1,2.289242231E0,-1.278183800E0,6.547958402E-1,2.702432499E0
1.298567921E1,2.012173086E0,-1.689726040E0,6.683145297E-1,2.711209865E0
1.299570321E1,1.787158195E0,-1.912139506E0,6.532697169E-1,2.697586556E0
1.300572721E1,1.594542433E0,-1.934881666E0,5.962429190E-1,2.577176410E0
1.301575121E1,1.413731614E0,-1.832104572E0,4.317934871E-1,2.354079407E0
1.302577421E1,1.267850893E0,-1.663860297E0,2.018260769E-1,2.101573396E0
1.303579821E1,1.198000055E0,-1.401082917E0,-1.772174120E-2,1.843516079E0
1.304582221E1,1.136913023E0,-1.063643610E0,-2.150535750E-1,1.571673310E0
1.305584621E1,1.063493337E0,-7.335963535E-1,-4.343170723E-1,1.363016143E0
1.306587021E1,9.645745280E-1,-3.911097300E-1,-5.918844775E-1,1.197371319E0
1.307589421E1,8.751445806E-1,3.023829103E-2,-6.801691747E-1,1.108793262E0
1.308591821E1,7.632218564E-1,3.775079370E-1,-7.644626355E-1,1.144300208E0
1.309594121E1,6.703674871E-1,6.578866053E-1,-9.425021660E-1,1.330608014E0
1.310596521E1,5.784203133E-1,8.448150730E-1,-9.728503847E-1,1.412345722E0
1.311598921E1,4.248040178E-1,9.592339736E-1,-1.001429236E0,1.450327130E0
1.312601321E1,2.597195783E-1,1.032513619E0,-9.616482890E-1,1.434679778E0
1.313603721E1,1.126211742E-1,1.042481368E0,-9.313866091E-1,1.402473510E0
1.314606121E1,-2.384728432E-2,1.050438259E0,-8.755059385E-1,1.367662194E0
1.315608421E1,-1.623122746E-1,1.041087976E0,-8.178301728E-1,1.333812446E0
1.316610821E1,-3.065601611E-1,1.058521450E0,-7.302622712E-1,1.322017313E0
1.317613221E1,-4.355321968E-1,1.196305824E0,-6.321237731E-1,1.421413516E0
1.318615621E1,-4.738946092E-1,1.376909359E0,-5.698977041E-1,1.563725959E0
1.319618021E1,-4.683631432E-1,1.440027713E0,-5.069898498E-1,1.596897791E0
1.320620421E1,-5.211155534E-1,1.318200974E0,-4.295282757E-1,1.481117743E0
1.321622721E1,-6.028229369E-1,1.128081096E0,-3.426421229E-1,1.324147302E0
1.322625121E1,-7.049613690E-1,9.392446822E-1,-2.274426556E-1,1.196194494E0
1.323627521E1,-7.892188695E-1,7.955563742E-1,-9.109377265E-2,1.124310653E0
1.324629921E1,-8.471748631E-1,6.773736209E-1,8.764501177E-2,1.088219610E0
1.325632321E1,-8.703488405E-1,6.761737722E-1,2.599028885E-1,1.132372547E0
1.326634721E1,-8.664797379E-1,7.309487343E-1,3.716933926E-1,1.192991688E0
1.327637121E1,-7.848935379E-1,9.053635758E-1,4.313958764E-1,1.273516185E0
1.328639421E1,-6.869538452E-1,1.077498588E0,4.615815425E-1,1.358663429E0
1.329641821E1,-5.857430738E-1,1.269922854E0,5.269300246E-1,1.494474574E0
1.330644221E1,-4.769024169E-1,1.460990565E0,5.896226283E-1,1.646081466E0
1.331646621E1,-3.871737499E-1,1.490379841E0,6.315321080E-1,1.664322200E0
1.332649021E1,-3.410172182E-1,1.307304103E0,6.791377989E-1,1.512139184E0
1.333651421E1,-3.720891029E-1,9.659144175E-1,6.602394518E-1,1.227744719E0
1.334653883E1,-4.753194295E-1,4.769018322E-1,6.495344424E-1,9.355527294E-1
1.335656183E1,-6.157389247E-1,-3.864600241E-2,5.433433051E-1,8.221008965E-1
1.336658583E1,-8.277271700E-1,-3.892427140E-1,3.555516422E-1,9.813557605E-1
1.337660983E1,-1.148454842E0,-5.122190148E-1,2.466975367E-1,1.281474353E0
1.338663383E1,-1.377997233E0,-5.110431397E-1,3.066186333E-1,1.501351541E0
1.339665783E1,-1.440730840E0,-3.478420883E-1,5.547370434E-1,1.582539939E0
1.340668183E1,-1.494933506E0,-3.498161083E-1,7.204997599E-1,1.695970932E0
1.341670483E1,-1.633957344E0,-2.586457372E-1,6.595858061E-1,1.780945719E0
1.342672883E1,-1.728658995E0,4.812369579E-1,6.019615324E-1,1.892672348E0
1.343675283E1,-1.473107897E0,1.557691233E0,6.267338097E-1,2.233661595E0
1.344677683E1,-1.018892530E0,2.511001977E0,7.308715510E-1,2.806678846E0
1.345680083E1,-5.624733482E-1,3.323359741E0,9.046414447E-1,3.489910082E0
1.346682483E1,-8.292535856E-2,4.175567449E0,1.022378640E0,4.299709085E0
1.347684883E1,3.422082961E-1,4.974646770E0,1.020930870E0,5.089844482E0
1.348687183E1,7.082048196E-1,5.739726872E0,9.561665243E-1,5.861763647E0
1.349689583E1,1.018329005E0,6.450343668E0,8.497080231E-1,6.585281400E0
1.350691983E1,1.192118779E0,6.729599086E0,7.950593609E-1,6.880462952E0
1.351694383E1,1.056229195E0,6.565550773E0,7.048841858E-1,6.687222053E0
1.352696783E1,6.405262220E-1,6.397778369E0,6.109165066E-1,6.458719755E0
1.353699183E1,1.665880510E-1,6.292585205E0,6.630567133E-1,6.329614865E0
1.354701483E1,-4.324369732E-1,6.369514682E0,6.205685055E-1,6.414267245E0
1.355703883E1,-9.856519863E-1,6.471043396E0,4.508062935E-1,6.561184252E0
1.356706283E1,-1.294355444E0,6.319264880E0,3.141510165E-1,6.458107734E0
1.357708683E1,-1.922588480E0,5.312400658E0,-2.109277797E-1,5.653533208E0
1.358711083E1,-3.351855562E0,3.320672361E0,-7.507591009E-1,4.777597708E0
1.359713483E1,-4.831208431E0,7.219282347E-1,-8.127150285E-1,4.951995658E0
1.360715883E1,-5.274619458E0,-2.259008033E0,-4.700447293E-1,5.757227611E0
1.361718183E1,-4.259339338E0,-5.174737905E0,2.217498064E-1,6.705897178E0
1.362720583E1,-2.076726932E0,-8.643816108E0,1.371341786E0,8.994939130E0
1.363722983E1,-9.113166261E-1,-1.193366195E1,7.898664486E-1,1.199444348E1
1.364725383E1,-1.751328211E0,-1.110765035E1,-1.891080759E0,1.140277305E1
1.365727783E1,-2.125834480E0,-6.356256706E0,-2.394274304E0,7.117142754E0
1.366730183E1,-1.453834451E0,6.126712561E-3,-5.853290910E-1,1.567253104E0
1.367732483E1,-1.474009683E0,2.941282205E0,-8.731506801E-1,3.403856293E0
1.368734883E1,-9.166142035E-1,4.120593097E0,-2.301247149E0,4.807827733E0
1.369737283E1,9.919006133E-1,4.746481984E0,-2.616961419E0,5.510122060E0
1.370739683E1,2.708128866E0,5.341045582E0,-2.066522371E0,6.334922618E0
1.371742083E1,3.898419075E0,5.713352421E0,-6.993106198E-1,6.951913586E0
1.372744483E1,4.962924857E0,6.169408929E0,7.488447225E-1,7.953175347E0
1.373746883E1,5.459501401E0,5.746601443E0,5.644919533E-1,7.946586365E0
1.374749183E1,5.264872735E0,4.492180143E0,-1.295173470E0,7.041025612E0
1.375751583E1,4.683528229E0,3.156895359E0,-4.006229745E0,6.924687844E0
1.376753983E1,3.749677018E0,1.467152361E0,-7.557274216E0,8.563002240E0
1.377756383E1,3.420852999E0,1.093380795E0,-9.530924091E0,1.018509847E1
1.378758783E1,2.852112459E0,1.388947606E0,-8.565776829E0,9.134344728E0
1.379761183E1,2.382280203E0,2.000452343E0,-6.877707304E0,7.548504905E0
1.380763583E1,1.823627571E0,3.150734147E0,-5.412452949E0,6.522836048E0
1.381765883E1,8.809602213E-1,3.567227810E0,-2.037679226E0,4.201588008E0
1.382768283E1,5.685405654E-1,3.003177322E0,6.043611932E-1,3.115696527E0
1.383770683E1,1.383673418E-1,1.511187742E0,2.205317729E0,2.676987150E0
1.384773083E1,-5.381853300E-1,-2.171092222E0,2.475354427E0,3.336265041E0
1.385775483E1,-1.366116275E0,-9.244033379E0,9.117689082E-1,9.388809793E0
1.386777883E1,-5.164995859E0,-1.878266235E1,-3.655599411E0,1.981991408E1
1.387780183E1,-1.420274883E1,-3.004393893E1,-8.058657171E0,3.419500397E1
1.388782583E1,-1.895015467E1,-3.852739749E1,-7.931331711E0,4.366205151E1
1.389784983E1,-1.142558101E1,-3.568980922E1,-4.015735563E0,3.768862581E1
1.390787383E1,-1.729091396E0,-3.146769852E1,2.790224651E0,3.163844435E1
1.391789783E1,2.408449855E0,-2.359568798E1,6.565386466E0,2.461018938E1
1.392792183E1,2.428069456E0,-1.525645685E1,8.708193952E0,1.773379933E1
1.393794583E1,1.311183292E0,-1.008557460E1,1.115250668E1,1.509358877E1
1.394796883E1,1.917126596E-1,-7.619597349E0,1.138681397E1,1.370235563E1
1.395799283E1,-1.639707934E0,-6.011155207E0,1.057541807E1,1.227444892E1
1.396801683E1,-1.455827766E0,-5.144896640E0,8.712927858E0,1.022274463E1
1.397804083E1,1.337246525E-1,-6.933504360E0,6.006272782E0,9.174239899E0
1.398806483E1,7.152755651E-1,-1.141728264E1,5.123108160E0,1.253444052E1
1.399808883E1,2.981240907E-1,-1.545137963E1,4.684439517E0,1.614862174E1
1.400811183E1,-4.024392951E-1,-1.634543878E1,3.140134900E0,1.664919738E1
1.401813583E1,-9.942769217E-1,-1.474488629E1,7.575582433E-1,1.479777526E1
1.402815983E1,-1.324457349E0,-1.333395783E1,-7.520489967E-1,1.342066304E1
1.403818383E1,-1.810155148E0,-1.229234419E1,-1.063029726E0,1.247030150E1
1.404820783E1,-2.205900843E0,-1.152246235E1,-7.367023214E-1,1.175482316E1
1.405823183E1,-2.394419315E0,-1.045846323E1,-2.435248375E-2,1.072908617E1
1.406825583E1,-2.358433503E0,-9.330442947E0,3.363119638E-1,9.629770502E0
1.407827883E1,-1.730220932E0,-8.444067035E0,9.201295495E-2,8.619999939E0
1.408830283E1,-8.809377095E-1,-8.218913564E0,8.457646608E-2,8.266422721E0
1.409832683E1,-5.172368760E-1,-6.989261069E0,-8.457770862E-2,7.008884196E0
1.410835083E1,-3.513033842E-1,-3.964194111E0,1.890952997E-3,3.979730216E0
1.411837483E1,-2.805380780E-1,-5.033330011E-1,2.167504005E-1,6.156512482E-1
1.412839883E1,-3.444944843E-1,2.372053422E0,3.094627190E-1,2.416832858E0
1.413842283E1,-4.217832731E-1,4.969049816E0,8.735143769E-1,5.062843526E0
1.414844583E1,-7.710140752E-1,6.994699565E0,5.604532814E-1,7.059347887E0
1.415846983E1,-1.169315588E0,8.543049286E0,-1.785786438E-1,8.624551025E0
1.416849383E1,-1.659827765E0,1.002382566E1,-1.209937438E0,1.023210915E1
1.417851783E1,-2.341327620E0,1.122033789E1,-1.855079452E0,1.161116347E1
1.418854183E1,-2.984236144E0,1.224310829E1,-1.994673539E0,1.275845165E1
1.419856583E1,-4.194122126E0,1.298622041E1,-2.547447088E0,1.388243738E1
1.420858883E1,-6.792836723E0,1.402666811E1,-3.607958930E0,1.599710651E1
1.421861283E1,-1.177426685E1,1.564437049E1,-3.706189814E0,1.992775780E1
1.422863683E1,-1.642760736E1,1.795734891E1,-2.247649816E0,2.444145235E1
1.423866083E1,-1.822815217E1,2.047710358E1,4.884062290E-2,2.741495373E1
1.424868483E1,-1.811606690E1,2.111324790E1,1.892732743E0,2.788446797E1
1.425870883E1,-1.504260663E1,1.774283561E1,1.284361237E0,2.329673397E1
1.426873283E1,-1.000810367E1,1.594431511E1,-3.974899194E-1,1.882926769E1
1.427875583E1,-6.427723714E0,1.545965110E1,-7.679746194E-1,1.676025743E1
1.428877983E1,-4.194629664E0,1.470556259E1,5.732474278E-1,1.530284620E1
1.429880383E1,-2.872921237E0,1.414241024E1,1.900343333E0,1.455584929E1
1.430882783E1,-1.872337216E0,1.365113420E1,1.963472797E0,1.391812979E1
1.431885183E1,-1.055311474E0,1.285012295E1,1.097299014E0,1.293999256E1
1.432887583E1,-7.535177442E-1,1.174252816E1,5.987490356E-2,1.176683227E1
1.433889983E1,-5.665316448E-1,1.128121325E1,-5.825440621E-1,1.131044155E1
1.434892192E1,-5.313144862E-1,1.114392648E1,-9.783303952E-1,1.119939832E1
1.435894592E1,-7.124452934E-1,1.097524483E1,-1.343448082E0,1.108009161E1
1.436896992E1,-9.296929631E-1,1.075823127E1,-1.657436546E0,1.092478672E1
1.437899392E1,-9.488332388E-1,1.058647983E1,-1.798775443E0,1.078004791E1
1.438901792E1,-9.260692243E-1,1.032240554E1,-1.761989440E0,1.051257662E1
1.439904192E1,-8.754656658E-1,9.947739351E0,-1.600829651E0,1.011368449E1
1.440906492E1,-6.312186241E-1,9.835365222E0,-1.639532372E0,9.991041607E0
1.441908892E1,-5.549127522E-1,9.600073264E0,-1.726365863E0,9.769834897E0
1.442911292E1,-6.873726520E-1,9.319108120E0,-1.780217550E0,9.512488204E0
1.443913692E1,-8.060505183E-1,9.121268747E0,-1.686359214E0,9.310803854E0
1.444916092E1,-8.607249814E-1,8.975664307E0,-1.512210420E0,9.142766408E0
1.445918492E1,-8.437396970E-1,8.843123716E0,-1.190677952E0,8.962725462E0
1.446920892E1,-7.235938872E-1,8.642994574E0,-6.954713380E-1,8.701070262E0
1.447923192E1,-4.822784932E-1,8.343553982E0,-1.435772109E-1,8.358714017E0
1.448925592E1,-1.847653269E-1,7.931199564E0,2.162334701E-1,7.936297730E0
1.449927992E1,8.262367878E-2,7.490219516E0,5.039927132E-1,7.507611053E0
1.450930392E1,2.652630677E-1,7.103796914E0,6.970325446E-1,7.142839034E0
1.451932792E1,3.162835691E-1,6.861014088E0,8.106638253E-1,6.915976103E0
1.452935192E1,3.511752936E-1,6.687972758E0,8.824079919E-1,6.755068287E0
1.453937492E1,3.521481972E-1,6.608965180E0,9.612963597E-1,6.687788857E0
1.454939892E1,4.766891398E-1,6.839431431E0,1.119818981E0,6.946873353E0
1.455942292E1,6.689661288E-1,7.548632616E0,1.190707115E0,7.671189835E0
1.456944692E1,6.623054923E-1,8.183356646E0,1.132030306E0,8.287790246E0
1.457947092E1,5.303017119E-1,8.643851776E0,1.019556847E0,8.719913393E0
1.458949492E1,4.083598202E-1,9.011561533E0,9.177136993E-1,9.067369930E0
1.459951892E1,2.768545880E-1,9.328068393E0,9.154203482E-1,9.376966611E0
1.460954192E1,1.662952882E-1,9.585982059E0,9.941857783E-1,9.638833514E0
1.461956592E1,1.078716636E-1,9.717300582E0,1.167589563E0,9.787789959E0
1.462958992E1,2.064542394E-1,9.530997766E0,1.450416899E0,9.642937880E0
1.463961392E1,4.283647529E-1,8.688377153E0,1.726451232E0,8.868597847E0
1.464963792E1,6.094217756E-1,7.381270101E0,1.944597838E0,7.657414966E0
1.465966192E1,8.771386273E-1,5.405370802E0,2.089892230E0,5.861318556E0
1.466968592E1,1.103358338E0,-7.896255434E-1,1.698502711E0,2.173895025E0
1.467970892E1,2.252855885E0,-3.524518227E1,5.219279070E0,3.570068776E1
1.468973292E1,3.728840319E-1,-7.065199561E1,8.940924829E0,7.121645640E1
1.469975692E1,-1.214067180E0,-6.643159229E1,-7.703243523E0,6.688774458E1
1.470978092E1,-3.158697763E0,-4.232623059E1,-1.944778897E1,4.668729659E1
1.471980492E1,-2.716480152E0,-2.160994080E1,-1.948730329E1,2.922539641E1
1.472982892E1,-4.582750882E-1,-1.259551764E1,-1.806293793E1,2.202559437E1
1.473985292E1,9.708455937E-1,-9.446668637E0,-1.442288714E1,1.726851942E1
1.474987592E1,6.217819490E-3,-9.434896438E0,-8.004603170E0,1.237299403E1
1.475989992E1,-2.231833244E0,-6.915092647E0,-2.795196831E0,7.785416577E0
1.476992392E1,-4.220057743E0,-5.105136158E0,-1.826210579E0,6.870687566E0
1.477994792E1,-5.215525743E0,-4.448393269E0,-4.394375521E-1,6.868989504E0
1.478997192E1,-4.929367687E0,-4.779546819E0,-3.971244684E-1,6.877531637E0
1.479999592E1,-3.335585392E0,-5.312485442E0,-1.296879687E0,6.405507662E0
1.481001892E1,-2.452710500E0,-6.188252751E0,-2.017703675E0,6.955673154E0
1.482004292E1,-2.959246021E0,-6.035593060E0,-2.600187511E0,7.207391740E0
1.483006692E1,-3.634635389E0,-4.726043626E0,-2.878006268E0,6.620346128E0
1.484009092E1,-3.587851232E0,-3.579630924E0,-2.783536898E0,5.782258354E0
1.485011492E1,-2.566485330E0,-2.510855212E0,-2.603578312E0,4.435071687E0
1.486013892E1,-1.537741995E0,-2.233386118E0,-1.756351847E0,3.230702061E0
1.487016292E1,-8.303336395E-1,-1.922089713E0,-6.000187585E-1,2.178050809E0
1.488018592E1,-1.536398853E-1,-1.289767719E0,7.671576172E-2,1.301149988E0
1.489020992E1,3.706247409E-1,-4.116305333E-1,6.558438805E-1,8.584483619E-1
1.490023392E1,7.304191227E-1,6.979914880E-1,1.083017921E0,1.481091499E0
1.491025792E1,1.203177033E0,2.059600437E0,1.329182923E0,2.730625602E0
1.492028192E1,1.694423255E0,3.509071403E0,1.717089548E0,4.258291770E0
1.493030592E1,1.509814816E0,4.473675460E0,1.907673987E0,5.092399527E0
1.494032992E1,1.309204595E0,5.418923478E0,1.630427234E0,5.808359605E0
1.495035292E1,1.197050540E0,6.497742367E0,1.494345861E0,6.773968956E0
1.496037692E1,1.069517431E0,7.288295864E0,1.642967172E0,7.547348227E0
1.497040092E1,1.066509185E0,7.926008990E0,1.772030278E0,8.191407185E0
1.498042492E1,9.306215740E-1,8.427033511E0,1.755549170E0,8.658111988E0
1.499044892E1,1.294669586E0,9.001330075E0,1.503217403E0,9.217362693E0
1.500047292E1,8.114379235E-1,9.186322530E0,1.254627853E0,9.307042719E0
1.501049692E1,5.943410390E-1,9.280029423E0,9.550364037E-1,9.347956028E0
1.502051992E1,9.126175585E-1,9.247649297E0,5.806356771E-1,9.310694180E0
1.503054392E1,1.131821195E0,8.876212524E0,2.711235492E-1,8.952188334E0
1.504056792E1,1.337952869E0,8.009894316E0,6.562680960E-2,8.121134878E0
1.505059192E1,1.060387077E0,6.609231228E0,3.020905495E-2,6.693823330E0
1.506061592E1,7.072846140E-1,5.138484583E0,1.509682377E-1,5.189129672E0
1.507063992E1,7.353908640E-1,3.333357310E0,2.397511176E-1,3.421922162E0
1.508066292E1,7.896995837E-1,9.127170342E-1,3.361049724E-1,1.252854489E0
1.509068692E1,7.331230214E-1,-1.855711536E0,5.814378420E-1,2.078269625E0
1.510071092E1,3.078529805E-1,-4.290778647E0,1.071685871E0,4.433290591E0
1.511073492E1,-6.469648104E-1,-5.588386313E0,1.346897939E0,5.784700434E0
1.512075892E1,-1.865914927E0,-5.315592068E0,1.165904396E0,5.752954946E0
1.513078292E1,-3.169994876E0,-4.605035498E0,7.973602402E-1,5.647211950E0
1.514080692E1,-4.055928154E0,-3.855965658E0,7.067225504E-1,5.640787277E0
1.515082992E1,-3.834380369E0,-2.682411935E0,7.626289487E-1,4.741245566E0
1.516085392E1,-2.050509479E0,-1.692477740E0,7.713565028E-1,2.768404031E0
1.517087792E1,-5.631629908E-1,-1.425400903E0,5.027202860E-1,1.612962484E0
1.518090192E1,6.802199358E-2,-1.236846324E0,2.919420489E-1,1.272653127E0
1.519092592E1,4.189085992E-1,-1.027003203E0,1.209261938E-1,1.115725386E0
1.520094992E1,8.342487158E-1,-8.697686505E-1,-2.680129766E-2,1.205481951E0
1.521097292E1,1.404619898E0,-6.498636407E-1,-3.700493748E-1,1.591293923E0
1.522099692E1,2.013154688E0,-4.438077611E-1,-1.074954464E0,2.324926714E0
1.523102092E1,2.501107611E0,-1.678864253E-1,-2.041197788E0,3.232679004E0
1.524104492E1,2.705336821E0,2.778643656E-1,-2.940660646E0,4.005438922E0
1.525106892E1,2.545675381E0,6.731823367E-1,-3.298572224E0,4.220689082E0
1.526109292E1,1.728737055E0,6.196551704E-1,-3.060028922E0,3.568792701E0
1.527111692E1,9.712262475E-1,5.159653258E-1,-2.359632328E0,2.603337352E0
1.528114092E1,7.105325230E-1,6.102370602E-1,-1.504562262E0,1.772273494E0
1.529116392E1,6.774091427E-1,7.957978642E-1,-6.949450886E-1,1.255040264E0
1.530118792E1,5.560661155E-1,8.297561538E-1,-1.209881743E-1,1.006152542E0
1.531121192E1,2.693616552E-1,8.328177559E-1,2.398152177E-1,9.075530037E-1
1.532123592E1,1.572701840E-2,7.423601604E-1,2.672516692E-1,7.891573997E-1
1.533125992E1,1.139213026E-2,6.250077116E-1,1.467018168E-1,6.420948865E-1
1.534128442E1,1.796132903E-1,5.601486415E-1,8.288998291E-2,5.940523410E-1
1.535130742E1,3.611496568E-1,5.203975153E-1,1.538504764E-1,6.518532179E-1
1.536133142E1,4.370523997E-1,3.854350072E-1,2.423368295E-1,6.311117839E-1
1.537135542E1,4.579062385E-1,2.392885298E-1,3.463973144E-1,6.220355482E-1
1.538137942E1,4.954453630E-1,1.832441372E-1,4.593512683E-1,7.000343629E-1
1.539140342E1,5.321880602E-1,1.912244171E-1,5.421361475E-1,7.833916718E-1
1.540142742E1,5.115914258E-1,2.334266961E-1,6.480878413E-1,8.580394276E-1
1.541145142E1,4.228284629E-1,2.699735481E-1,7.749526866E-1,9.231583245E-1
1.542147442E1,3.338398707E-1,2.545398223E-1,7.916206864E-1,8.960484873E-1
1.543149842E1,2.033036683E-1,9.459508538E-2,7.586821512E-1,7.911252861E-1
1.544152242E1,8.649105462E-2,-7.685872614E-2,6.884758023E-1,6.981310025E-1
1.545154642E1,1.177176987E-2,-2.705079836E-1,6.244602661E-1,6.806348269E-1
1.546157042E1,-4.476826561E-2,-3.916681391E-1,5.674944985E-1,6.909834547E-1
1.547159442E1,-8.455269350E-2,-4.603454411E-1,5.984801368E-1,7.597667782E-1
1.548161742E1,-7.871666978E-2,-4.667884880E-1,6.325167060E-1,7.900412584E-1
1.549164142E1,4.065998448E-2,-3.138715196E-1,6.912810771E-1,7.602881643E-1
1.550166542E1,8.911461806E-2,-2.559086555E-1,7.023150654E-1,7.527795868E-1
1.551168942E1,1.959000517E-1,-1.044476438E-1,5.366879312E-1,5.807926274E-1
1.552171342E1,3.195319898E-1,2.187618792E-2,3.328364519E-1,4.619083933E-1
1.553173742E1,4.585432561E-1,1.622918093E-1,2.219206913E-1,5.346488028E-1
1.554176142E1,6.214117471E-1,3.445553684E-1,2.476121143E-1,7.524511416E-1
1.555178442E1,7.062759693E-1,4.944113195E-1,3.546967793E-1,9.322435856E-1
1.556180842E1,7.077694213E-1,6.419716537E-1,4.008115764E-1,1.036202238E0
1.557183242E1,5.998849669E-1,6.891569299E-1,3.379528387E-1,9.741721453E-1
1.558185642E1,3.981654190E-1,6.812678665E-1,2.735748482E-1,8.351675307E-1
1.559188042E1,1.679415718E-1,6.906965017E-1,1.953426842E-1,7.371735164E-1
1.560190442E1,-2.112915130E-2,6.651014847E-1,1.578562577E-1,6.839042506E-1
1.561192842E1,-1.166868894E-1,3.229469830E-1,1.516757508E-1,3.753879558E-1
1.562195142E1,-3.396217711E-2,1.566989475E-1,1.010002716E-1,1.894968192E-1
1.563197542E1,1.659047491E-1,2.364654940E-1,2.201486926E-1,3.631883292E-1
1.564199942E1,3.515283193E-1,3.511393332E-1,4.019361421E-1,6.390803181E-1
1.565202342E1,3.558426873E-1,4.597116029E-1,5.638598692E-1,8.098745138E-1
1.566204742E1,2.955876417E-1,4.929220337E-1,7.280486615E-1,9.275769718E-1
1.567207142E1,2.745841507E-1,4.732783127E-1,9.995033093E-1,1.139471668E0
1.568209542E1,2.175595455E-1,3.914909685E-1,1.299352913E0,1.374378160E0
1.569211842E1,8.545939565E-2,1.341509145E-1,1.449168226E0,1.457871162E0
1.570214242E1,-1.288221642E-1,-3.907384318E-1,1.384170431E0,1.444021971E0
1.571216642E1,-2.550235698E-1,-1.220806827E0,1.186665373E0,1.721505457E0
1.572219042E1,-3.365768427E-1,-2.232703748E0,1.103681981E0,2.513237735E0
1.573221442E1,-4.279779596E-1,-3.199121611E0,1.012180073E0,3.382610341E0
1.574223842E1,-4.568497198E-1,-3.751536140E0,9.415524320E-1,3.894772915E0
1.575226142E1,-2.659545375E-1,-3.337831600E0,1.068742529E0,3.514834590E0
1.576228542E1,1.517392661E-1,-2.044243310E0,1.300085423E0,2.427380816E0
1.577230942E1,5.229720443E-1,-6.195002192E-1,1.386390034E0,1.606037860E0
1.578233342E1,7.760346407E-1,3.592137533E-1,1.420051285E0,1.657651935E0
1.579235742E1,9.412270345E-1,8.340561962E-1,1.343674954E0,1.840385952E0
1.580238142E1,9.883504032E-1,7.098116344E-1,1.106453488E0,1.644660572E0
1.581240542E1,8.978118968E-1,1.431766766E-1,8.139337344E-1,1.220267957E0
1.582242842E1,7.663625421E-1,-5.136182535E-1,5.513842499E-1,1.074774324E0
1.583245242E1,6.263870698E-1,-1.110882681E0,3.867266572E-1,1.332658471E0
1.584247642E1,4.052921516E-1,-1.482382019E0,2.792197502E-1,1.561948094E0
1.585250042E1,1.387973314E-1,-1.382701026E0,2.367163396E-1,1.409667142E0
1.586252442E1,-6.745311432E-2,-1.110330704E0,1.540214344E-1,1.122990114E0
1.587254842E1,-2.176190409E-1,-7.793689424E-1,-1.638631023E-2,8.093469630E-1
1.588257242E1,-2.892702368E-1,-1.889258766E-1,-2.629797665E-1,4.341988189E-1
1.589259542E1,-1.982005839E-1,6.442275095E-1,-5.592556985E-1,8.758307438E-1
1.590261942E1,-5.001803286E-2,1.502823885E0,-9.088830149E-1,1.757000219E0
1.591264342E1,5.941721275E-2,2.134032569E0,-1.356340023E0,2.529285209E0
1.592266742E1,3.078654058E-2,2.577214678E0,-1.911344869E0,3.208772743E0
1.593269142E1,-6.365264341E-2,2.728221361E0,-2.541824405E0,3.729358492E0
1.594271542E1,-8.739160806E-2,2.829937770E0,-3.076525379E0,4.181051720E0
1.595273942E1,-1.238921209E-1,2.781914588E0,-3.606825739E0,4.556708236E0
1.596276242E1,-2.402695464E-1,2.635521358E0,-4.128544725E0,4.903935545E0
1.597278642E1,-4.922890726E-1,2.291290510E0,-4.503572273E0,5.076861624E0
1.598281042E1,-8.480189086E-1,1.759113194E0,-4.464519889E0,4.872940913E0
1.599283442E1,-1.190598795E0,1.109974608E0,-4.153039881E0,4.460640019E0
1.600285842E1,-1.442996344E0,5.140047544E-1,-3.786325904E0,4.084446497E0
1.601288242E1,-1.421889796E0,-1.156877464E-1,-3.412681807E0,3.698858116E0
1.602290642E1,-1.274564373E0,-6.272623980E-1,-2.919607161E0,3.246856701E0
1.603292942E1,-1.463028612E0,-1.054285727E0,-2.432494336E0,3.028035636E0
1.604295342E1,-2.028712813E0,-1.423785902E0,-2.073786367E0,3.231629909E0
1.605297742E1,-2.770157299E0,-1.467785615E0,-1.730143164E0,3.580720799E0
1.606300142E1,-3.417661588E0,-1.434260019E0,-1.540254836E0,4.013713679E0
1.607302542E1,-4.029196438E0,-1.518220773E0,-1.378698606E0,4.521087049E0
1.608304942E1,-4.712997319E0,-1.627583587E0,-1.285988663E0,5.149285280E0
1.609307242E1,-5.440252367E0,-1.507868863E0,-1.209158589E0,5.773394046E0
1.610309642E1,-5.950825975E0,-1.055575038E0,-1.136317484E0,6.149616725E0
1.611312042E1,-5.605025734E0,1.827038544E-1,-9.223362887E-1,5.683343946E0
1.612314442E1,-4.050755707E0,2.231489866E0,-4.902247131E-1,4.650643944E0
1.613316842E1,-2.445835197E0,4.114826573E0,1.017415615E-1,4.787928454E0
1.614319242E1,-1.242622789E0,5.793611303E0,7.128024852E-1,5.968092719E0
1.615321642E1,-1.747697675E-1,7.290499679E0,1.316570186E0,7.410484944E0
1.616323942E1,6.644425035E-1,8.425195146E0,1.658632886E0,8.612575697E0
1.617326342E1,1.372111426E0,9.141270903E0,1.749342497E0,9.407748012E0
1.618328742E1,2.029016868E0,9.644209217E0,1.573628404E0,9.980179719E0
1.619331142E1,2.569194637E0,9.865885348E0,1.206565933E0,1.026607306E1
1.620333542E1,3.038711143E0,9.757124798E0,8.119092822E-1,1.025155824E1
1.621335942E1,3.344022632E0,9.387107729E0,4.211328435E-1,9.973847390E0
1.622338342E1,3.458650570E0,8.900008353E0,2.293862929E-2,9.548452159E0
1.623340642E1,3.458060586E0,8.509257642E0,-2.976501739E-1,9.189899034E0
1.624343042E1,3.364837258E0,8.171966270E0,-5.833346057E-1,8.856830231E0
1.625345442E1,3.273061992E0,7.833614212E0,-9.245161307E-1,8.540092301E0
1.626347842E1,3.156059791E0,7.330146725E0,-1.304378157E0,8.086604157E0
1.627350242E1,3.016652815E0,6.699114043E0,-1.653895472E0,7.530849447E0
1.628352642E1,2.889381734E0,5.603103170E0,-1.692968906E0,6.527590341E0
1.629355042E1,2.786038045E0,4.289951266E0,-1.603078490E0,5.360555055E0
1.630357342E1,2.749265490E0,2.992231919E0,-1.476630113E0,4.323464939E0
1.631359742E1,2.713695123E0,1.371463262E0,-1.468894247E0,3.376788861E0
1.632362142E1,2.485391757E0,-7.667389566E-1,-1.752285401E0,3.136170426E0
1.633364542E1,2.169638019E0,-3.223364167E0,-2.209663965E0,4.469901624E0
1.634366967E1,2.169763150E0,-5.832560191E0,-2.450552877E0,6.688186594E0
1.635369367E1,2.552788519E0,-7.694631159E0,-1.293385391E0,8.209562940E0
1.636371667E1,2.573275409E0,-8.562808197E0,1.066357888E0,9.004473871E0
1.637374067E1,1.986092166E0,-1.019213192E1,5.049439090E0,1.154646917E1
1.638376467E1,1.220494001E0,-1.280128350E1,8.574880943E0,1.545610067E1
1.639378867E1,5.572466683E-1,-1.505219022E1,1.040625344E1,1.830762314E1
1.640381267E1,-3.314809942E-1,-1.711293144E1,1.094714077E1,2.031753414E1
1.641383667E1,-2.184721497E-1,-1.849305911E1,9.735690075E0,2.090034992E1
1.642386067E1,1.218043140E0,-1.822146647E1,6.973820912E0,1.954839245E1
1.643388367E1,2.948538015E0,-1.614031261E1,3.791129977E0,1.683972191E1
1.644390767E1,3.602561365E0,-1.188729820E1,7.202682102E-1,1.244206949E1
1.645393167E1,3.033742764E0,-7.936262668E0,-9.667936926E-1,8.551172454E0
1.646395567E1,2.237516592E0,-5.803906496E0,-3.119733672E-1,6.228092685E0
1.647397967E1,2.083113846E0,-4.328069850E0,1.939516754E0,5.180084667E0
