"Time (s)","Linear Acceleration x (m/s^2)","Linear Acceleration y (m/s^2)","Linear Acceleration z (m/s^2)","Absolute acceleration (m/s^2)"
5.312916677E-3,-4.216792658E-3,5.325703219E-1,6.579053164E-2,5.366351863E-1
1.533691667E-2,-3.683778386E-1,3.030956127E-1,4.311976558E-1,6.430401238E-1
2.536091668E-2,-4.576714728E-1,-1.894540264E-1,3.941228002E-1,6.329998316E-1
3.538550000E-2,-4.002255758E-1,-1.955986460E-1,2.515823007E-2,4.461751656E-1
4.540950002E-2,-1.703717295E-1,2.110098600E-1,-4.120532870E-2,2.743165440E-1
5.543350001E-2,2.700104403E-2,4.760575674E-1,-9.444832027E-2,4.860867711E-1
6.545750002E-2,8.007917153E-2,3.451409671E-1,-2.146431005E-1,4.142542956E-1
7.548150001E-2,9.908388320E-2,7.015416250E-2,-4.331851244E-1,4.498761768E-1
8.550550000E-2,-9.429892391E-2,-2.299332771E-1,8.384088635E-2,2.622801807E-1
9.552850001E-2,-2.069246845E-1,-3.248322715E-1,1.344742656E-1,4.079425912E-1
1.055525000E-1,-2.650020260E-2,-4.594582723E-1,-2.523436081E-1,5.248632787E-1
1.155765000E-1,1.289329507E-1,-6.714490758E-1,1.545746541E-1,7.009713909E-1
1.256005000E-1,3.078961037E-3,-7.624647881E-1,5.142082375E-1,9.196587110E-1
1.356245000E-1,-1.895704225E-1,-5.831856479E-1,3.523730958E-1,7.072547233E-1
1.456485000E-1,-2.143217960E-1,-1.552076152E-1,6.807153046E-2,2.732342755E-1
1.556725000E-1,-3.081340123E-1,9.500029743E-2,-6.889014065E-2,3.297233348E-1
1.656965000E-1,-3.890937928E-1,2.001221251E-1,-2.337260735E-1,4.960551602E-1
1.757205000E-1,-4.017376292E-1,2.766436131E-1,-3.390917301E-1,5.940606138E-1
1.857435000E-1,-3.522503042E-1,1.987755114E-1,-2.232759297E-1,4.620001315E-1
1.957675000E-1,-2.414871742E-1,1.212826547E-1,-1.075484222E-1,2.908473840E-1
2.057915000E-1,-1.569670607E-1,2.498021159E-1,1.205409354E-1,3.187002860E-1
2.158155000E-1,-2.200321503E-1,2.891861831E-1,1.027385026E-1,3.776214977E-1
2.258395000E-1,-1.819937832E-1,7.272415996E-2,7.206517875E-2,2.088155419E-1
2.358635000E-1,-1.373499628E-1,-1.838738823E-1,1.969599509E-1,3.024365043E-1
2.458875000E-1,-1.724423564E-1,-2.542802791E-1,3.197245824E-1,4.434169992E-1
2.559115000E-1,-2.149215011E-1,-1.000364312E-1,3.109321243E-1,3.909953006E-1
2.659355000E-1,-2.385817476E-1,8.758515090E-2,3.218827897E-1,4.101230782E-1
2.759585000E-1,-1.996570157E-1,1.395591505E-1,1.492074949E-1,2.856616126E-1
2.859825000E-1,-1.155080542E-1,2.556002149E-1,-1.518691474E-1,3.189636631E-1
2.960065000E-1,-8.100674093E-2,4.375266820E-1,-3.998934174E-1,5.982528185E-1
3.060305000E-1,-3.511884499E-1,5.105997015E-1,-8.929136842E-1,1.086894765E0
3.160545000E-1,-6.807129657E-1,4.207271929E-1,-1.209050415E0,1.449891175E0
3.260785000E-1,-6.492039286E-1,3.853362624E-1,-5.447184241E-1,9.309500188E-1
3.361025000E-1,-6.659676035E-1,1.816769372E-1,-6.116579336E-1,9.223040638E-1
3.461265000E-1,-1.886252713E0,-1.151658459E0,-3.479699085E0,4.122204777E0
3.561505000E-1,-3.341452780E0,-7.439153004E-1,-4.776245481E0,5.876328577E0
3.661735000E-1,-2.041138146E0,5.469023226E-1,-1.491294345E0,2.586369252E0
3.761975000E-1,-1.815638813E0,1.699457415E-1,1.350337272E0,2.269104802E0
3.862215000E-1,-2.684968630E0,-7.227193630E-1,1.540793949E0,3.178903241E0
3.962455000E-1,-3.290261577E0,-4.733992404E-1,-2.763143857E0,4.322602463E0
4.062695000E-1,-3.018429784E0,1.320375846E-1,-4.989382339E0,5.832862796E0
4.162935000E-1,-2.468218485E0,7.643070996E-1,-5.009714277E0,5.636799178E0
4.263175000E-1,-1.641288875E0,1.129806390E0,-3.948186189E0,4.422495431E0
4.363415000E-1,-1.596536626E0,6.206624995E-1,-1.361533520E0,2.188132688E0
4.463655000E-1,-3.184066785E0,4.752069071E-1,-1.175211409E0,3.427130688E0
4.563885000E-1,-3.670606583E0,3.937059668E-1,-1.023130007E0,3.830816112E0
4.664125000E-1,-4.001067238E0,6.562476307E-1,-2.464773306E0,4.744924387E0
4.764365000E-1,-3.961772195E0,6.124302777E-1,-4.697816193E0,6.175774182E0
4.864605000E-1,-2.653411499E0,1.265681137E0,-5.445045329E0,6.187977049E0
4.964845000E-1,-1.696106522E0,1.501005547E0,-4.343591284E0,4.898630444E0
5.065085000E-1,-2.271148022E0,6.725160465E-1,-3.267828734E0,4.035975199E0
5.165325000E-1,-6.569867188E-1,1.422233758E0,-1.552340446E0,2.205479828E0
5.265565000E-1,1.851990368E0,4.067257719E0,-2.642480714E0,5.191835706E0
5.365805000E-1,7.616259173E0,1.730078553E0,-5.112787240E0,9.334943436E0
5.466035000E-1,9.715873861E0,-8.629797408E-1,-3.573056899E0,1.038795815E1
5.566275000E-1,8.825393203E0,-1.620951090E0,-2.026177168E-1,8.975305096E0
5.666515000E-1,4.387457095E0,-2.671633762E0,-8.778109109E-1,5.211329842E0
5.766755000E-1,6.417615925E-1,-4.756093052E0,6.004183572E0,7.686514127E0
5.866995000E-1,2.635525744E-1,-5.777577653E0,1.163918447E1,1.299694113E1
5.967235000E-1,-1.162289208E0,-5.242795987E0,1.079502195E1,1.205696168E1
6.067475000E-1,-3.820027501E0,-5.563958400E0,7.950404159E0,1.042876644E1
6.167715000E-1,-3.921717013E0,-5.245682173E0,5.550313922E0,8.585046909E0
6.267945000E-1,-3.359124528E0,-3.794888859E0,6.621886942E0,8.338722067E0
6.368185000E-1,-3.071934730E0,-2.508268112E0,7.294988002E0,8.303315113E0
6.468425000E-1,-3.448655047E0,-1.030617075E0,3.419602572E0,4.964783474E0
6.568665000E-1,-4.068788812E0,-2.167823043E-1,-9.480149209E-2,4.075662436E0
6.668905000E-1,-3.840043982E0,9.582826316E-2,-1.061777179E0,3.985284384E0
6.769145000E-1,-2.383103198E0,6.379867762E-1,-1.198913682E0,2.742918518E0
6.869385000E-1,-3.359287519E-1,1.100997963E0,-6.279143625E-1,1.311228846E0
6.969625000E-1,9.834575994E-1,9.227909097E-1,1.511446774E-2,1.348688385E0
7.069865000E-1,1.549469171E0,6.283628440E-1,2.246406698E-1,1.687056017E0
7.170095000E-1,1.161296205E0,4.105242401E-1,-2.791109920E-1,1.262949711E0
7.270335000E-1,2.089632249E-1,3.438425928E-1,-7.837526000E-1,8.810002815E-1
7.370575000E-1,-3.832230055E-1,2.935103452E-1,-6.104545766E-1,7.782435254E-1
7.470815000E-1,-2.599893177E-1,2.004071769E-1,-8.950332999E-2,3.402474511E-1
7.571055000E-1,-1.514902844E-1,3.300753236E-3,2.098162240E-1,2.588108365E-1
7.671295000E-1,-3.859748879E-1,-2.860045668E-1,5.269171607E-1,7.130336042E-1
7.771535000E-1,-3.634951943E-1,-3.802874109E-1,7.669512105E-1,9.300330265E-1
7.871775000E-1,-1.848411214E-1,-9.311106205E-2,2.494825655E-1,3.241565371E-1
7.972015000E-1,-1.125145721E-1,3.344361770E-1,-2.778573489E-1,4.491233592E-1
8.072245000E-1,4.385009743E-2,4.382365340E-1,-2.535586596E-1,5.081988633E-1
8.172485000E-1,1.789507825E-1,3.597689465E-1,1.595851332E-1,4.323476520E-1
8.272725000E-1,2.847513624E-2,3.418875763E-1,2.904306167E-1,4.494973763E-1
8.372965000E-1,-1.796367706E-1,3.571485168E-1,1.447910929E-1,4.251927715E-1
8.473205000E-1,-2.203721293E-1,3.625963676E-1,5.558363199E-2,4.279363753E-1
8.573445000E-1,-2.073664233E-1,1.659679538E-1,7.326034963E-2,2.755236361E-1
8.673685000E-1,-2.401151799E-1,-4.982295513E-2,9.784847617E-2,2.640302080E-1
8.773925000E-1,-3.409069982E-1,-2.098977926E-1,7.446078300E-2,4.072088813E-1
8.874155000E-1,-4.106601514E-1,-2.497948068E-1,1.670222068E-1,5.088571735E-1
8.974395000E-1,-3.883433757E-1,-1.235849959E-1,3.233574575E-1,5.202344414E-1
9.074635000E-1,-3.607510594E-1,-1.206397533E-2,1.918085539E-1,4.087510095E-1
9.174875000E-1,-2.780515130E-1,-1.069865048E-1,2.290062010E-2,2.988029359E-1
9.275115000E-1,-1.607567690E-1,-3.213802215E-1,-4.435697794E-2,3.620711630E-1
9.375355000E-1,-1.208211632E-1,-4.809475207E-1,-2.817989570E-1,5.703673582E-1
9.475595000E-1,3.104264863E-2,-6.478171152E-1,-4.395591742E-1,7.834812878E-1
9.575835000E-1,1.859331255E-1,-8.400940311E-1,-5.893274170E-1,1.042897844E0
9.676075000E-1,2.896721232E-1,-9.508031657E-1,-6.143564236E-1,1.168490656E0
9.776305000E-1,3.600784469E-1,-9.244825092E-1,-6.223103911E-1,1.171150981E0
9.876545000E-1,3.373173194E-1,-9.219620669E-1,-7.850664693E-1,1.257030782E0
9.976785000E-1,2.096668642E-1,-9.650952226E-1,-9.050408095E-1,1.339577489E0
1.007702500E0,4.176289726E-2,-1.160573489E0,-8.006674254E-1,1.410582606E0
1.017726500E0,-9.498469267E-2,-1.447037355E0,-5.930140865E-1,1.566717876E0
1.027750500E0,-1.186740656E-1,-1.498171548E0,-2.494866586E-1,1.523432018E0
1.037773917E0,5.006261788E-2,-1.109619098E0,5.237760365E-2,1.111982114E0
1.047797917E0,2.512177450E-1,-5.060183349E-1,1.155275327E-1,5.766381201E-1
1.057821917E0,3.559426747E-1,9.153757632E-2,1.510423511E-1,3.973513652E-1
1.067844917E0,3.136335379E-1,6.273223320E-1,3.649305761E-1,7.906159811E-1
1.077868917E0,9.680717843E-2,1.126331902E0,3.478625536E-1,1.182794800E0
1.087892917E0,-4.283566764E-1,1.587034608E0,3.022694743E-1,1.671387185E0
1.097916917E0,-6.738201948E-1,2.138356877E0,4.367647898E-1,2.284155702E0
1.107940917E0,-6.024253993E-1,2.528028192E0,7.403838015E-1,2.702223358E0
1.117964917E0,-6.342362990E-1,2.412195143E0,1.081455984E0,2.718545224E0
1.127988917E0,-8.622591446E-1,2.235824407E0,1.225385782E0,2.691462786E0
1.138012917E0,-1.102423514E0,2.103862398E0,1.356095610E0,2.735063052E0
1.148036917E0,-1.269015366E0,1.827244074E0,1.212434199E0,2.533617491E0
1.158059917E0,-1.052389986E0,1.186505013E0,7.142403156E-1,1.739384391E0
1.168083917E0,-5.859255800E-1,3.056678760E-1,4.440995371E-1,7.962198407E-1
1.178107917E0,-1.564854511E-1,-1.660524461E-1,1.919991732E-2,2.289754312E-1
1.188131917E0,3.790285785E-2,-2.629332080E-1,-2.224257445E-1,3.464732462E-1
1.198155917E0,2.548863430E-2,1.220840156E-2,-2.023931837E-1,2.043568358E-1
1.208179917E0,-7.881703176E-2,2.290629190E-1,1.558703971E-1,2.880581991E-1
1.218203917E0,1.386162870E-2,1.775200054E-1,1.038453805E-1,2.061294742E-1
1.228227917E0,1.334270841E-1,-3.435552022E-1,2.704980433E-2,3.695465541E-1
1.238250917E0,1.848237990E-1,-8.286139002E-1,-1.849170256E-1,8.688815447E-1
1.248274917E0,1.504548156E-1,-9.321558103E-1,-5.344419426E-1,1.084978938E0
1.258298917E0,1.946885086E-1,-8.115359375E-1,-5.381291968E-1,9.930142122E-1
1.268322917E0,8.399371795E-2,-2.307738143E-1,1.219354963E-1,2.741892837E-1
1.278346917E0,-1.164000652E-1,1.265363780E-1,-2.134859365E-1,2.741106988E-1
1.288370917E0,-6.364606529E-2,-3.332921693E-1,-5.356926620E-2,3.435173329E-1
1.298394917E0,-4.441905710E-1,-8.331299973E-1,1.735886300E-1,9.599707642E-1
1.308418917E0,-4.237911339E-1,-9.834817922E-1,1.314851689E-1,1.078945648E0
1.318442917E0,-1.999367319E-1,-8.165335527E-1,1.051697749E-1,8.472086054E-1
1.328465917E0,-1.277845575E-1,-6.208123344E-1,-4.355240107E-2,6.353216975E-1
1.338489917E0,-3.451992565E-1,-4.515769565E-1,-7.643129468E-2,5.735207208E-1
1.348513917E0,-3.939644869E-1,-6.979412019E-2,1.706936735E-1,4.349891565E-1
1.358537917E0,-6.017959831E-2,5.209942237E-1,-1.177892357E-1,5.375229011E-1
1.368561917E0,1.136622526E-1,5.297232395E-1,-7.805483258E-1,9.501481501E-1
1.378585917E0,5.899710858E-2,3.275578049E-1,-8.675420308E-1,9.291953237E-1
1.388609917E0,2.926304854E-2,2.082675889E-1,-3.566953576E-1,4.140812634E-1
1.398633917E0,-1.720899155E-1,2.320954312E-1,-7.843455076E-2,2.993913943E-1
1.408657917E0,-1.562627270E-1,3.075394236E-1,2.317929840E-1,4.156038069E-1
1.418680917E0,-1.095073674E-1,4.295082490E-1,3.540389675E-1,5.672854572E-1
1.428704917E0,-2.702870502E-1,4.662081519E-1,2.986675894E-1,6.161229255E-1
1.438728917E0,-4.813767064E-1,8.234475929E-1,3.957582664E-1,1.032673267E0
1.448752917E0,-6.740156380E-1,1.491704381E0,4.498116821E-1,1.697589347E0
1.458776917E0,-7.931943914E-1,2.070812766E0,6.753715342E-1,2.318091793E0
1.468800917E0,-6.218303347E-1,2.443780486E0,6.448356199E-1,2.602796382E0
1.478824917E0,-1.069769884E0,2.197209395E0,7.823486835E-1,2.565970809E0
1.488848917E0,-9.855605505E-1,1.876849951E0,7.248822480E-1,2.240390504E0
1.498871917E0,-5.058576461E-1,1.137923422E0,5.956318849E-1,1.380412625E0
1.508895917E0,-2.184944787E-1,3.712582867E-1,5.134212023E-1,6.702043596E-1
1.518919917E0,-1.888689576E-1,4.666238889E-2,4.589894718E-1,4.985180006E-1
1.528943917E0,-2.173104906E-1,1.428793457E-1,9.157850683E-2,2.757262767E-1
1.538967917E0,-2.293514243E-1,3.197396390E-1,9.148261249E-2,4.039858673E-1
1.548991917E0,-2.845058341E-1,3.788102581E-1,2.771515900E-1,5.488659081E-1
1.559015917E0,-3.882274547E-1,2.486795966E-1,4.293908662E-1,6.300306455E-1
1.569039917E0,-3.925097727E-1,-3.843477175E-2,5.119137901E-1,6.462173642E-1
1.579063917E0,-1.463733494E-1,-1.633524942E-1,3.381573451E-1,4.030627554E-1
1.589086917E0,-2.335943284E-1,-6.493435308E-2,-5.070062220E-2,2.476960508E-1
1.599110917E0,-6.387497648E-1,-3.031964041E-1,-1.328446466E-1,7.194282602E-1
1.609134917E0,1.264224669E-1,-2.226181179E-2,-3.311009252E-1,3.551141381E-1
1.619158917E0,7.411192350E-2,8.543366790E-2,-4.671282113E-2,1.223665660E-1
1.629182917E0,3.792571681E-1,1.558575332E-2,-2.091449636E-1,4.333826612E-1
1.639206917E0,5.181267856E-1,-1.277245322E-1,-5.738825816E-1,7.836517974E-1
1.649230917E0,7.580457549E-1,-2.910831660E-1,-1.788265657E-1,8.314696126E-1
1.659254917E0,6.199618569E-1,-2.084707797E-1,-8.614989334E-1,1.081662231E0
1.669278917E0,9.175787017E-2,-1.887799886E-1,-4.910789913E-1,5.340561455E-1
1.679301917E0,8.505418360E-2,5.457367167E-1,-1.592027253E-1,5.748115220E-1
1.689325917E0,7.217320606E-2,5.250147691E-1,3.622665846E-1,6.419396839E-1
1.699349917E0,-2.639573844E-1,2.546360090E-1,7.276883268E-1,8.148885193E-1
1.709373917E0,-6.397329741E-1,1.666199183E-1,4.877928561E-1,8.215609203E-1
1.719397917E0,-6.037131390E-1,2.052118340E-1,-3.841328323E-2,6.387934183E-1
1.729421917E0,-1.924786448E-1,4.451134443E-2,1.620105582E-1,2.554930713E-1
1.739445917E0,-2.042713094E-1,-1.221214378E-1,3.681231558E-2,2.408226733E-1
1.749469917E0,-4.024035905E-1,-6.451531237E-1,2.304796994E-2,7.607117796E-1
1.759493917E0,-1.713191428E-1,-9.436403266E-1,2.897616953E-1,1.001882805E0
1.769516917E0,-5.322144092E-1,-8.792642364E-1,1.643851125E-1,1.040855533E0
1.779540917E0,3.977031235E-2,-6.403399882E-1,-1.037220043E-1,6.499040178E-1
1.789564917E0,2.326081224E-1,-6.729276904E-1,8.722467005E-2,7.173188679E-1
1.799588917E0,-2.332790173E-1,3.183428854E-2,-1.564106798E-1,2.826602600E-1
1.809612917E0,-8.636252734E-1,-1.063576367E-1,-3.671992958E-1,9.444553365E-1
1.819636917E0,-1.143448602E-2,-5.185360542E-1,-5.486822516E-1,7.550249004E-1
1.829660917E0,1.030622337E0,-1.153894215E0,-1.336281735E-1,1.552903973E0
1.839684917E0,1.109677278E0,-5.017782265E-1,-4.920022666E-2,1.218846057E0
1.849707917E0,1.859970063E-2,1.074137316E0,-3.851607728E-1,1.141256213E0
1.859731917E0,-2.608399048E-1,1.240771560E0,1.229248452E-1,1.273837524E0
1.869755917E0,-4.115898952E-1,4.773000276E-1,4.283529854E-1,7.620418875E-1
1.879779917E0,1.983441330E-1,4.889950436E-1,7.956177700E-1,9.547063337E-1
1.889803917E0,-3.771161735E-3,2.892904097E-1,8.282130736E-1,8.772913188E-1
1.899827917E0,-3.077894286E-1,1.954794359E-1,4.796131861E-1,6.024743567E-1
1.909851917E0,1.094489135E0,8.098645109E-1,9.087251401E-1,1.636938720E0
1.919875917E0,-4.302883041E-1,9.746893340E-1,1.808040941E-1,1.080674531E0
1.929899917E0,-1.329578633E0,9.365584713E-1,-1.461037928E-1,1.632870916E0
1.939922917E0,-1.105550605E0,8.370347679E-1,6.343813831E-1,1.524896417E0
1.949946917E0,-9.383205298E-1,9.539413664E-1,1.602492599E0,2.087685819E0
1.959970917E0,-1.127883461E0,1.136810697E0,1.760938110E0,2.380202237E0
1.969994917E0,-1.425757875E0,1.445173847E0,1.139986027E0,2.328278572E0
1.980018917E0,-1.699314305E0,1.652991785E0,1.133829494E0,2.627854690E0
1.990042917E0,-1.645758779E0,1.598886622E0,5.773254222E-1,2.366065306E0
2.000066917E0,-1.116934768E0,1.330497961E0,-2.852798045E-2,1.737406673E0
2.010090917E0,7.205406904E-2,1.296793149E0,6.851784843E-1,1.468446054E0
2.020114917E0,2.123664871E-1,8.698133817E-1,6.459366506E-1,1.104042119E0
2.030138292E0,2.247333482E-2,5.561903688E-1,-1.000575542E-2,5.567341307E-1
2.040162292E0,1.815820661E-1,6.361001721E-1,-2.607571667E-1,7.110483638E-1
2.050186292E0,3.032155538E-1,6.962379080E-1,-3.664005661E-1,8.431703692E-1
2.060210292E0,5.934134513E-1,2.636196712E-1,-7.032878959E-1,9.572088172E-1
2.070234292E0,1.157209513E0,-7.306104729E-1,-6.160632259E-1,1.500819582E0
2.080258292E0,1.418105039E0,-1.550838004E0,-1.582157153E-1,2.107404240E0
2.090282292E0,1.124850217E0,-1.815903107E0,-1.015889400E-1,2.138483673E0
2.100306292E0,1.114876037E0,-1.505008990E0,-1.104374145E0,2.174314349E0
2.110329292E0,1.087850645E0,-1.652843558E0,-1.479567754E0,2.470714794E0
2.120353292E0,8.769169448E-1,-1.692511946E0,-1.742144575E0,2.582372501E0
2.130377292E0,6.434102149E-1,-1.853661502E0,-1.832689878E0,2.684918967E0
2.140401292E0,1.944840936E-1,-1.813146437E0,-1.357969058E0,2.273632342E0
2.150425292E0,-2.526250054E-1,-1.551503125E0,-7.770680630E-1,1.753515359E0
2.160449292E0,-5.503603294E-1,-8.018403769E-1,-4.130841511E-1,1.056637591E0
2.170473292E0,-5.427151680E-1,-7.599655420E-2,-6.046313345E-2,5.513356694E-1
2.180497292E0,-3.530863099E-1,5.178554383E-1,3.706023753E-1,7.281416880E-1
2.190521292E0,-3.729693282E-1,1.046119213E0,9.554525793E-1,1.465046470E0
2.200544292E0,-9.292494518E-1,1.188561772E0,1.737324130E0,2.300973438E0
2.210568292E0,-1.700653463E0,1.370557820E0,1.750137718E0,2.798862800E0
2.220592292E0,-2.187226152E0,1.522757628E0,1.535305168E0,3.075696830E0
2.230616292E0,-2.136518513E0,1.136617154E0,1.187214573E0,2.695568280E0
2.240640292E0,-1.407853408E0,6.031101814E-1,7.917252785E-1,1.724129353E0
2.250664292E0,-6.715216544E-1,4.995343575E-1,7.452504390E-1,1.120657898E0
2.260688292E0,-2.334125897E-1,6.990448639E-1,6.871232682E-1,1.007612795E0
2.270712292E0,8.454342932E-4,6.666302392E-1,3.728430283E-1,7.638118317E-1
2.280735292E0,1.085479306E-1,2.784879711E-1,4.714609981E-2,3.025904130E-1
2.290759292E0,3.054586919E-1,-3.007044670E-1,4.125327587E-2,4.306158632E-1
2.300783292E0,3.419671715E-1,-9.007974851E-1,3.282205868E-1,1.017893123E0
2.310807292E0,4.157085277E-2,-8.353878996E-1,6.563324153E-2,8.389927300E-1
2.320831292E0,-1.076625160E-1,-1.169542533E-1,3.139153737E-1,3.518698290E-1
2.330855292E0,3.292935508E-1,8.134248805E-1,8.935668182E-1,1.252420032E0
2.340879292E0,1.380379973E-1,1.292445159E0,6.138208187E-1,1.437443903E0
2.350903292E0,-5.531148796E-1,1.317449607E0,3.831949389E-1,1.479340359E0
2.360927292E0,-1.009273349E0,1.222924688E0,6.952573299E-1,1.731346367E0
2.370950292E0,-8.122606999E-1,1.235123150E0,8.364278269E-1,1.698501737E0
2.380974292E0,-4.275356177E-1,1.193631307E0,9.912679446E-1,1.609395707E0
2.390998292E0,-5.036173220E-1,1.003965173E0,1.431232331E0,1.819341216E0
2.401022292E0,-7.788042475E-1,6.830910283E-1,1.360817821E0,1.710255698E0
2.411046292E0,-7.583673517E-1,9.999849737E-2,4.570160365E-1,8.910580213E-1
2.421070292E0,-3.380516566E-1,-3.579829144E-1,-2.799564993E-1,5.663976793E-1
2.431094292E0,3.798468232E-2,-6.634964240E-1,-6.888710010E-1,9.571904705E-1
2.441118292E0,2.292528073E-1,-6.927313328E-1,-9.050139123E-1,1.162533325E0
2.451142292E0,2.532855946E-1,-6.490842068E-1,-1.299509765E0,1.474513319E0
2.461165292E0,2.275883974E-1,-7.523267394E-1,-1.536231952E0,1.725630497E0
2.471189292E0,3.341683745E-1,-1.097933437E0,-1.501029959E0,1.889501859E0
2.481213292E0,5.260717995E-1,-1.385222345E0,-1.588361049E0,2.172207012E0
2.491237292E0,5.061079435E-1,-1.442717432E0,-1.846565321E0,2.397369876E0
2.501261292E0,4.366422907E-1,-1.593777325E0,-2.124975817E0,2.691896148E0
2.511285292E0,1.648445575E-1,-1.855060741E0,-2.527828510E0,3.139799525E0
2.521309292E0,2.066464484E-2,-1.997388402E0,-2.963057821E0,3.573471576E0
2.531333292E0,4.605785988E-1,-1.933087156E0,-2.837199427E0,3.463908080E0
2.541356292E0,1.095427759E0,-1.692312264E0,-2.331809961E0,3.082404981E0
2.551380292E0,1.824734449E0,-1.605386387E0,-1.856495063E0,3.058348440E0
2.561404292E0,2.210691174E0,-1.944863448E0,-1.315850978E0,3.225075673E0
2.571428292E0,2.333955304E0,-1.400128067E0,-1.438092869E0,3.078281512E0
2.581452292E0,2.267014479E0,-1.188264148E0,-1.283572009E0,2.863369246E0
2.591476292E0,1.681558503E0,-5.115302128E-1,-2.350188929E-1,1.773283970E0
2.601500292E0,9.391767083E-1,3.127248806E-1,1.259221280E-1,9.978507517E-1
2.611524292E0,1.362119119E-1,1.037834878E0,1.700235826E-1,1.060454118E0
2.621548292E0,-6.240490606E-1,1.680688584E0,8.121075028E-1,1.968164104E0
2.631571292E0,-1.110003918E0,1.427600040E0,1.220271222E0,2.181561924E0
2.641595292E0,-1.510484030E0,2.546623215E-1,7.990360522E-1,1.727678649E0
2.651619292E0,-1.460273112E0,-9.099226499E-1,4.469880617E-1,1.777682513E0
2.661643292E0,-1.118594135E0,-1.488580945E0,6.563289070E-1,1.974308411E0
2.671667292E0,-8.679681467E-1,-8.497439834E-1,1.450042824E0,1.891575463E0
2.681691292E0,-8.429582166E-1,-9.411795259E-2,1.323202683E0,1.571719467E0
2.691715292E0,-9.259351037E-1,-3.421395913E-1,1.243934319E0,1.588013824E0
2.701739292E0,-1.290103788E0,5.809761313E-1,1.575839236E0,2.117822076E0
2.711762292E0,-1.560226440E0,2.498750306E0,1.216259447E0,3.187059253E0
2.721786292E0,-1.890940279E0,4.068298523E0,8.305747640E-1,4.562517118E0
2.731810292E0,-2.396753815E0,3.850041844E0,8.165619117E-1,4.608039106E0
2.741834292E0,-2.936827211E0,2.505371986E0,7.789374179E-1,3.938094255E0
2.751858292E0,-2.603481540E0,3.664596230E-1,1.286915447E0,2.927210302E0
2.761882292E0,-1.848996009E0,-8.380200237E-1,1.773769240E0,2.695796936E0
2.771906292E0,-1.517950924E0,-9.264471737E-1,1.417775549E0,2.274327787E0
2.781930292E0,-1.237733054E0,-4.202844125E-1,7.894051033E-1,1.527017524E0
2.791954292E0,-9.026753184E-1,1.903575674E-1,2.874537992E-1,9.662755407E-1
2.801977292E0,-8.164708413E-1,9.741961214E-1,2.491948825E-1,1.295291785E0
2.812001292E0,-9.599090347E-1,1.184638290E0,1.404349172E-1,1.531180982E0
2.822025292E0,-1.085757561E0,2.481803906E-1,-2.613769716E-1,1.144019628E0
2.832049292E0,-1.131307663E0,-5.422728261E-1,4.077076364E-1,1.319144557E0
2.842073292E0,-1.072784051E0,8.008141905E-2,1.244898525E0,1.645311822E0
2.852097292E0,-6.122561768E-1,1.545696840E0,1.846934280E0,2.484995489E0
2.862121292E0,-5.462621621E-1,2.597901835E0,1.808698168E0,3.212302189E0
2.872145292E0,1.106220111E-2,2.834141918E0,-5.067799348E-1,2.879115956E0
2.882169292E0,8.894594416E-1,2.847915620E0,-1.271684620E0,3.243292038E0
2.892192292E0,1.129253756E0,2.242238218E0,-4.904808211E-1,2.558010498E0
2.902216292E0,1.721980598E0,1.850320988E0,-6.222957730E-2,2.528394245E0
2.912240292E0,1.867036862E0,1.174295150E0,-6.555968356E-1,2.301000424E0
2.922264292E0,1.209002468E0,-1.532511368E-1,-1.332121441E0,1.805469582E0
2.932288292E0,8.541744187E-1,-1.625413100E0,-1.870930084E0,2.621442554E0
2.942312292E0,8.008624300E-1,-3.029082533E0,-2.108152208E0,3.776377544E0
2.952336292E0,4.892286399E-1,-4.494478976E0,-2.076543329E0,4.975109861E0
2.962360292E0,-2.613006654E-1,-5.559891661E0,-1.864618599E0,5.870049050E0
2.972383292E0,-1.024307198E0,-5.626115472E0,-1.598704773E0,5.937864725E0
2.982407292E0,-1.384486911E0,-4.666474824E0,-1.422394849E0,5.071094399E0
2.992431292E0,-1.260344968E0,-2.961809148E0,-1.086006871E0,3.397086074E0
3.002455292E0,-2.514644062E-1,-1.500606329E0,-4.932611722E-1,1.599487507E0
3.012479292E0,1.032923436E0,-3.683854035E-1,-6.284762800E-2,1.098448203E0
3.022503292E0,1.580795921E0,6.721239907E-1,-8.814092875E-2,1.720010240E0
3.032526500E0,1.542696487E0,1.604089182E0,4.896926165E-2,2.226075592E0
3.042550500E0,1.144069869E0,2.651456190E0,9.213457704E-2,2.889222140E0
3.052574500E0,1.040270389E0,3.582073891E0,1.941725832E-1,3.735119654E0
3.062597500E0,1.095354084E0,4.272474231E0,3.747509748E-1,4.426542095E0
3.072621500E0,1.309864014E-1,5.195320104E0,3.374165028E-1,5.207913048E0
3.082645500E0,-1.942121250E-1,5.524006130E0,4.794962418E-1,5.548177963E0
3.092669500E0,-6.352809772E-1,5.034277260E0,1.011385290E0,5.174014849E0
3.102693500E0,-8.453402992E-1,5.396229265E0,1.762616261E0,5.739399497E0
3.112717500E0,-1.069430454E0,5.227776829E0,3.233397405E0,6.239246016E0
3.122741500E0,-1.393474520E0,3.932625286E0,4.212774451E0,5.929146773E0
3.132765500E0,-1.614855368E0,2.213091895E0,3.755098264E0,4.648257369E0
3.142789500E0,-1.572078892E0,6.844908518E-1,2.780651005E0,3.266799623E0
3.152812500E0,-1.568718936E0,-2.274102035E-1,1.855793982E0,2.440607671E0
3.162836500E0,-1.592855511E0,-6.983464140E-1,8.928259760E-1,1.954997344E0
3.172860500E0,-1.227749665E0,-1.007506540E0,4.034227967E-2,1.588730992E0
3.182884500E0,-8.883891088E-1,-1.369548883E0,-5.722669959E-1,1.729852267E0
3.192908500E0,-4.592363705E-1,-1.669941694E0,-1.084699434E0,2.043569467E0
3.202932500E0,-3.482902043E-1,-2.059784332E0,-1.684479334E0,2.683558866E0
3.212956500E0,-3.511060772E-1,-2.658063836E0,-2.019220151E0,3.356460763E0
3.222980500E0,-1.893086500E-1,-3.321855837E0,-2.078660021E0,3.923186390E0
3.233004500E0,-2.884183706E-1,-3.925815619E0,-2.139855811E0,4.480423677E0
3.243027500E0,-4.424390010E-1,-4.089725060E0,-2.103338780E0,4.620133912E0
3.253051500E0,-5.898038189E-1,-3.710021202E0,-1.988525192E0,4.250453894E0
3.263075500E0,-5.494559844E-1,-2.597252794E0,-1.626794797E0,3.113532602E0
3.273099500E0,-2.885809962E-1,-1.351716338E0,-9.941921371E-1,1.702596269E0
3.283123500E0,1.541980934E-1,-1.897240216E-1,-6.864701343E-1,7.287067322E-1
3.293147500E0,5.689199766E-1,1.038197405E0,-1.690120143E-1,1.195863225E0
3.303171500E0,7.225229696E-1,1.572320382E0,3.765232658E-1,1.770875658E0
3.313195500E0,8.489124363E-1,1.484204012E0,7.826205790E-1,1.880427835E0
3.323218500E0,6.520060605E-1,1.211082907E0,8.374417341E-1,1.610323685E0
3.333242500E0,1.213656486E-1,9.139692155E-1,7.280385751E-1,1.174780624E0
3.343266500E0,-2.708634577E-1,5.952138090E-1,3.806502306E-1,7.566644496E-1
3.353290500E0,-5.625374483E-1,4.253492707E-1,3.921131122E-1,8.069219762E-1
3.363314500E0,-8.307304461E-1,3.827695540E-1,7.421777272E-1,1.177902112E0
3.373338500E0,-9.242845809E-1,5.660326946E-1,9.795419383E-1,1.460889252E0
3.383362500E0,-1.034349426E0,8.338667464E-1,9.444533819E-1,1.630093456E0
3.393386500E0,-1.031888990E0,9.208882257E-1,9.117341173E-1,1.656529237E0
3.403410500E0,-8.049969962E-1,9.071007836E-1,9.304884768E-1,1.528614013E0
3.413433500E0,-4.554755510E-1,8.494621477E-1,7.225217271E-1,1.204608469E0
3.423457500E0,-2.479644822E-1,7.909590009E-1,2.410228139E-1,8.632465015E-1
3.433481500E0,-1.515036599E-1,7.948012063E-1,-1.446367264E-1,8.219380141E-1
3.443505500E0,-6.899977595E-2,7.731872660E-1,-3.670531154E-2,7.771272722E-1
3.453529500E0,-5.929814883E-2,6.725555152E-1,2.472378194E-1,7.190088531E-1
3.463553500E0,-1.971975671E-1,5.234418681E-1,4.253884470E-1,7.027329512E-1
3.473577500E0,-3.592153979E-1,3.167653066E-1,4.774918163E-1,6.762946075E-1
3.483601500E0,-3.469361719E-1,1.238539678E-1,4.473903501E-1,5.795365718E-1
3.493624500E0,-2.754562994E-1,3.048855186E-2,4.243645996E-1,5.068441951E-1
3.503648500E0,-1.641086123E-1,2.261995375E-3,3.106181288E-1,3.513123613E-1
3.513672500E0,-1.147233213E-1,1.624941230E-2,1.018912411E-1,1.542961725E-1
3.523696500E0,-1.867754169E-2,1.320973724E-2,-6.619632840E-2,7.003785844E-2
3.533720500E0,5.567053623E-2,3.168284565E-2,-1.243164825E-1,1.398484864E-1
3.543744500E0,8.334029160E-2,9.860422879E-2,-1.609931427E-1,2.063666401E-1
3.553768500E0,1.656436526E-1,2.179435614E-1,-3.026986599E-1,4.081221561E-1
3.563792500E0,1.985304400E-1,3.801932707E-1,-3.453359717E-1,5.506525148E-1
3.573816500E0,2.674758368E-1,3.345519519E-1,-3.592207700E-1,5.590240544E-1
3.583839500E0,2.017928208E-1,-1.329422951E-2,-4.069001359E-1,4.543839782E-1
3.593863500E0,2.997656234E-1,-3.096641555E-1,-2.498515248E-1,4.981737676E-1
3.603887500E0,4.312684437E-1,-7.890057385E-1,-5.046322525E-2,9.005937280E-1
3.613911500E0,9.358322471E-2,-1.194886412E0,-2.633281875E-1,1.227132060E0
3.623935500E0,-6.527609360E-1,-8.393423715E-1,-8.631209511E-1,1.369514597E0
3.633959500E0,-1.235317277E0,-2.359395370E-1,-6.968138587E-1,1.437785031E0
3.643983500E0,-1.458624928E0,-1.874368832E-1,1.754076988E-1,1.481042581E0
3.654007500E0,-1.559494514E0,-2.188089493E-1,1.146552451E0,1.947943279E0
3.664030500E0,-1.225177840E0,3.373784959E-2,1.861945252E0,2.229134160E0
3.674054500E0,-7.424132238E-1,4.114364058E-1,1.994941927E0,2.168006135E0
3.684078500E0,-2.694805181E-1,5.774406123E-1,1.067481138E0,1.243210920E0
3.694102500E0,2.302423024E-1,5.926281703E-1,-3.802444339E-2,6.369187737E-1
3.704126500E0,5.744863066E-1,7.721830067E-1,-6.390170556E-1,1.155267895E0
3.714150500E0,7.485483418E-1,7.221787879E-1,-1.181353324E0,1.573995711E0
3.724174500E0,5.086212230E-1,3.123100206E-1,-1.226086278E0,1.363642423E0
3.734198500E0,2.985716220E-2,-4.043709227E-1,-4.603547966E-1,6.134605383E-1
3.744222500E0,-3.448208320E-1,-1.170714900E0,3.518743283E-1,1.270153662E0
3.754245500E0,-7.102724681E-1,-1.112558493E0,7.601204932E-1,1.523173182E0
3.764269500E0,-6.906553520E-1,-1.341588083E-1,4.990996170E-1,8.626145308E-1
3.774293500E0,-1.712726209E-1,8.452252552E-1,-4.557027519E-2,8.636067929E-1
3.784317500E0,3.543791293E-1,9.749603525E-1,-1.979533929E-1,1.056086077E0
3.794341500E0,4.762436550E-1,6.640814379E-1,9.746255994E-2,8.229891407E-1
3.804365500E0,4.786377244E-2,3.553519598E-1,7.097350359E-2,3.655177071E-1
3.814389500E0,-4.698266647E-1,1.884165841E-1,2.741467059E-2,5.069412868E-1
3.824413500E0,-6.754069099E-1,1.693499833E-1,3.355389619E-1,7.729426277E-1
3.834437500E0,-6.272319925E-1,3.060131541E-1,6.437679183E-1,9.494741469E-1
3.844460500E0,-5.483057640E-1,3.907428172E-1,7.346950454E-1,9.965420060E-1
3.854484500E0,-3.500123921E-1,4.720577064E-1,6.794347644E-1,8.983199607E-1
3.864508500E0,-1.332471543E-1,6.608566985E-1,4.243119746E-1,7.965720506E-1
3.874532500E0,-3.669353305E-1,8.402846503E-1,2.817574418E-1,9.592221257E-1
3.884556500E0,-6.444321620E-1,9.515235427E-1,5.016835016E-1,1.253944257E0
3.894580500E0,-5.963543815E-1,1.011522115E0,9.407655430E-1,1.504611360E0
3.904604500E0,-3.663111037E-1,1.263894667E0,1.371804739E0,1.900910781E0
3.914628500E0,-2.890829432E-1,1.523143837E0,1.696974834E0,2.298534246E0
3.924651500E0,-2.520268352E-1,1.698036396E0,2.041135515E0,2.667035680E0
3.934675500E0,-4.030726947E-2,1.928753200E0,2.529952803E0,3.181567973E0
3.944699500E0,2.691995594E-1,2.417709944E0,2.912507472E0,3.794797696E0
3.954723500E0,6.664973612E-1,2.868569155E0,3.200657090E0,4.349380822E0
3.964747500E0,8.628779262E-1,3.022896472E0,3.583532186E0,4.766986923E0
3.974771500E0,9.870321485E-1,3.170270864E0,3.446169396E0,4.785491962E0
3.984795500E0,9.065177431E-1,2.830951093E0,2.401004156E0,3.821109717E0
3.994819500E0,4.607272643E-1,2.085887180E0,1.408872578E0,2.558928854E0
4.004843500E0,3.435224578E-2,1.330381894E0,8.469036984E-1,1.577447918E0
4.014866500E0,-1.893498728E-1,9.186700845E-1,6.212865436E-1,1.125080027E0
4.024890500E0,-8.382012874E-2,9.971882504E-1,7.183626026E-1,1.231850255E0
4.034915625E0,1.932136399E-1,1.315663868E0,1.279373708E0,1.845291307E0
4.044939625E0,3.605106658E-1,1.491158105E0,1.911033797E0,2.450626575E0
4.054963625E0,3.979885407E-1,1.693047259E0,2.329733030E0,2.907311454E0
4.064987625E0,4.694670975E-1,1.831080725E0,2.399878567E0,3.054942408E0
4.075011625E0,7.130846134E-1,2.311360493E0,1.922237062E0,3.089639513E0
4.085035625E0,8.148093550E-1,2.706466210E0,1.333740535E0,3.125337973E0
4.095059625E0,4.673083055E-1,2.652715096E0,1.627677727E0,3.147158912E0
4.105082625E0,1.860579635E-1,2.514534865E0,2.172796100E0,3.328444989E0
4.115106625E0,-3.661637539E-1,2.277011610E0,2.630050119E0,3.498002486E0
4.125130625E0,-1.040612451E0,1.952964765E0,3.138384828E0,3.840104813E0
4.135154625E0,-1.438342106E0,1.659085461E0,3.374579011E0,4.026062106E0
4.145178625E0,-1.540290943E0,1.768978032E0,3.258508272E0,4.014929093E0
4.155202625E0,-1.323980070E0,2.215806757E0,2.691298533E0,3.729049558E0
4.165226625E0,-1.208739928E0,2.253961886E0,2.002869582E0,3.248520118E0
4.175250625E0,-1.297788637E0,1.891567247E0,1.624762305E0,2.811073557E0
4.185274625E0,-1.427426670E0,1.670118864E0,1.710026988E0,2.784068286E0
4.195297625E0,-1.576664279E0,1.715930922E0,2.068551355E0,3.115957940E0
4.205321625E0,-1.770103329E0,1.750558133E0,2.079728892E0,3.243916127E0
4.215345625E0,-2.026657224E0,1.585283659E0,1.641408159E0,3.051996810E0
4.225369625E0,-2.049516329E0,1.599521044E0,1.113774129E0,2.828334769E0
4.235393625E0,-2.117884021E0,1.408260082E0,6.069456625E-1,2.614768101E0
4.245417625E0,-2.361565272E0,9.007656178E-1,7.539914417E-1,2.637588354E0
4.255441625E0,-2.264441265E0,7.425797233E-1,1.669015203E0,2.909421014E0
4.265465625E0,-2.022962953E0,8.447633252E-1,2.037661684E0,2.993003396E0
4.275488625E0,-2.062733668E0,1.008239488E0,1.372008222E0,2.674663271E0
4.285512625E0,-2.343476033E0,9.790317687E-1,4.795360029E-1,2.584634964E0
4.295536625E0,-2.283129844E0,9.537753054E-1,3.023373020E-1,2.492744885E0
4.305560625E0,-2.206562017E0,9.754181895E-1,1.100576963E0,2.651721371E0
4.315584625E0,-2.508067552E0,8.817892103E-1,1.951713461E0,3.298051014E0
4.325608625E0,-3.040286383E0,9.045092976E-1,2.590692510E0,4.095505591E0
4.335632625E0,-3.391673931E0,1.164147746E0,2.927985637E0,4.629448338E0
4.345656625E0,-3.501767938E0,1.598991433E0,2.659845191E0,4.679094863E0
4.355680625E0,-3.382910709E0,1.965886089E0,1.973065154E0,4.381983464E0
4.365703625E0,-3.096062973E0,2.340788506E0,1.346503252E0,4.108280392E0
4.375727625E0,-2.472405092E0,2.562218909E0,1.260890075E0,3.777247206E0
4.385751625E0,-1.769033288E0,2.461495064E0,1.722986757E0,3.486706195E0
4.395775625E0,-1.501216193E0,2.131508472E0,2.255196818E0,3.447156961E0
4.405799625E0,-1.798462909E0,1.475546186E0,2.630213256E0,3.511371121E0
4.415823625E0,-2.298505682E0,1.413154787E0,2.564168370E0,3.722243175E0
4.425847625E0,-2.194437815E0,1.825644130E0,2.032364691E0,3.504146123E0
4.435871625E0,-1.697781749E0,2.105744032E0,1.548937367E0,3.117022259E0
4.445895625E0,-1.173768608E0,2.213874252E0,1.536821351E0,2.939522379E0
4.455918625E0,-1.063068829E0,2.125012216E0,2.301542434E0,3.308003903E0
4.465942625E0,-1.512891913E0,2.019945790E0,3.426501701E0,4.255577146E0
4.475966625E0,-1.964000800E0,2.082310731E0,4.292992403E0,5.159757833E0
4.485990625E0,-2.161220660E0,2.187074416E0,4.534509891E0,5.478681337E0
4.496014625E0,-2.004412662E0,2.334466643E0,3.849543076E0,4.928122008E0
4.506038625E0,-1.576663986E0,2.237857192E0,2.337691090E0,3.599815797E0
4.516062625E0,-1.090999224E0,1.993759620E0,1.074779633E0,2.514062049E0
4.526086625E0,-7.202591470E-1,2.420804583E0,1.018605432E0,2.723348140E0
4.536109625E0,-6.292887506E-1,2.892094257E0,2.358580853E0,3.784589431E0
4.546133625E0,-1.132607426E0,2.800935288E0,3.746825624E0,4.813184011E0
4.556157625E0,-1.790952453E0,2.463308286E0,4.127531987E0,5.129514471E0
4.566181625E0,-1.955412118E0,2.082399901E0,3.656388493E0,4.639957188E0
4.576205625E0,-1.209852653E0,1.693131166E0,2.876521368E0,3.550325586E0
4.586229625E0,-5.194198608E-2,1.396802025E0,2.419417039E0,2.794160459E0
4.596253625E0,3.781353432E-1,1.068939434E0,2.238398352E0,2.509192107E0
4.606277625E0,4.461270592E-1,1.015547923E0,2.132685370E0,2.403895552E0
4.616301625E0,4.299071753E-1,1.568980599E0,1.872702375E0,2.480631872E0
4.626324625E0,5.328158319E-2,2.634303383E0,1.661785705E0,3.115112353E0
4.636348625E0,-3.887515479E-1,3.386813725E0,1.586210443E0,3.760013104E0
4.646372625E0,-8.485034966E-1,3.629335765E0,1.778599625E0,4.129824803E0
4.656396625E0,-1.440970284E0,3.505074247E0,1.588463375E0,4.109155233E0
4.666420625E0,-1.776037960E0,3.235503572E0,7.024137372E-1,3.757150417E0
4.676444625E0,-1.937893275E0,2.950519636E0,-3.667402893E-1,3.549013230E0
4.686468625E0,-2.000250321E0,2.793905473E0,-1.335747884E0,3.686615189E0
4.696492625E0,-2.090633073E0,2.719839670E0,-2.289901212E0,4.124551131E0
4.706515625E0,-2.290981485E0,2.685700409E0,-3.195919676E0,4.761878350E0
4.716539625E0,-2.390038873E0,2.633963660E0,-3.707491404E0,5.137659281E0
4.726563625E0,-2.444406869E0,2.784624188E0,-3.965382265E0,5.427109113E0
4.736587625E0,-2.462703684E0,3.246236428E0,-4.445719922E0,6.030537787E0
4.746611625E0,-2.527504574E0,3.568832578E0,-4.662630572E0,6.392571407E0
4.756635625E0,-2.456894767E0,3.880001222E0,-4.647749993E0,6.533936132E0
4.766659625E0,-2.221338223E0,4.370083848E0,-4.686380793E0,6.781898059E0
4.776683625E0,-1.800675203E0,4.835060869E0,-4.380022361E0,6.767927354E0
4.786707625E0,-1.117768362E0,5.303925703E0,-3.802302836E0,6.621067953E0
4.796730625E0,-2.743797174E-1,5.487578561E0,-2.988189738E0,6.254444868E0
4.806754625E0,8.270901158E-1,5.354814606E0,-1.914729238E0,5.746677786E0
4.816778625E0,2.036583165E0,4.880270078E0,-5.610520363E-1,5.317846032E0
4.826802625E0,2.836794800E0,3.960035864E0,5.222826576E-1,4.899190541E0
4.836826625E0,2.691044764E0,2.793144458E0,8.003803271E-1,3.960301321E0
4.846850625E0,2.170540829E0,2.010103464E0,1.210005265E0,3.196228429E0
4.856874625E0,2.260038312E0,1.778114306E0,2.620177095E0,3.890345957E0
4.866898625E0,2.679764023E0,1.984052072E0,4.752341478E0,5.805372285E0
4.876922625E0,3.164785884E0,2.714145359E0,6.875666041E0,8.040972468E0
4.886945625E0,3.531937232E0,4.023947977E0,8.372183120E0,9.937816064E0
4.896969625E0,3.827513691E0,5.915679531E0,8.851430855E0,1.131339708E1
4.906993625E0,3.890607487E0,7.430707140E0,7.027422922E0,1.094243612E1
4.917017625E0,3.237569101E0,7.959691876E0,4.378872798E0,9.644328666E0
4.927041625E0,2.335762386E0,7.917546315E0,2.250318485E0,8.556124056E0
4.937065625E0,1.731668411E0,7.400397513E0,1.265473123E0,7.704932255E0
4.947089625E0,1.356435918E0,6.550459110E0,1.439385104E0,6.842533334E0
4.957113625E0,8.462596276E-1,4.947192339E0,1.564882139E0,5.257349475E0
4.967136625E0,3.737820911E-1,2.628288937E0,1.319625356E0,2.964629297E0
4.977160625E0,-8.012118012E-2,2.272491127E-1,4.556185520E-1,5.154122890E-1
4.987184625E0,-6.311674610E-1,-1.664140086E0,-4.085274160E-2,1.780281870E0
4.997208625E0,-1.246657660E0,-1.870240697E0,-4.460823280E-1,2.291494061E0
5.007232625E0,-1.957098455E0,-8.084310660E-1,-9.897318810E-1,2.337384082E0
5.017256625E0,-2.926824964E0,7.204889426E-1,-7.575985891E-1,3.107951787E0
5.027280625E0,-4.410011560E0,2.412543344E0,6.854878020E-1,5.073308672E0
5.037303875E0,-5.014076300E0,2.741950331E0,3.079400455E0,6.491683905E0
5.047327875E0,-4.823797085E0,2.452974209E0,4.668049187E0,7.146802362E0
5.057350875E0,-5.118677140E0,3.259284198E0,4.860717866E0,7.774983429E0
5.067374875E0,-5.083526019E0,4.368476156E0,3.727990572E0,7.669663253E0
5.077398875E0,-5.006791254E0,5.519958687E0,3.074265431E0,8.061576180E0
5.087422875E0,-4.861896080E0,6.076487317E0,1.497597059E0,7.924930824E0
5.097446875E0,-3.893148687E0,5.961763777E0,-3.046516299E-2,7.120404634E0
5.107470875E0,-2.584971594E0,5.537519045E0,-9.348633635E-1,6.182245937E0
5.117494875E0,-1.897774066E0,5.282812577E0,-1.067020962E0,5.713859367E0
5.127518875E0,-1.823741300E0,5.595675452E0,2.727281713E-1,5.891688785E0
5.137542875E0,-2.445064096E0,5.832126912E0,2.392625681E0,6.761412604E0
5.147565875E0,-2.754023954E0,5.939821515E0,3.869958045E0,7.605439030E0
5.157589875E0,-2.932083950E0,6.265942367E0,3.832185616E0,7.908526831E0
5.167613875E0,-2.898816217E0,6.401707113E0,3.058816502E0,7.664290431E0
5.177637875E0,-2.580521278E0,6.127993686E0,2.174063192E0,6.995566270E0
5.187661875E0,-2.599469765E0,5.397978752E0,1.162879046E0,6.103089819E0
5.197685875E0,-3.046326849E0,4.309463425E0,7.001058412E-1,5.323695190E0
5.207709875E0,-3.207337534E0,3.967705072E0,1.063748860E-1,5.103039605E0
5.217733875E0,-3.262689031E0,4.019055027E0,-2.825374603E-1,5.184377537E0
5.227756875E0,-3.117558215E0,4.252247835E0,-6.955327338E-1,5.318321790E0
5.237780875E0,-2.946679185E0,4.206521147E0,-1.155136748E0,5.264226371E0
5.247804875E0,-2.591004167E0,4.121397089E0,-8.947912252E-1,4.949734123E0
5.257828875E0,-2.371978578E0,4.007653249E0,-2.196529949E-1,4.662168420E0
5.267852875E0,-1.853250443E0,4.076657118E0,3.285088545E-1,4.490165758E0
5.277876875E0,-1.011726183E0,4.194582886E0,5.433016437E-1,4.348941496E0
5.287900875E0,-1.085658377E-1,4.196401663E0,4.361432308E-1,4.220402158E0
5.297924875E0,4.957018000E-1,4.052008181E0,2.103243470E-3,4.082216921E0
5.307948875E0,6.759667808E-1,3.891766405E0,-5.977357131E-1,3.995004984E0
5.317971875E0,6.750955456E-1,3.642861544E0,-1.218752700E0,3.900199017E0
5.327995875E0,7.099794495E-1,3.277628960E0,-1.739494032E0,3.777930902E0
5.338019875E0,7.345061803E-1,3.136672763E0,-2.440621381E0,4.041639281E0
5.348043875E0,6.594162369E-1,3.643010648E0,-2.549662598E0,4.495234779E0
5.358067875E0,8.546471661E-1,4.588100792E0,-1.500155801E0,4.902199311E0
5.368091875E0,1.428594652E0,5.185874512E0,2.700928313E-1,5.385826517E0
5.378115875E0,1.799152004E0,5.616711980E0,1.818026816E0,6.171679099E0
5.388139875E0,2.178450358E0,5.960194969E0,2.904451178E0,6.978925897E0
5.398163875E0,2.721659031E0,5.988796039E0,3.211990163E0,7.320518198E0
5.408186875E0,3.348574689E0,5.164204731E0,2.440468769E0,6.621015841E0
5.418210875E0,3.960950661E0,3.374760275E0,1.376055665E0,5.382533441E0
5.428234875E0,4.520505810E0,1.133526170E0,5.030868334E-1,4.687531410E0
5.438258875E0,4.676449297E0,-7.523493974E-1,-1.882803440E-1,4.740322471E0
5.448282875E0,4.132954695E0,-1.398104931E0,-7.414655364E-1,4.425582792E0
5.458306875E0,3.286278453E0,-1.745773941E-1,-6.971284389E-1,3.363939863E0
5.468330875E0,2.104340993E0,2.220770166E0,-1.259425932E-1,3.062014481E0
5.478354875E0,1.458896677E0,4.350682787E0,3.482847226E-1,4.601969413E0
5.488378875E0,1.609255489E0,5.481906762E0,6.486152601E-1,5.749931019E0
5.498401875E0,2.519869865E0,4.983360876E0,4.302176625E-1,5.600778249E0
5.508425875E0,3.372113240E0,3.325865858E0,-2.428290188E-1,4.742520147E0
5.518449875E0,3.937540748E0,2.257799121E0,-1.002272989E0,4.648272277E0
5.528473875E0,4.867767270E0,1.153105133E0,-1.615826005E0,5.256967122E0
5.538497875E0,4.822494033E0,-1.261139166E-1,-1.855972322E0,5.168847713E0
5.548521875E0,4.702453035E0,-8.479037185E-1,-2.372689015E0,5.334946899E0
5.558545875E0,4.841796861E0,-8.025310792E-1,-2.705616610E0,5.604231814E0
5.568569875E0,4.897487497E0,7.154082969E-2,-2.726910415E0,5.605938128E0
5.578592875E0,4.907133649E0,1.504908710E0,-1.859616306E0,5.459201744E0
5.588616875E0,4.145773546E0,2.763499075E0,-9.146045154E-1,5.065655619E0
5.598640875E0,2.595724039E0,2.837788827E0,-1.349038605E0,4.075626807E0
5.608664875E0,1.709885486E0,2.754319823E0,-8.826442194E-1,3.359917690E0
5.618688875E0,1.613839121E0,2.961747460E0,5.656169575E-1,3.419992291E0
5.628712875E0,1.104487581E0,2.664978754E0,7.359428412E-1,2.977182635E0
5.638736875E0,3.686727941E-1,1.839255132E0,-1.047140429E0,2.148320774E0
5.648760875E0,2.192746800E-1,1.019994438E0,-2.526819280E0,2.733731098E0
5.658784875E0,1.881663233E-1,2.338377553E-1,-3.448481970E0,3.461519111E0
5.668807875E0,4.824724746E-1,-2.940041426E-1,-4.058263532E0,4.097404181E0
5.678831875E0,1.241123562E0,-4.165790319E-1,-3.544985586E0,3.779001005E0
5.688855875E0,2.155398295E0,-1.904017138E-1,-1.439659923E0,2.598964277E0
5.698879875E0,2.591197125E0,-1.854017597E-1,1.352166281E0,2.928656689E0
5.708903875E0,2.537413266E0,-4.869485182E-1,3.273297050E0,4.170138909E0
5.718927875E0,2.044625133E0,-9.209893826E-1,4.237915140E0,4.794646818E0
5.728951875E0,1.413850313E0,-9.824673003E-1,4.390289487E0,4.715809207E0
5.738975875E0,8.294252014E-1,-5.210389549E-1,3.746285926E0,3.872219776E0
5.748999875E0,5.212301588E-1,3.066303277E-1,2.281984667E0,2.360753493E0
5.759022875E0,3.800637549E-1,7.707723659E-1,6.354438221E-1,1.068797151E0
5.769046875E0,1.089453220E-2,8.927061081E-1,-6.460623658E-1,1.102016092E0
5.779070875E0,-5.750432539E-1,9.416838482E-1,-1.474932082E0,1.841973903E0
5.789094875E0,-1.142488051E0,9.801149654E-1,-1.934485225E0,2.451150215E0
5.799118875E0,-1.424202223E0,9.722355500E-1,-2.290062010E0,2.866701580E0
5.809142875E0,-1.627345020E0,8.912428424E-1,-2.679880090E0,3.259497341E0
5.819166875E0,-1.736725375E0,7.962080464E-1,-2.971585985E0,3.532773068E0
5.829190875E0,-1.763397449E0,6.068638015E-1,-3.076930591E0,3.597965550E0
5.839213875E0,-1.803321068E0,3.710175276E-1,-2.947717066E0,3.475436200E0
5.849237875E0,-1.734320415E0,1.255189624E-1,-2.563065001E0,3.097244664E0
5.859261875E0,-1.566698284E0,1.946421146E-2,-2.221266595E0,2.718261881E0
5.869285875E0,-1.316102993E0,6.997479916E-2,-2.124651881E0,2.500233824E0
5.879309875E0,-9.579259515E-1,1.700861478E-1,-2.153381590E0,2.362965023E0
5.889333875E0,-5.935853595E-1,1.961305234E-1,-2.049574217E0,2.142793791E0
5.899357875E0,-3.107812661E-1,1.553368387E-1,-1.743512238E0,1.777793423E0
5.909381875E0,-9.826655209E-2,6.488304377E-2,-1.442618614E0,1.447416523E0
5.919405875E0,1.068607897E-1,-2.941149473E-2,-1.169358931E0,1.174599750E0
5.929428875E0,3.487425596E-1,-1.080159071E-1,-8.533941078E-1,9.282081191E-1
5.939452875E0,5.513620305E-1,-1.363912752E-1,-5.141211140E-1,7.661091231E-1
5.949476875E0,6.741538516E-1,-1.047288948E-1,-3.172675824E-1,7.524030010E-1
5.959500875E0,7.005660170E-1,-1.323488027E-2,-3.682827848E-1,7.915807703E-1
5.969524875E0,7.876775435E-1,1.147799662E-1,-6.810795861E-1,1.047606680E0
5.979548875E0,9.402866560E-1,2.287237805E-1,-8.437432784E-1,1.283883283E0
5.989572875E0,1.016349284E0,3.685473713E-1,-8.076618648E-1,1.349485353E0
5.999596875E0,9.107333663E-1,6.008683589E-1,-7.754209024E-1,1.338564763E0
6.009620875E0,7.550492030E-1,7.667085510E-1,-8.465271378E-1,1.369141883E0
6.019643875E0,7.744417861E-1,6.772008356E-1,-8.468037111E-1,1.332455469E0
6.029667875E0,1.145517493E0,7.994260615E-1,-8.928920496E-1,1.657874714E0
6.039691375E0,1.575491619E0,1.238412793E0,-9.604139417E-1,2.222213993E0
6.049715375E0,1.516951343E0,1.285441949E0,-5.866657645E-1,2.073084441E0
6.059739375E0,1.431008675E0,1.012633671E0,-3.429158092E-2,1.753393479E0
6.069763375E0,1.551434712E0,4.290151826E-1,4.663347441E-1,1.675849572E0
6.079787375E0,2.193202883E0,-1.274117061E-1,1.160079399E0,2.484382588E0
6.089811375E0,3.437877752E0,-2.735005885E-2,1.451114033E0,3.731686402E0
6.099835375E0,4.273681096E0,5.681137186E-1,1.385428752E0,4.528412099E0
6.109858375E0,4.635921661E0,1.105494179E0,1.281075833E0,4.935082807E0
6.119882375E0,4.637793647E0,1.367913417E0,1.296196733E0,5.006040651E0
6.129906375E0,4.216522224E0,1.674892239E0,1.307695867E0,4.721693781E0
6.139930375E0,3.565473938E0,1.576920971E0,1.230171728E0,4.088105506E0
6.149954375E0,3.413534624E0,1.301574417E0,9.608548218E-1,3.777506662E0
6.159978375E0,3.757502639E0,1.364467361E0,7.014805216E-1,4.058653987E0
6.170002375E0,4.119813370E0,1.665745732E0,9.961462766E-1,4.554105670E0
6.180026375E0,4.195102412E0,1.814541290E0,1.493573005E0,4.808555361E0
6.190049375E0,4.017452890E0,1.643826275E0,1.727461047E0,4.671853402E0
6.200073375E0,3.549802230E0,8.762269002E-1,1.883270633E0,4.112855180E0
6.210097375E0,2.853561983E0,-1.875778010E-1,1.118630826E0,3.070722448E0
6.220121375E0,1.786601540E0,-8.545875245E-1,5.450797820E-1,2.054112185E0
6.230145375E0,6.940004709E-1,-1.250902738E0,7.245226443E-2,1.432355977E0
6.240169375E0,-5.923618296E-1,-1.249230435E0,-5.374772322E-1,1.483358012E0
6.250193375E0,-1.615183104E0,-9.838060203E-1,-1.215078894E0,2.247911801E0
6.260217375E0,-2.520419210E0,-8.979908216E-1,-1.691075578E0,3.165223076E0
6.270241375E0,-3.197605720E0,-9.269412634E-1,-1.570732278E0,3.681182193E0
6.280264375E0,-3.824564356E0,-1.023185556E0,-1.520538025E0,4.241018401E0
6.290288375E0,-4.607764978E0,-1.172602089E0,-1.728084360E0,5.058929660E0
6.300312375E0,-5.580602499E0,-1.588283865E0,-1.841307505E0,6.087379011E0
6.310336375E0,-6.564757306E0,-1.871344944E0,-8.277271700E-1,6.876270985E0
6.320360375E0,-7.615556338E0,-2.197751432E0,4.753786325E-2,7.926479013E0
6.330384375E0,-8.132447278E0,-2.228649874E0,9.600946838E-1,8.486775642E0
6.340408375E0,-7.833336470E0,-1.785690836E0,2.173138162E0,8.323003153E0
6.350432375E0,-5.490505092E0,-1.519887230E-1,2.981177173E0,6.249493105E0
6.360456375E0,-2.837988217E0,1.249169331E0,2.270121835E0,3.842922623E0
6.370479375E0,-1.289445976E0,1.746640499E0,1.274497131E0,2.517492183E0
6.380503375E0,-7.965113707E-1,1.649803883E0,-3.562006831E-2,1.832362411E0
6.390527375E0,-1.529555162E0,1.124012604E0,-1.145622743E0,2.217068966E0
6.400551375E0,-2.958848995E0,5.247878972E-1,-1.217789079E0,3.242406506E0
6.410575375E0,-3.534739803E0,7.271568149E-2,-6.456659245E-1,3.593961259E0
6.420599375E0,-3.350688457E0,-2.440578112E-1,-2.096665353E-1,3.366101218E0
6.430623375E0,-3.173132199E0,-4.480700889E-1,-5.247291327E-2,3.205041055E0
6.440647375E0,-2.841673132E0,-6.737261277E-1,-7.655759454E-3,2.920457446E0
6.450670375E0,-2.575583889E0,-9.390292123E-1,2.998627603E-2,2.741588483E0
6.460694375E0,-2.408627172E0,-1.190476735E0,-1.775115269E-1,2.692625122E0
6.470718375E0,-2.258649306E0,-1.174523484E0,-5.014361644E-1,2.594694650E0
6.480742375E0,-1.955612969E0,-7.701940763E-1,-5.053274864E-1,2.161706934E0
6.490766375E0,-1.697828527E0,-1.109339601E0,-6.753440523E-1,2.137602780E0
6.500790375E0,-1.477825284E0,-1.247246182E0,9.864311278E-2,1.936316367E0
6.510814375E0,-7.492762470E-1,-8.660030437E-1,1.071151435E-2,1.145203433E0
6.520838375E0,-2.715756851E-1,-3.813521889E-1,-1.761146271E-1,5.001991669E-1
6.530862375E0,-1.958290994E-2,1.394479072E-1,-3.840813768E-1,4.090815483E-1
6.540885375E0,1.816393688E-1,3.867515078E-1,-1.042301273E-1,4.398107645E-1
6.550909375E0,-8.627405897E-2,5.242081457E-1,5.161822575E-1,7.407303938E-1
6.560933375E0,-4.943164484E-1,1.841285285E-1,1.013200850E0,1.142290694E0
6.570957375E0,-5.683682187E-1,-3.385859460E-1,1.084697680E0,1.270532145E0
6.580981375E0,-4.970780884E-1,-7.032250383E-1,1.248813820E0,1.516953539E0
6.591005375E0,-9.347287314E-1,-7.015518576E-1,8.268407321E-1,1.431627887E0
6.601029375E0,-1.617321285E0,-4.962923688E-1,-5.242519999E-1,1.771122359E0
6.611053375E0,-1.192582756E0,-1.178466554E0,-6.770672268E-1,1.808164007E0
6.621076375E0,-5.981387325E-1,-1.209308277E0,-6.193166167E-1,1.484503124E0
6.631100375E0,-2.136290471E-1,-8.863709423E-1,-4.394615257E-1,1.012134996E0
6.641124375E0,1.376895033E-1,-7.804784516E-1,1.418926281E-1,8.051326167E-1
6.651148375E0,3.922648475E-1,-8.780383676E-1,7.686340392E-1,1.231105752E0
6.661172375E0,6.731687419E-1,-1.120852476E0,1.387359502E0,1.906366391E0
6.671196375E0,1.014513258E0,-1.438586082E0,1.645055652E0,2.409351606E0
6.681220375E0,1.411208248E0,-1.652354146E0,1.452741314E0,2.613855442E0
6.691244375E0,1.618439565E0,-1.770369377E0,8.305081058E-1,2.538365235E0
6.701268375E0,1.420943862E0,-1.485250371E0,9.498626411E-2,2.057686204E0
6.711291375E0,1.017100505E0,-1.074974053E0,-5.282666981E-1,1.571346033E0
6.721315375E0,4.957605645E-1,-8.782082292E-1,-2.446913570E-1,1.037738932E0
6.731339375E0,1.772524953E-2,-1.031615194E0,4.407584381E-1,1.121967956E0
6.741363375E0,-2.968096367E-1,-1.423403786E0,7.349055451E-1,1.629190124E0
6.751387375E0,-2.774486285E-1,-1.809958243E0,1.104384670E0,2.138362009E0
6.761411375E0,-9.162002206E-2,-2.056552868E0,1.430376883E0,2.506747286E0
6.771435375E0,-1.812943831E-1,-1.994394920E0,1.645600612E0,2.592003110E0
6.781459375E0,-2.687003168E-1,-1.835439532E0,2.363181442E0,3.004274399E0
6.791482375E0,-5.238362628E-1,-1.716057807E0,3.178102040E0,3.649601540E0
6.801506375E0,-9.572745717E-1,-1.581142953E0,3.498525950E0,3.956775387E0
6.811530375E0,-1.372902846E0,-1.222334997E0,3.261276929E0,3.743646922E0
6.821554375E0,-1.579354875E0,-7.161257502E-1,2.427482688E0,2.983265008E0
6.831578375E0,-1.734258435E0,-3.815980643E-1,2.225391220E0,2.847039776E0
6.841602375E0,-1.859146190E0,-3.613912565E-1,2.004968732E0,2.758065955E0
6.851626375E0,-1.997771394E0,-3.878537080E-1,1.662015501E0,2.627511478E0
6.861650375E0,-2.345056828E0,-3.353308010E-1,1.035631354E0,2.585395632E0
6.871674375E0,-2.386137903E0,-3.713464335E-1,8.189376354E-2,2.416248922E0
6.881697375E0,-2.115027364E0,-1.724583632E-1,-9.339202076E-1,2.318467078E0
6.891721375E0,-1.520083989E0,-1.693415049E-1,-1.486023080E0,2.132509431E0
6.901745375E0,-1.504055601E0,-4.238038516E-1,-8.911466557E-1,1.798870567E0
6.911769375E0,-1.786225856E0,-1.884198001E-1,-5.735054362E-1,1.885474295E0
6.921793375E0,-1.692404942E0,2.380591527E-1,-5.807477975E-1,1.805041455E0
6.931817375E0,-1.386481835E0,8.505406666E-1,-7.503825402E-1,1.791319419E0
6.941841375E0,-6.935274312E-1,1.019212373E0,-2.867725986E-1,1.265706397E0
6.951865375E0,2.486855900E-1,1.040873383E0,5.741521382E-1,1.214459798E0
6.961889375E0,8.744508085E-1,1.209131984E0,1.444120179E0,2.076571083E0
6.971912375E0,1.273986084E0,1.449671818E0,2.532837235E0,3.184313643E0
6.981936375E0,1.235177529E0,1.938568043E0,3.428144184E0,4.127454680E0
6.991960375E0,8.411421445E-1,2.694057249E0,3.382795519E0,4.405538570E0
7.001984375E0,2.232490325E-1,3.391007641E0,2.027895080E0,3.957414737E0
7.012008375E0,-3.866658461E-1,3.701528121E0,5.224726921E-1,3.758164262E0
7.022032375E0,-3.250464258E-1,3.886165065E0,-7.467461568E-1,3.970587351E0
7.032056375E0,3.592488366E-1,4.024481536E0,-1.860861763E0,4.448406216E0
7.042081042E0,8.559522647E-1,4.154319252E0,-2.747057582E0,5.053449127E0
7.052104042E0,9.772501221E-1,4.394483694E0,-3.799449395E0,5.890867546E0
7.062128042E0,1.494564401E0,3.849510916E0,-4.111549793E0,5.827289142E0
7.072152042E0,2.150815247E0,3.526455175E0,-3.283988684E0,5.276975839E0
7.082176042E0,2.062002473E0,2.833675018E0,-1.503057189E0,3.813233434E0
7.092200042E0,5.236052978E-1,2.150260347E0,9.604724139E-1,2.412527580E0
7.102224042E0,-1.242113496E0,1.322673802E0,2.434982911E0,3.036684656E0
7.112248042E0,-2.315362620E0,1.344415212E-1,3.782315884E0,4.436765943E0
7.122272042E0,-2.494505813E0,-1.118265960E0,4.425834711E0,5.202027575E0
7.132296042E0,-1.137206846E0,-2.324380196E0,2.150695379E0,3.364739711E0
7.142319042E0,1.170886223E0,-2.323537320E0,2.670528638E-1,2.615552993E0
7.152343042E0,3.605785812E0,-1.840284242E0,-9.305188823E-1,4.153817859E0
7.162367042E0,5.103531682E0,-8.950710145E-1,-2.040109329E0,5.568593523E0
7.172391042E0,5.842748380E0,-6.930353880E-2,-3.162546692E0,6.644111166E0
7.182415042E0,5.736855304E0,1.273670042E0,-3.451082227E0,6.814962413E0
7.192439042E0,5.030137432E0,2.933497807E0,-2.796382939E0,6.459678746E0
7.202463042E0,4.880642838E0,3.243517181E0,-1.788663268E0,6.127021667E0
7.212487042E0,4.012935624E0,2.891084736E0,3.896046567E-1,4.961231204E0
7.222511042E0,2.621158258E0,2.244659550E0,1.017860497E0,3.597917050E0
7.232534042E0,1.131515751E0,1.521631454E0,1.744941882E0,2.576919159E0
7.242558042E0,-2.034655631E-2,9.805602309E-1,2.532074173E0,2.715384313E0
7.252582042E0,-1.586422697E-1,2.564781743E-1,2.723417873E0,2.740064477E0
7.262606042E0,-2.422545299E-1,-2.682559285E-1,2.406841432E0,2.433831173E0
7.272630042E0,-3.836992612E-1,-5.415436783E-1,1.906058986E0,2.018305115E0
7.282654042E0,-7.207690242E-1,-3.678497985E-1,1.221306179E0,1.465063222E0
7.292678042E0,-1.344927720E0,-2.683073840E-1,1.014572023E0,1.705923742E0
7.302702042E0,-2.137184511E0,-5.720716989E-1,1.103645582E0,2.472419307E0
7.312725042E0,-3.437362612E0,-1.118737831E0,1.683142076E0,3.987480822E0
7.322749042E0,-5.385989621E0,-1.960117372E0,3.477302896E0,6.703922712E0
7.332773042E0,-1.056166893E1,-4.543502324E0,6.218137870E0,1.307124717E1
7.342797042E0,-1.648954458E1,-8.341945413E0,9.858763440E0,2.094488841E1
7.352821042E0,-2.040087928E1,-1.208918151E1,1.173548694E1,2.645875732E1
7.362845042E0,-1.831883547E1,-1.067801449E1,1.012648406E1,2.349777449E1
7.372869042E0,-9.149683292E0,-4.267207644E0,9.869358594E0,1.411842783E1
7.382893042E0,-7.623692154E0,-2.302326253E0,9.682206763E0,1.253660704E1
7.392916042E0,-5.016367239E0,-1.025067190E0,8.808520478E0,1.018846093E1
7.402940042E0,-2.485879415E0,2.067970142E-1,8.400594156E0,8.763124080E0
7.412964042E0,-1.255261107E0,1.033941509E0,8.472309086E0,8.626977266E0
7.422988042E0,3.422636984E-1,2.425113396E0,8.708407960E0,9.046252739E0
7.433012042E0,2.160419591E0,4.144913713E0,9.169370282E0,1.029199076E1
7.443036042E0,3.525983305E0,5.537382220E0,8.696715868E0,1.089623912E1
7.453060042E0,4.910472409E0,6.298687359E0,7.280189869E0,1.080682036E1
7.463084042E0,5.277871095E0,6.546347347E0,4.626801174E0,9.597805790E0
7.473108042E0,6.097717972E0,6.958960798E0,2.793945819E0,9.665165963E0
7.483132042E0,6.965220827E0,7.437539027E0,1.841049058E0,1.035474527E1
7.493155042E0,7.347415307E0,7.894210078E0,1.403950392E0,1.087539154E1
7.503179042E0,7.614888001E0,6.847383644E0,2.204137176E0,1.047527578E1
7.513203042E0,6.460685638E0,5.503872412E0,3.865163328E0,9.325907891E0
7.523227042E0,4.540885988E0,5.889039032E0,3.166805804E0,8.082640984E0
7.533251042E0,2.547825403E0,1.019301601E1,-2.065314921E0,1.070768488E1
7.543275042E0,1.014565006E0,1.379153754E1,-3.175203575E0,1.418864925E1
7.553299042E0,5.129616112E-2,1.525531781E1,-3.663111914E0,1.568903253E1
7.563323042E0,-1.036041244E0,1.608360865E1,-2.594825907E0,1.632448989E1
7.573346042E0,-4.816573727E0,1.709718606E1,-2.746744756E0,1.797380762E1
7.583370042E0,-7.825377824E0,1.613412742E1,-4.505526413E0,1.848908797E1
7.593394042E0,-1.088778335E1,1.188555807E1,-2.628365536E0,1.633152235E1
7.603418042E0,-1.105748943E1,1.031427323E1,-4.318727168E-1,1.512741944E1
7.613442042E0,-1.028649194E1,9.059540277E0,2.086780050E0,1.386513027E1
7.623466042E0,-9.807125509E0,8.804888188E0,-1.085837887E0,1.322440209E1
7.633490042E0,-1.021830405E1,9.481819759E0,-7.251840813E0,1.571330133E1
7.643514042E0,-1.323520070E1,1.054004826E1,-1.557173872E1,2.299439500E1
7.653538042E0,-1.584557786E1,9.507846301E0,-1.399629066E1,2.318140701E1
7.663561042E0,-1.242400594E1,9.701489711E0,-7.759166293E0,1.756927682E1
7.673585042E0,-7.276651719E0,9.784457608E0,-4.028029919E0,1.284174038E1
7.683609042E0,-4.148900052E0,8.610985161E0,1.213760347E0,9.635125908E0
7.693633042E0,-2.212240248E0,8.401070704E0,2.406245016E0,9.014544412E0
7.703657042E0,-2.496912526E0,9.209964577E0,1.772050159E0,9.705574761E0
7.713681042E0,-2.363967893E0,8.878025161E0,2.282326144E0,9.466609086E0
7.723705042E0,-2.386904181E0,8.477015510E0,2.940683158E0,9.284649749E0
7.733729042E0,-3.376719092E0,8.146480595E0,2.927824838E0,9.291907027E0
7.743753042E0,-3.836735920E0,7.694432353E0,2.627049620E0,8.990340453E0
7.753776042E0,-2.322738590E0,7.314608334E0,1.998293258E0,7.930434136E0
7.763800042E0,3.244777840E-1,6.041400515E0,1.344596475E0,6.197721008E0
7.773824042E0,5.096782241E0,2.410767252E0,7.842789955E-1,5.692458301E0
7.783848042E0,1.200973071E1,-4.024045041E0,3.030538782E-1,1.266958610E1
7.793872042E0,1.764356393E1,-1.298469545E1,-6.847425744E-2,2.190667370E1
7.803896042E0,2.065542729E1,-2.233293966E1,-7.751712263E-1,3.043037563E1
7.813920042E0,1.705307701E1,-2.948552984E1,3.299841070E-1,3.406336441E1
7.823944042E0,9.489436342E0,-3.603414474E1,6.121421415E0,3.776216081E1
7.833967042E0,2.026627403E0,-3.769191223E1,1.548654011E1,4.079975969E1
7.843991042E0,-4.054765728E0,-2.191298328E1,1.490402177E1,2.680951000E1
7.854015042E0,-6.810671901E0,-2.958703984E0,6.984758129E0,1.019441156E1
7.864039042E0,-7.731103166E0,3.543058929E0,8.937117122E0,1.233674532E1
7.874063042E0,-7.709675460E0,4.521600409E0,9.761224281E0,1.323500908E1
7.884087042E0,-7.850275269E0,5.037739981E0,8.360675215E0,1.252623391E1
7.894111042E0,-7.885242788E0,5.719021881E0,8.580049882E0,1.298081358E1
7.904135042E0,-7.436766025E0,6.745961934E0,6.424872612E0,1.192025501E1
7.914159042E0,-6.840642389E0,7.720388144E0,4.283348298E0,1.116896835E1
7.924182042E0,-5.854924622E0,8.379637150E0,3.163474646E0,1.070074918E1
7.934206042E0,-4.744241915E0,9.066085650E0,2.933948627E0,1.064470737E1
7.944230042E0,-3.766253875E0,9.606529174E0,2.546956506E0,1.062812582E1
7.954254042E0,-3.304063637E0,1.001644530E1,1.359108680E0,1.063452817E1
7.964278042E0,-3.097545827E0,1.016134282E1,1.088757329E0,1.067862681E1
7.974302042E0,-2.907925594E0,9.928518384E0,1.226123700E0,1.041800787E1
7.984326042E0,-2.822252775E0,9.238535242E0,1.426877325E0,9.764815566E0
7.994350042E0,-2.384380522E0,8.104808659E0,1.634745841E0,8.604974598E0
8.004373042E0,-1.772682243E0,6.965322568E0,2.176996740E0,7.509822609E0
8.014397042E0,-1.279070530E0,6.050563102E0,2.724209586E0,6.757710643E0
8.024421042E0,-1.166151733E0,5.454486828E0,2.819446696E0,6.249849286E0
8.034445042E0,-1.155513016E0,4.989142603E0,2.989128217E0,5.929725266E0
8.044468542E0,-1.040402098E0,4.680724781E0,3.508535506E0,5.941501695E0
8.054492542E0,-9.700095150E-1,4.238716208E0,4.169943304E0,6.024621209E0
8.064516542E0,-9.168267497E-1,3.464672910E0,4.508775418E0,5.759651503E0
8.074540542E0,-8.845743853E-1,2.606977006E0,4.695415326E0,5.442951959E0
8.084564542E0,-6.407104093E-1,1.464193670E0,5.484604082E0,5.712727446E0
8.094587542E0,-1.052288318E-1,-2.300622082E-1,6.027200552E0,6.032507623E0
8.104611542E0,4.230714878E-1,-1.289671825E0,3.940740345E0,4.167934424E0
8.114635542E0,4.876805896E0,-5.547292081E0,-4.277389810E1,4.340693543E1
8.124659542E0,4.354786070E0,-9.890082296E0,-6.189192165E1,6.282824090E1
8.134683542E0,4.711582877E0,-3.034865137E0,-1.470247059E1,1.573442280E1
8.144707542E0,6.631367033E0,-1.406520243E0,-4.539257246E0,8.158319941E0
8.154731542E0,3.099502306E0,-4.089005268E0,-2.315956405E0,5.629434492E0
8.164755542E0,1.582405075E0,-5.806284558E0,1.729813966E0,6.261725205E0
8.174778542E0,2.360096743E0,-5.340884199E0,4.270943722E0,7.234366658E0
8.184802542E0,2.961209516E0,-3.583022894E0,2.445065265E0,5.252157557E0
8.194826542E0,1.704128902E0,-2.544819349E0,-3.201453481E0,4.430515232E0
8.204850542E0,-8.782956451E-2,-2.711051597E0,-9.018764133E0,9.417835276E0
8.214874542E0,-8.439412066E-1,-3.074037389E0,-1.136619668E1,1.180476047E1
8.224898542E0,4.792991906E-1,-3.188431147E0,-9.399029033E0,9.936677898E0
8.234922542E0,8.094686544E-1,-3.583067917E0,-5.733525900E0,6.809327018E0
8.244946542E0,1.965255028E-1,-4.421055781E0,-3.993095729E0,5.960635033E0
8.254970542E0,4.682555544E-1,-4.847911879E0,-3.073041608E0,5.758914618E0
8.264993542E0,6.338381767E-1,-4.526429039E0,-3.255698100E0,5.611584518E0
8.275017542E0,8.939723226E-1,-4.266903296E0,-3.088861250E0,5.342912509E0
8.285041542E0,6.422432569E-1,-4.233372438E0,-2.623431363E0,5.021584482E0
8.295065542E0,3.845859915E-1,-4.233235613E0,-1.921411436E0,4.664762807E0
8.305089542E0,3.839708644E-1,-4.190573743E0,-1.125157489E0,4.355952398E0
8.315113542E0,5.954216775E-1,-4.126623330E0,-2.955893227E-1,4.179822978E0
8.325137542E0,8.558552009E-1,-4.404077806E0,2.257624581E-1,4.492144046E0
8.335161542E0,9.774685156E-1,-4.917709508E0,1.215253142E-1,5.015384323E0
8.345184542E0,1.125497212E0,-5.568318084E0,-8.419625089E-2,5.681549020E0
8.355208542E0,1.447734928E0,-6.523209915E0,1.853713542E-3,6.681931416E0
8.365232542E0,2.064483447E0,-7.839180762E0,2.483548203E-2,8.106507492E0
8.375256542E0,3.595752867E0,-9.587980637E0,1.383211122E-1,1.024099332E1
8.385280542E0,7.452179285E0,-1.057864339E1,5.016735613E-2,1.294006140E1
8.395304542E0,1.380142869E1,-9.477862948E0,4.442046408E-1,1.674833238E1
8.405328542E0,2.062225720E1,-4.824579735E0,1.658193761E0,2.124390897E1
8.415352542E0,2.058873394E1,3.951945949E-1,4.130856130E0,2.100276450E1
8.425376542E0,1.057367677E1,1.130870803E0,8.762288883E0,1.377894102E1
8.435399542E0,1.804182363E0,-2.063899310E0,1.228552049E1,1.258764347E1
8.445423542E0,2.067037511E-1,-4.230437720E0,1.627847647E1,1.682046747E1
8.455447542E0,7.271655858E-2,-5.141626877E0,2.305128180E1,2.361785780E1
8.465471542E0,-1.714652721E0,-5.404936354E0,2.521289685E1,2.584266896E1
8.475495542E0,-3.612792238E0,-2.302622414E0,2.017556969E1,2.062541999E1
8.485519542E0,-2.697355371E0,1.819345363E0,1.021996232E1,1.072536123E1
8.495543542E0,-1.283518507E0,3.152612273E0,4.646319764E0,5.759745763E0
8.505567542E0,-4.874434850E-1,3.401500762E0,2.560378205E0,4.285247383E0
8.515590542E0,-1.261651382E0,4.352581378E0,4.152411890E-1,4.550731162E0
8.525614542E0,-3.374960834E0,6.341336950E0,-1.483830959E0,7.335166615E0
8.535638542E0,-5.836563780E0,8.185375689E0,-2.290043884E0,1.031068150E1
8.545662542E0,-7.317953526E0,9.067352741E0,-2.716938574E0,1.196457625E1
8.555686542E0,-8.348974936E0,9.639594594E0,-2.462013420E0,1.298802050E1
8.565710542E0,-9.133299394E0,9.809014744E0,-1.844789083E0,1.352912321E1
8.575734542E0,-1.134126650E1,9.530620036E0,-2.314711533E0,1.499382985E1
8.585758542E0,-1.594467413E1,8.288687219E0,-2.616714374E1,3.174357227E1
8.595782542E0,-2.132542231E1,9.123139272E0,-4.002475715E1,4.625998802E1
8.605805542E0,-1.585859727E1,7.897930661E0,-1.708444615E1,2.461200350E1
8.615829542E0,-1.031267110E1,6.840696768E0,-5.954907916E0,1.373343532E1
8.625853542E0,-6.534754658E0,7.333163888E0,-9.528675252E-1,9.868448083E0
8.635877542E0,-4.787468626E0,7.823016134E0,-1.630022460E-1,9.173113267E0
8.645901542E0,-4.991405475E0,7.797202431E0,-6.499267175E-1,9.280781169E0
8.655925542E0,-5.192462570E0,7.774126979E0,-7.764984711E-1,9.380920408E0
8.665949542E0,-5.284177902E0,7.705657253E0,-1.426231207E0,9.451657276E0
8.675973542E0,-5.272151933E0,7.767444781E0,-1.755881877E0,9.550492427E0
8.685997542E0,-5.288039988E0,7.777461061E0,-2.020063319E0,9.619403479E0
8.696020542E0,-5.407998540E0,7.870117795E0,-2.382182408E0,9.841747576E0
8.706044542E0,-5.621821277E0,8.044382948E0,-2.695356501E0,1.017752024E1
8.716068542E0,-5.679978853E0,8.150384197E0,-2.986194668E0,1.037344113E1
8.726092542E0,-5.787549495E0,8.176375655E0,-3.095226822E0,1.048471636E1
8.736116542E0,-5.877513585E0,7.907196743E0,-1.811691065E0,1.001754215E1
8.746140542E0,-5.917973394E0,7.998226197E0,-1.636789735E0,1.008330859E1
8.756164542E0,-5.826641639E0,8.908280409E0,-1.380746886E-1,1.064548154E1
8.766188542E0,-6.017250345E0,9.185460066E0,1.884081057E-1,1.098250773E1
8.776211542E0,-6.076272724E0,9.136886660E0,4.252469444E-1,1.098110300E1
8.786235542E0,-6.922135618E0,9.148205701E0,2.267858378E0,1.169396471E1
8.796259542E0,-7.866321198E0,8.999263085E0,2.242091745E0,1.216111511E1
8.806283542E0,-8.660367821E0,9.563101904E0,8.041383326E-2,1.290199036E1
8.816307542E0,-8.615853553E0,1.027608624E1,-1.878055501E0,1.354097387E1
8.826331542E0,-8.066950276E0,1.041059559E1,-2.535902638E0,1.341219555E1
8.836355542E0,-7.349365938E0,9.923282787E0,-3.242345399E0,1.276704839E1
8.846379542E0,-6.764147944E0,8.951566177E0,-3.032302595E0,1.162235318E1
8.856403542E0,-6.047096288E0,7.920127861E0,-3.003186677E0,1.040744585E1
8.866426542E0,-5.709086292E0,7.441097642E0,-3.218494021E0,9.915760393E0
8.876450542E0,-5.717247251E0,7.167784749E0,-3.472980634E0,9.804368864E0
8.886474542E0,-5.702045660E0,7.029383494E0,-3.681045325E0,9.771164296E0
8.896498542E0,-5.696883738E0,6.967295419E0,-3.663085602E0,9.716783722E0
8.906522542E0,-5.816398487E0,7.090938302E0,-3.618105603E0,9.859137159E0
8.916546542E0,-5.710434076E0,7.103511570E0,-3.534673437E0,9.775625313E0
8.926570542E0,-5.512574238E0,7.079484776E0,-3.433786455E0,9.607209212E0
8.936594542E0,-5.625355918E0,7.130820406E0,-3.419775942E0,9.705055196E0
8.946617542E0,-5.710714157E0,7.075465985E0,-3.505495246E0,9.744894664E0
8.956641542E0,-5.861198099E0,6.996639671E0,-3.766278141E0,9.873776424E0
8.966665542E0,-5.993549826E0,6.879226411E0,-4.224879650E0,1.005465084E1
8.976689542E0,-6.065989226E0,6.793806776E0,-4.375507141E0,1.010431089E1
8.986713542E0,-6.292427330E0,5.696321821E0,-4.207773620E0,9.473546476E0
8.996737542E0,-6.041664224E0,3.729907290E0,-3.424951312E0,7.883159676E0
9.006761542E0,-4.482811149E0,-7.138655090E-1,9.711055756E-3,4.539305461E0
9.016785542E0,-4.136606866E0,1.154988813E-1,2.025144403E0,4.607175513E0
9.026809542E0,-4.721941220E0,2.626301469E0,-1.073099143E0,5.508695858E0
9.036832750E0,-1.087651693E0,-1.178955381E0,4.209234401E-1,1.658342105E0
9.046856750E0,1.569121370E1,-2.221448209E1,-2.902652575E0,2.735183347E1
9.056880750E0,6.452855281E1,-6.350165544E1,-4.818845955E0,9.066209598E1
9.066904750E0,7.139646310E1,-6.794723269E1,-8.756675556E0,9.894928368E1
9.076928750E0,3.485246689E1,-2.238694221E1,-1.533070479E1,4.416899523E1
9.086952750E0,3.853595197E0,-2.496804353E0,-5.100480021E0,6.862880179E0
9.096976750E0,1.563866478E0,-1.775074339E0,1.134604250E0,2.623717605E0
9.107000750E0,1.934702157E0,-2.384728432E-2,3.855248204E0,4.313534496E0
9.117024750E0,2.775420086E0,5.298863769E-2,4.319295518E0,5.134401447E0
9.127047750E0,2.314002850E0,-1.396894557E0,4.699501945E0,5.421369027E0
9.137071750E0,2.509147825E0,-3.817099800E0,3.716100844E0,5.888588895E0
9.147095750E0,2.758661966E0,-4.292042230E0,1.862930508E0,5.431606800E0
9.157119750E0,2.232540026E0,-3.166122265E0,5.637161008E-1,3.914887100E0
9.167143750E0,2.270560377E0,-3.250267791E0,6.916191924E-1,4.024676663E0
9.177167750E0,3.249278442E0,-4.314969163E0,8.812243693E-1,5.472963152E0
9.187191750E0,4.264898286E0,-5.233873136E0,1.184247696E0,6.854577157E0
9.197215750E0,4.720060755E0,-6.375097019E0,1.291387398E0,8.036698137E0
9.207239750E0,5.203754713E0,-7.219072432E0,5.663268095E-1,8.917106927E0
9.217262750E0,5.500606157E0,-7.193538226E0,-1.040819004E0,9.115205127E0
9.227286750E0,5.570364609E0,-5.799828647E0,-1.604673611E0,8.200119000E0
9.237310750E0,4.752108175E0,-4.038196473E0,-4.579773919E-1,6.252943798E0
9.247334750E0,3.862603417E0,-2.896639883E0,8.023437490E-1,4.894280668E0
9.257358750E0,2.850455650E0,-2.098435889E0,1.452443106E0,3.825979818E0
9.267382750E0,1.843750471E0,-1.381749099E0,1.537618911E0,2.770003301E0
9.277406750E0,1.288291882E0,-6.908438516E-1,1.174749479E0,1.875365974E0
9.287430750E0,9.374688828E-1,-1.287317151E-1,8.416393771E-1,1.266403017E0
9.297453750E0,6.055323905E-1,4.556267381E-1,5.017169769E-1,9.088372381E-1
9.307477750E0,1.973213089E-1,1.031938253E0,3.094954634E-1,1.095271518E0
9.317501750E0,-2.352147746E-1,1.510746278E0,1.105223161E-1,1.532936883E0
9.327525750E0,-7.011337817E-1,1.974468486E0,-9.041257203E-2,2.097209769E0
9.337549750E0,-1.255042859E0,2.349266238E0,-3.562856139E-1,2.687214892E0
9.347573750E0,-1.789725122E0,2.699872890E0,-5.860022517E-1,3.291781930E0
9.357597750E0,-2.270216560E0,2.974780319E0,-6.854304993E-1,3.804341749E0
9.367621750E0,-2.692725838E0,3.260004575E0,-7.077563381E-1,4.287111067E0
9.377645750E0,-3.153879365E0,3.592805870E0,-7.588851227E-1,4.840569770E0
9.387668750E0,-3.521190927E0,3.901374550E0,-9.171332900E-1,5.334851675E0
9.397692750E0,-3.792682997E0,4.135450287E0,-1.078522289E0,5.713983175E0
9.407716750E0,-4.090539578E0,4.327022029E0,-1.194260760E0,6.073046388E0
9.417740750E0,-4.322969908E0,4.468770230E0,-1.289236792E0,6.349811627E0
9.427764750E0,-4.501012362E0,4.512303336E0,-1.338147143E0,6.512344544E0
9.437788750E0,-4.616304837E0,4.353588268E0,-1.267395687E0,6.470725847E0
9.447812750E0,-4.644883688E0,3.624327040E0,-1.022866883E0,5.979711333E0
9.457836750E0,-4.577045462E0,2.730427516E0,-8.375142395E-1,5.394998580E0
9.467859750E0,-4.264826365E0,1.923039300E0,-8.957579161E-1,4.763318835E0
9.477883750E0,-3.619213650E0,1.567834398E0,-1.049658240E0,4.081494159E0
9.487907750E0,-2.725383123E0,1.503816158E0,-1.025699566E0,3.277382462E0
9.497931750E0,-1.834787859E0,1.298923289E0,-9.013333824E-1,2.421992995E0
9.507955750E0,-9.803658110E-1,7.954862076E-1,-8.042729647E-1,1.496920316E0
9.517979750E0,-9.656501234E-2,2.260749918E-1,-6.924280085E-1,7.347729244E-1
9.528003750E0,8.243854862E-1,-2.306381589E-1,-4.579844816E-1,9.708528084E-1
9.538027750E0,1.548147992E0,-4.372922087E-1,-1.593728793E-1,1.616597166E0
9.548051750E0,1.667099070E0,-4.301732236E-1,1.971673809E-1,1.732957959E0
9.558074750E0,1.662481524E0,-4.592046493E-1,5.198323819E-1,1.801371542E0
9.568098750E0,1.141125065E0,-4.671972084E-1,6.504840302E-1,1.394119478E0
9.578122750E0,3.950010520E-1,-3.152771902E-1,6.500013426E-1,8.233633968E-1
9.588146750E0,-2.101547778E-2,-2.043175024E-1,6.871045572E-1,7.171471011E-1
9.598170750E0,-9.660886645E-2,-8.451507032E-2,6.999105442E-1,7.115833331E-1
9.608194750E0,-4.221514285E-2,-2.069680452E-2,9.120013350E-1,9.132124129E-1
9.618218750E0,-8.930160105E-2,1.390046883E-1,9.817042387E-1,9.955100660E-1
9.628242750E0,-3.310208184E-1,2.756605500E-1,9.701065788E-1,1.061447264E0
9.638265750E0,-6.916706479E-1,2.087385821E-1,1.061247714E0,1.283832852E0
9.648289750E0,-1.074159243E0,3.456932366E-2,1.129257264E0,1.558921129E0
9.658313750E0,-1.298381252E0,-3.490495384E-2,1.062314538E0,1.677952446E0
9.668337750E0,-1.232159781E0,-9.284501374E-2,9.332132792E-1,1.548458894E0
9.678361750E0,-8.999940777E-1,-1.473773164E-1,7.773823509E-1,1.198345832E0
9.688385750E0,-6.149621952E-1,-1.126337457E-1,5.857310870E-1,8.567063490E-1
9.698409750E0,-5.007613957E-1,-2.509741902E-2,3.918461868E-1,6.363452600E-1
9.708433750E0,-5.128323877E-1,3.887112021E-2,2.575493842E-1,5.751866716E-1
9.718457750E0,-4.947814482E-1,8.645693064E-2,2.240857691E-1,5.499981039E-1
9.728480750E0,-3.724331385E-1,2.245541310E-1,2.400919372E-1,4.967646714E-1
9.738504750E0,-2.270696032E-1,3.679869157E-1,2.487876239E-1,4.988689774E-1
9.748528750E0,-1.252011663E-1,4.462659305E-1,2.684062019E-1,5.356029332E-1
9.758552750E0,-8.403209031E-2,4.504548758E-1,3.215708408E-1,5.598024589E-1
9.768576750E0,-1.940398514E-2,4.824479163E-1,4.075842601E-1,6.318682107E-1
9.778600750E0,5.011297703E-2,5.794128782E-1,4.726552919E-1,7.494221899E-1
9.788624750E0,1.209367919E-1,5.329052943E-1,4.319294348E-1,6.965463351E-1
9.798648750E0,1.025209862E-1,3.404395133E-1,2.552262855E-1,4.376643367E-1
9.808671750E0,3.320926130E-2,1.383123779E-1,6.254737347E-2,1.553877178E-1
9.818695750E0,-4.329453886E-2,-3.285024226E-2,-8.247585386E-2,9.877156464E-2
9.828719750E0,-1.263366956E-1,-1.343777865E-1,-1.791920167E-1,2.571539014E-1
9.838743750E0,-2.389049524E-1,-2.289851511E-1,-2.204198572E-1,3.976112286E-1
9.848767750E0,-3.629203033E-1,-2.711353898E-1,-1.989015189E-1,4.947599018E-1
9.858791750E0,-4.636520416E-1,-2.113815236E-1,-1.213595456E-1,5.238162879E-1
9.868815750E0,-5.534050477E-1,-1.590723324E-1,4.614681065E-2,5.776596592E-1
9.878839750E0,-6.199510396E-1,-1.102469122E-1,2.214548144E-1,6.674847623E-1
9.888863750E0,-6.679028857E-1,-8.506646276E-2,3.450772324E-1,7.565770708E-1
9.898886750E0,-6.952339411E-1,-1.059398532E-1,4.086645332E-1,8.133757963E-1
9.908910750E0,-6.833845586E-1,-1.729179543E-1,3.863056576E-1,8.038327780E-1
9.918934750E0,-6.684197795E-1,-2.905329430E-1,3.734087464E-1,8.189190952E-1
9.928958750E0,-6.211485493E-1,-3.794901431E-1,3.323104218E-1,8.001677983E-1
9.938982750E0,-5.396284229E-1,-3.984058857E-1,3.177374062E-1,7.422150253E-1
9.949006750E0,-4.547268516E-1,-4.014353281E-1,4.014256802E-1,7.273715756E-1
9.959030750E0,-4.092092013E-1,-4.137694448E-1,5.368290684E-1,7.917340289E-1
9.969054750E0,-4.052249086E-1,-3.637880301E-1,6.387504226E-1,8.393753986E-1
9.979078750E0,-4.518003201E-1,-2.789753366E-1,6.524714988E-1,8.412311362E-1
9.989101750E0,-5.105426180E-1,-1.244667560E-1,5.276612189E-1,7.446959783E-1
9.999125750E0,-5.058133900E-1,2.147448421E-2,2.955817214E-1,5.862396208E-1
1.000914975E1,-4.174069977E-1,1.263144761E-1,1.443297476E-1,4.593637171E-1
1.001917375E1,-2.499357247E-1,2.120855284E-1,1.491709498E-1,3.601390150E-1
1.002919775E1,-4.955281377E-2,2.839244199E-1,2.336670166E-1,3.710375078E-1
1.003922200E1,1.332861114E-1,3.182838285E-1,3.073819873E-1,4.621184578E-1
1.004924600E1,2.968222082E-1,4.122947770E-1,3.525485122E-1,6.183695173E-1
1.005927000E1,4.362993515E-1,4.699728817E-1,3.926001853E-1,7.519085975E-1
1.006929300E1,5.409072089E-1,4.317531413E-1,3.669633606E-1,7.833603843E-1
1.007931700E1,5.887502968E-1,4.329401261E-1,3.134838492E-1,7.951956919E-1
1.008934100E1,6.099265730E-1,4.173888713E-1,2.405880734E-1,7.772428935E-1
1.009936500E1,5.910482526E-1,3.875212938E-1,1.505029455E-1,7.226077266E-1
1.010938900E1,5.487220126E-1,3.550125289E-1,1.453495020E-1,6.695193952E-1
1.011941300E1,4.886810482E-1,3.341677898E-1,2.690344852E-1,6.502744288E-1
1.012943700E1,3.719513279E-1,2.871468204E-1,4.417238134E-1,6.449193858E-1
1.013946100E1,1.858940953E-1,2.529493797E-1,5.052231136E-1,5.948028227E-1
1.014948400E1,-2.324735999E-2,1.785008758E-1,4.687066671E-1,5.020845967E-1
1.015950800E1,-1.195147491E-1,1.481397933E-1,3.382140630E-1,3.880952538E-1
1.016953200E1,-5.403178096E-2,2.829157752E-1,3.170950896E-1,4.283807477E-1
1.017955600E1,3.964587629E-2,4.324670863E-1,3.520652398E-1,5.590612751E-1
1.018958000E1,7.955780089E-2,5.331847912E-1,4.031459311E-1,6.731583075E-1
1.019960400E1,1.016380566E-1,5.177534044E-1,5.078757030E-1,7.323500611E-1
1.020962800E1,1.083646935E-1,4.197289270E-1,6.473130852E-1,7.790568075E-1
1.021965200E1,1.363506371E-1,2.798886716E-1,8.056624094E-1,8.637251198E-1
1.022967600E1,2.027340764E-1,1.741692585E-1,9.160923395E-1,9.542857071E-1
1.023969900E1,2.773556578E-1,9.350808799E-2,1.023846876E0,1.064862596E0
1.024972300E1,3.836925370E-1,1.333106697E-2,1.046789888E0,1.114973879E0
1.025974700E1,4.870590305E-1,-1.630525321E-1,9.321327138E-1,1.064276291E0
1.026977100E1,5.415445554E-1,-3.771056485E-1,7.385185397E-1,9.903983083E-1
1.027979500E1,5.855980629E-1,-5.097672772E-1,6.022398233E-1,9.825887100E-1
1.028981900E1,6.231395262E-1,-4.600641900E-1,5.896387812E-1,9.734658805E-1
1.029984300E1,5.836754984E-1,-2.465595424E-1,6.511140677E-1,9.085253021E-1
1.030986700E1,4.702593952E-1,-5.693667769E-2,7.431597671E-1,8.812900337E-1
1.031989000E1,3.069033927E-1,1.044184077E-1,8.756497800E-1,9.337319924E-1
1.032991400E1,9.873023629E-2,3.375942582E-1,1.072688668E0,1.128883750E0
1.033993800E1,-1.799305201E-1,7.328239363E-1,1.267554000E0,1.475160689E0
1.034996200E1,-4.994001639E-1,1.209052754E0,1.450805739E0,1.953470342E0
1.035998600E1,-8.211262482E-1,1.639973252E0,1.564028445E0,2.410382866E0
1.037001000E1,-1.157851610E0,2.103365092E0,1.558874125E0,2.862665471E0
1.038003400E1,-1.499486294E0,2.580042976E0,1.520879356E0,3.349351418E0
1.039005800E1,-1.859418086E0,3.064774230E0,1.474668226E0,3.876199566E0
1.040008200E1,-2.236420239E0,3.510325046E0,1.387427330E0,4.387358204E0
1.041010500E1,-2.581874324E0,3.947544165E0,1.410934891E0,4.923405044E0
1.042012900E1,-2.940816182E0,4.356993102E0,1.414021636E0,5.443459001E0
1.043015300E1,-3.372642413E0,4.648710106E0,1.408735169E0,5.913523254E0
1.044017700E1,-3.828505964E0,4.717668074E0,1.350884571E0,6.224045236E0
1.045020100E1,-4.218671368E0,4.338200735E0,1.194794319E0,6.168039170E0
1.046022500E1,-4.398531722E0,3.585928375E0,1.215664128E0,5.803774883E0
1.047024900E1,-4.321006413E0,2.657474729E0,1.561191376E0,5.307597090E0
1.048027300E1,-3.936098240E0,1.894641128E0,2.042345742E0,4.822210125E0
1.049029600E1,-3.338029236E0,1.592540054E0,2.343742958E0,4.378556161E0
1.050032000E1,-2.632372633E0,1.846113331E0,2.254163615E0,3.926674638E0
1.051034400E1,-1.998089483E0,2.612694998E0,2.161903907E0,3.936034202E0
1.052036800E1,-1.636393586E0,3.063196651E0,2.880234350E0,4.511840822E0
1.053039200E1,-1.891990001E0,2.679980662E0,2.964224048E0,4.421373850E0
1.054041600E1,-2.271791800E0,2.417141302E0,2.567798029E0,4.194901284E0
1.055044000E1,-2.444997438E0,2.060413785E0,2.547033105E0,4.087871705E0
1.056046400E1,-2.290673629E0,1.403531731E0,2.467534361E0,3.647713368E0
1.057048800E1,-2.116469872E0,5.770739919E-1,2.198383808E0,3.105696457E0
1.058051100E1,-1.821247462E0,-1.458003223E-1,1.695219792E0,2.492382433E0
1.059053500E1,-1.410601015E0,-2.851967740E-1,1.132392541E0,1.831241461E0
1.060055900E1,-1.305145311E0,-1.569287431E-1,8.404945654E-1,1.560276267E0
1.061058300E1,-1.017121409E0,2.516460353E-1,5.529501343E-1,1.184742815E0
1.062060700E1,-7.639369708E-1,3.040926361E-1,6.384574771E-2,8.247110441E-1
1.063063100E1,-1.042345127E0,-3.759245110E-1,-2.250797957E-1,1.130691610E0
1.064065500E1,-1.049751503E0,-1.156514352E0,-1.548225760E-1,1.569545697E0
1.065067900E1,-2.255057654E-1,-1.679192281E0,-2.366414368E0,2.910404873E0
1.066070200E1,1.302197145E0,-2.130326604E0,-8.572347929E0,8.928558555E0
1.067072600E1,2.107774185E0,-4.199891866E0,-1.493505645E1,1.565687437E1
1.068075000E1,2.010975284E0,-5.169991136E0,-1.616273200E1,1.708820458E1
1.069077400E1,1.199580265E0,-4.976483966E0,-8.888142598E0,1.025687400E1
1.070079800E1,2.765153545E0,-4.398404253E0,-4.366714683E0,6.786768834E0
1.071082200E1,3.512987283E0,-4.916772784E0,-1.819897340E0,6.310923909E0
1.072084600E1,4.178272371E0,-5.958955944E0,-6.624749154E-1,7.307940131E0
1.073087000E1,5.466029232E0,-6.067995406E0,-1.536163539E0,8.310104827E0
1.074089400E1,6.710862853E0,-6.050528603E0,-3.196914872E0,9.584614823E0
1.075091700E1,7.643496673E0,-6.392410040E0,-3.921426991E0,1.070810614E1
1.076094100E1,8.011343840E0,-7.037109420E0,-3.282361404E0,1.115690080E1
1.077096500E1,8.314719608E0,-7.549643599E0,-2.735161129E0,1.155909975E1
1.078098900E1,8.662348858E0,-7.656238925E0,-2.981440590E0,1.193914864E1
1.079101300E1,9.006659228E0,-7.633859877E0,-3.587350126E0,1.233956271E1
1.080103700E1,9.315070617E0,-7.761412793E0,-3.929106432E0,1.274550691E1
1.081106100E1,9.677095127E0,-8.214657376E0,-3.662811660E0,1.321147059E1
1.082108500E1,1.004382665E1,-8.770603623E0,-2.973037848E0,1.366165787E1
1.083110900E1,1.016185737E1,-8.996575704E0,-2.216280966E0,1.375185882E1
1.084113200E1,1.003021082E1,-8.635946925E0,-1.561448654E0,1.332752153E1
1.085115600E1,9.626985658E0,-8.030635559E0,-8.600527708E-1,1.256621069E1
1.086118000E1,9.291145565E0,-7.445001828E0,-2.418314838E-1,1.190848104E1
1.087120400E1,9.318045681E0,-6.972472544E0,7.359071732E-2,1.163815983E1
1.088122800E1,9.680540307E0,-6.307154127E0,2.985962534E-1,1.155777719E1
1.089125200E1,9.533466461E0,-5.448164234E0,2.682404333E-1,1.098368923E1
1.090127600E1,8.964494956E0,-3.992842544E0,5.645094949E-1,9.829732059E0
1.091130000E1,7.279436163E0,-2.338203306E0,8.514985867E-1,7.693012114E0
1.092132300E1,4.664905139E0,-8.996578628E-1,9.337330967E-1,4.841753992E0
1.093134700E1,2.439197000E0,-2.327443260E-1,1.039094076E0,2.661497402E0
1.094137100E1,6.949386567E-1,-2.147354865E-1,9.525862741E-1,1.198528963E0
1.095139500E1,-8.692985344E-1,-1.219553769E-2,1.030320328E0,1.348105579E0
1.096141900E1,-2.578798104E0,3.420971990E-1,9.915006638E-1,2.783936731E0
1.097144300E1,-4.082204956E0,9.576710129E-1,-1.898687401E-1,4.197330248E0
1.098146700E1,-5.386900032E0,1.611899015E0,-1.878776170E0,5.928466099E0
1.099149100E1,-6.280951585E0,2.217773468E0,-2.902509610E0,7.265909028E0
1.100151500E1,-6.800659128E0,3.346496589E0,-3.392200473E0,8.303916428E0
1.101153800E1,-7.871246892E0,4.449049326E0,-3.490446267E0,9.691944216E0
1.102156200E1,-8.372949690E0,4.611943983E0,-3.683225459E0,1.024414289E1
1.103158600E1,-8.634423725E0,4.527372780E0,-4.027312465E0,1.054844174E1
1.104160988E1,-7.848452107E0,5.793462784E0,-1.289608558E1,1.617007838E1
1.105163388E1,-7.960419270E0,6.113366876E0,-1.400580992E1,1.723090947E1
1.106165788E1,-8.403147050E0,5.163429975E0,-6.215235313E0,1.165774590E1
1.107168188E1,-7.204278392E0,4.441173127E0,-3.876694037E0,9.308834650E0
1.108170587E1,-5.809685299E0,4.216335990E0,-2.410631597E0,7.572389131E0
1.109172888E1,-4.729510440E0,4.367102353E0,-1.639304330E0,6.642828513E0
1.110175288E1,-4.884792607E0,4.681178525E0,-1.258016753E0,6.881659491E0
1.111177688E1,-5.012632622E0,4.922597780E0,-1.180434288E0,7.124035361E0
1.112180088E1,-5.099671935E0,5.206172537E0,-1.404798384E0,7.421882836E0
1.113182488E1,-5.400438091E0,5.531506353E0,-1.592145805E0,7.892858948E0
1.114184888E1,-5.832071364E0,5.750517324E0,-1.707799784E0,8.366485880E0
1.115187288E1,-6.119808168E0,5.901906999E0,-1.800043850E0,8.690495734E0
1.116189688E1,-6.221135738E0,6.120191161E0,-1.883843806E0,8.927941375E0
1.117192088E1,-6.409494435E0,6.380741336E0,-2.013263592E0,9.265457852E0
1.118194388E1,-6.551945472E0,6.598422065E0,-2.186579157E0,9.552397167E0
1.119196787E1,-6.631039588E0,6.741767142E0,-2.355740422E0,9.745338534E0
1.120199188E1,-6.772518818E0,6.727132730E0,-2.564074815E0,9.884118857E0
1.121201588E1,-7.107942005E0,6.783745472E0,-2.858743494E0,1.023300819E1
1.122203988E1,-7.279676483E0,6.714071220E0,-3.142112136E0,1.038967327E1
1.123206388E1,-7.459345633E0,6.677219144E0,-3.364805098E0,1.056167629E1
1.124208787E1,-7.367749000E0,6.740115303E0,-3.352499633E0,1.053338186E1
1.125211188E1,-7.353906886E0,7.209906337E0,-1.834855687E0,1.046085041E1
1.126213588E1,-7.167691779E0,7.171141051E0,-2.236737742E0,1.038287365E1
1.127215888E1,-7.224043150E0,6.968070760E0,-1.879509411E0,1.021143306E1
1.128218288E1,-7.141375215E0,6.839452481E0,-1.698896229E0,1.003312507E1
1.129220688E1,-7.245141658E0,6.693631693E0,-1.763057726E0,1.002023729E1
1.130223088E1,-7.541240566E0,6.564343908E0,-2.123838533E0,1.022113547E1
1.131225487E1,-7.739116191E0,6.564150950E0,-1.967633091E0,1.033700039E1
1.132227888E1,-8.434839544E0,6.445637829E0,-4.727444619E-1,1.062620593E1
1.133230288E1,-8.446241030E0,6.148068931E0,-9.826836473E-1,1.049301702E1
1.134232688E1,-8.003404491E0,5.947300689E0,-2.335253386E0,1.024100958E1
1.135234988E1,-7.594918590E0,5.689571210E0,-3.401872644E0,1.008100920E1
1.136237388E1,-7.390090041E0,5.510720086E0,-4.225685396E0,1.014090153E1
1.137239788E1,-8.074339988E0,5.628136269E0,-3.726577300E0,1.052417514E1
1.138242188E1,-9.528571756E0,6.098123769E0,-2.236887139E0,1.153188871E1
1.139244588E1,-1.014380117E1,6.259926751E0,-1.696387773E0,1.203997992E1
1.140246987E1,-8.708258856E0,6.081001368E0,-1.762743731E0,1.076659721E1
1.141249388E1,-8.312194195E0,5.658179848E0,-3.443995109E0,1.062867225E1
1.142251788E1,-8.416754690E0,5.339472097E0,-4.129489051E0,1.078908715E1
1.143254088E1,-8.189692689E0,5.159000124E0,-3.716653698E0,1.036821409E1
1.144256488E1,-8.109639044E0,5.049347289E0,-3.327428234E0,1.011602353E1
1.145258888E1,-8.253477625E0,5.050548307E0,-3.467159438E0,1.027857605E1
1.146261288E1,-8.390884269E0,4.920382855E0,-3.536289315E0,1.034999751E1
1.147263687E1,-9.269161788E0,-2.886963326E-1,-4.961041469E0,1.051725431E1
1.148266088E1,-1.007294461E1,-1.611229860E1,-7.910190518E0,2.058255313E1
1.149268488E1,1.387512933E1,-2.132454756E1,-8.186739845E0,2.672598458E1
1.150270888E1,7.019634314E1,-4.805385899E1,-7.585993400E0,8.540636539E1
1.151273288E1,6.842435613E1,-6.343876747E1,2.724037678E0,9.334768402E1
1.152275588E1,1.678375893E1,-1.083338202E1,2.548282070E1,3.237948240E1
1.153277988E1,-2.738526143E1,8.217059997E-1,5.417841509E1,6.071184733E1
1.154280387E1,-3.706530589E1,4.367075456E0,6.291937099E1,7.315569353E1
1.155282788E1,-1.179772354E1,6.746955376E0,1.532589370E1,2.048391333E1
1.156285188E1,-3.749801564E0,1.678453193E0,7.600534841E0,8.639811732E0
1.157287588E1,1.242945555E-1,2.923935270E-1,5.323295190E0,5.332768023E0
1.158289988E1,-8.602423668E-3,8.031668177E-1,2.211329252E0,2.352685274E0
1.159292387E1,-7.406899032E-1,1.198715461E0,9.298084456E-1,1.688219191E0
1.160294688E1,-3.988008651E-1,1.182810158E0,-1.478398311E-1,1.256956091E0
1.161297088E1,3.904487023E-1,1.343739858E0,-1.033895316E0,1.739835199E0
1.162299488E1,4.264231119E-1,1.411682165E0,-2.296343674E0,2.729079969E0
1.163301887E1,3.901086867E-2,1.639825025E0,-3.208950781E0,3.603874730E0
1.164304288E1,-1.752974787E-1,1.669139456E0,-3.345320714E0,3.742716447E0
1.165306688E1,-2.190144789E-1,1.727557526E0,-3.133488954E0,3.584853606E0
1.166309088E1,-3.248432350E-1,1.914571363E0,-2.301970450E0,3.011673054E0
1.167311488E1,-3.354740578E-1,2.022299002E0,-1.336356579E0,2.447056396E0
1.168313788E1,-7.360439980E-1,1.987036783E0,-1.452229097E0,2.568860700E0
1.169316188E1,-1.065410347E0,2.068527089E0,-2.266121171E0,3.247954539E0
1.170318587E1,-1.338568288E0,2.179130974E0,-2.812186793E0,3.801153959E0
1.171320988E1,-1.574527706E0,2.166258621E0,-3.196114973E0,4.169767959E0
1.172323388E1,-1.550971613E0,2.062055975E0,-3.485428771E0,4.336565635E0
1.173325788E1,-1.495847280E0,1.848981683E0,-3.734859881E0,4.427806532E0
1.174328188E1,-1.646299647E0,1.751199865E0,-4.076990409E0,4.732742788E0
1.175330587E1,-1.859988189E0,1.771292652E0,-4.468581950E0,5.154149626E0
1.176332988E1,-2.146956085E0,1.771184771E0,-5.017738411E0,5.737962590E0
1.177335287E1,-2.389807031E0,1.724140120E0,-5.596939035E0,6.325311325E0
1.178337688E1,-2.580899301E0,1.490409369E0,-6.148917362E0,6.833121250E0
1.179340088E1,-2.696963608E0,1.100265307E0,-6.669182146E0,7.277512414E0
1.180342488E1,-2.634569432E0,6.406975454E-1,-7.092182590E0,7.592792854E0
1.181344888E1,-2.367375942E0,2.902949613E-1,-7.523579636E0,7.892590864E0
1.182347287E1,-1.605899772E0,-1.008787957E-1,-7.479560627E0,7.650680870E0
1.183349688E1,-4.413074917E-1,-1.683547872E-1,-6.181404492E0,6.199423936E0
1.184352088E1,6.076639929E-1,1.059103248E-1,-4.804362987E0,4.843797708E0
1.185354388E1,1.774945993E0,4.034698668E-1,-2.815955324E0,3.353032298E0
1.186356787E1,2.862895894E0,8.519767427E-1,-2.953674209E-1,3.001546132E0
1.187359188E1,3.490721086E0,1.276494832E0,1.934941893E0,4.190295083E0
1.188361588E1,3.426286232E0,1.408456841E0,4.154654297E0,5.566357907E0
1.189363988E1,2.525204279E0,9.934591886E-1,6.259523878E0,6.822408445E0
1.190366388E1,9.261448726E-1,1.501021188E-1,8.310092121E0,8.362888618E0
1.191368787E1,-8.345666581E-1,-4.030982763E-1,9.662801608E0,9.707148121E0
1.192371188E1,-2.240238763E0,1.602090311E-1,8.245144758E0,8.545568953E0
1.193373588E1,-2.098860982E0,1.199404556E0,3.962510113E0,4.641688821E0
1.194375888E1,-7.785295746E-1,1.300211138E0,2.307268027E0,2.760460659E0
1.195378288E1,7.722797781E-2,1.177159116E0,1.262789835E0,1.728093144E0
1.196380688E1,5.247262090E-2,1.066277781E0,1.764368087E-1,1.082049735E0
1.197383088E1,-3.855089745E-1,9.135923624E-1,-6.886809665E-1,1.207290209E0
1.198385487E1,-6.671085414E-1,8.450934005E-1,-1.028557393E0,1.489008721E0
1.199387888E1,-6.937142497E-1,1.125944524E0,-5.515374470E-1,1.432893606E0
1.200390288E1,-6.772110683E-1,1.597034224E0,3.923832536E-1,1.778509983E0
1.201392688E1,-8.557940975E-1,1.588946940E0,4.187296379E-1,1.852692750E0
1.202394988E1,-7.819539964E-1,1.549036769E0,-1.703428406E-1,1.743554888E0
1.203397388E1,-6.760837251E-1,1.506193343E0,-4.262415558E-1,1.705106875E0
1.204399775E1,-7.844732693E-1,1.454481445E0,-7.039334285E-1,1.796228509E0
1.205402175E1,-9.467294106E-1,1.469163219E0,-1.000403050E0,2.013837978E0
1.206404575E1,-1.058443682E0,1.341154220E0,-1.342288579E0,2.172725546E0
1.207406975E1,-1.096421347E0,1.105706141E0,-1.602537623E0,2.234469215E0
1.208409375E1,-8.327861810E-1,9.685333854E-1,-1.400487671E0,1.895509287E0
1.209411775E1,-2.996250710E-1,1.042571415E0,-4.867140448E-1,1.188957905E0
1.210414075E1,-2.367976159E-2,9.325078127E-1,2.386084986E-1,9.628424416E-1
1.211416475E1,1.000736341E-1,7.378551731E-1,5.535360253E-1,9.278184736E-1
1.212418875E1,2.246181580E-1,6.304511771E-1,8.214794201E-1,1.059599189E0
1.213421275E1,3.298721328E-1,5.889786306E-1,1.112908157E0,1.301643583E0
1.214423675E1,3.025463399E-1,5.229989415E-1,1.320818188E0,1.452454084E0
1.215426075E1,1.841890472E-1,3.054728714E-1,1.352746325E0,1.398986025E0
1.216428475E1,9.398551315E-2,-1.293047422E-1,1.230548873E0,1.240888199E0
1.217430875E1,1.184879780E-2,-6.263519865E-1,1.083317152E0,1.251412505E0
1.218433275E1,-1.454477352E-1,-1.048471255E0,9.958451450E-1,1.453325349E0
1.219435575E1,-4.006485853E-1,-1.669530635E0,9.624154437E-1,1.968272165E0
1.220437975E1,-6.393044463E-1,-2.261208340E0,7.927654982E-1,2.479969852E0
1.221440375E1,-9.813115981E-1,-2.286338503E0,5.897870082E-1,2.556983559E0
1.222442775E1,-1.620246793E0,-1.856127273E0,3.071706104E-1,2.482893857E0
1.223445175E1,-2.332876200E0,-1.172815512E0,-1.945970911E-1,2.618334513E0
1.224447575E1,-2.739984497E0,-7.796227115E-1,-7.290536517E-1,2.940551962E0
1.225449975E1,-3.114319150E0,-2.992862248E-1,-1.255780778E0,3.371281859E0
1.226452375E1,-3.497173489E0,3.719071814E-1,-1.563561838E0,3.848800200E0
1.227454675E1,-3.881822630E0,1.082694716E0,-1.801297932E0,4.414232552E0
1.228457075E1,-4.276656452E0,1.797337613E0,-2.092448341E0,5.089062090E0
1.229459475E1,-4.590169537E0,2.491244820E0,-2.301468759E0,5.707251140E0
1.230461875E1,-4.850532017E0,3.072713580E0,-2.488906519E0,6.258105564E0
1.231464275E1,-5.084196110E0,3.576108561E0,-2.714297386E0,6.782699523E0
1.232466675E1,-5.220606388E0,3.985852198E0,-2.840213667E0,7.156015825E0
1.233469075E1,-5.262252012E0,4.362112339E0,-2.831177380E0,7.398302891E0
1.234471475E1,-5.213930038E0,4.730921373E0,-2.803375039E0,7.577967741E0
1.235473875E1,-5.078496244E0,4.996315967E0,-2.780563881E0,7.647603078E0
1.236476175E1,-4.899386673E0,5.067802271E0,-2.792209196E0,7.581757173E0
1.237478575E1,-4.446153200E0,4.352548633E0,-2.678651006E0,6.774077730E0
1.238480975E1,-3.553938258E0,2.465371476E0,-2.353465416E0,4.924158113E0
1.239483375E1,-3.092591774E0,1.028843322E0,-2.517153541E0,4.118094755E0
1.240485775E1,-3.054128789E0,3.761648315E-1,-2.652991962E0,4.062950774E0
1.241488175E1,-2.773602186E0,-1.465014035E-1,-2.891845751E0,4.009626366E0
1.242490575E1,-1.993025209E0,-8.420610344E-1,-3.363076369E0,3.998937225E0
1.243492975E1,6.404776901E-1,-1.457837162E0,-3.272512646E0,3.639346079E0
1.244495275E1,4.229651270E0,-2.086770694E0,-2.556263812E0,5.364610561E0
1.245497675E1,7.708884332E0,-2.114139757E0,-2.140573264E0,8.275176037E0
1.246500075E1,8.860332656E0,-1.113202271E0,-1.824355842E0,9.114438453E0
1.247502475E1,6.373801276E0,-9.721288383E-1,-8.573202208E-1,6.504258232E0
1.248504875E1,2.667295128E0,-2.477614376E0,-1.994055489E-1,3.645929082E0
1.249507275E1,8.790025735E-1,-3.608304500E0,4.226940501E-1,3.737803787E0
1.250509675E1,6.240896988E-1,-4.185097826E0,7.042035699E-1,4.289572756E0
1.251512075E1,4.978015351E-1,-3.908330398E0,1.088940420E0,4.087620836E0
1.252514375E1,8.931639451E-1,-2.356619697E0,1.741277432E0,3.063240984E0
1.253516775E1,1.822712190E0,-1.321490033E0,1.811205454E0,2.889477605E0
1.254519175E1,1.947909263E0,-5.989829242E-1,6.475270933E-1,2.138322327E0
1.255521575E1,1.737748638E0,-1.125273263E-1,-7.646456534E-1,1.901871631E0
1.256523975E1,1.912420172E0,-2.695209736E-1,-1.727857488E0,2.591425084E0
1.257526375E1,2.599545195E0,-7.418169540E-1,-2.344380305E0,3.578274252E0
1.258528775E1,3.265420851E0,-5.040568864E-1,-2.642908146E0,4.231076712E0
1.259531175E1,3.941173038E0,-5.496148825E-2,-2.598987662E0,4.721292467E0
1.260533575E1,4.840827978E0,-2.091665983E-2,-1.659763153E0,5.117505910E0
1.261535875E1,4.511698149E0,-3.472947890E-1,-1.973213089E-1,4.529345378E0
1.262538275E1,2.340303041E0,-6.894738489E-1,1.155998628E0,2.699763942E0
1.263540675E1,1.529354457E0,-9.607492796E-1,2.136750355E0,2.797796689E0
1.264543075E1,1.325925146E0,-1.304013290E0,2.817829941E0,3.376195156E0
1.265545475E1,8.553470778E-1,-2.768540252E0,2.646038160E0,3.924022387E0
1.266547875E1,4.365653998E-1,-4.037170871E0,1.944352986E0,4.502204629E0
1.267550275E1,4.186623949E-1,-4.437087677E0,1.381416392E0,4.665976479E0
1.268552675E1,6.377973264E-1,-4.279692326E0,1.218069161E0,4.495135628E0
1.269554975E1,9.174784219E-1,-4.133228930E0,1.500212519E0,4.491768654E0
1.270557375E1,1.035600364E0,-3.817794742E0,2.444726127E0,4.650237697E0
1.271559775E1,1.260428145E0,-3.053371575E0,4.609761218E0,5.671124718E0
1.272562175E1,1.732837561E0,-2.536017243E0,7.433182266E0,8.042779872E0
1.273564575E1,2.494550836E0,-2.096914152E0,1.101446327E1,1.148643696E1
1.274566975E1,2.833025685E0,-1.556144645E0,1.498977353E1,1.533430569E1
1.275569375E1,3.075440429E0,-9.868033031E-1,1.942011176E1,1.968687013E1
1.276571775E1,3.421195938E0,-7.170385006E-1,2.378348886E1,2.403899058E1
1.277574175E1,3.680167657E0,-7.315021732E-1,2.570813965E1,2.598051527E1
1.278576475E1,3.867934908E0,-1.665657731E0,2.294540744E1,2.332867460E1
1.279578875E1,4.038108764E0,-1.726825747E0,1.775381902E1,1.828896770E1
1.280581275E1,3.603043468E0,-1.172990052E0,1.723127441E1,1.764297724E1
1.281583675E1,2.015671768E0,-8.957416901E-1,1.625574015E1,1.640470584E1
1.282586075E1,8.423440397E-1,-8.652657098E-1,1.312076250E1,1.317621481E1
1.283588475E1,5.487603119E-1,-1.058730780E0,1.054622760E1,1.061343325E1
1.284590875E1,5.488278472E-1,-1.225110378E0,8.302124121E0,8.409956739E0
1.285593175E1,6.365749660E-1,-1.465789668E0,6.251299185E0,6.452325823E0
1.286595575E1,8.641762273E-1,-1.582911298E0,4.256530920E0,4.622819941E0
1.287597975E1,1.257723223E0,-1.630370516E0,2.267984678E0,3.063287486E0
1.288600375E1,1.945747986E0,-2.018519947E0,7.271141303E-1,2.896386189E0
1.289602775E1,2.756254959E0,-2.634777008E0,-4.722527111E-1,3.842136633E0
1.290605175E1,1.983585757E0,-1.169703185E0,-2.934611701E0,3.730249835E0
1.291607575E1,1.059985008E0,-2.530324101E-2,-3.982507591E0,4.121234667E0
1.292609975E1,2.229540405E-1,1.023101941E-2,-4.927349228E0,4.932401402E0
1.293612375E1,-5.777534384E-1,-1.672028857E-1,-5.861710900E0,5.892487634E0
1.294614675E1,-1.464706179E0,3.530309075E-1,-6.027441457E0,6.212893491E0
1.295617075E1,-2.039227569E0,1.418210289E0,-6.736566628E0,7.179909431E0
1.296619475E1,-3.573228223E0,1.866164311E0,-7.319478480E0,8.356153086E0
1.297621875E1,-5.816107880E0,2.276528630E0,-7.121760145E0,9.472547759E0
1.298624275E1,-7.624311959E0,2.597312143E0,-6.629277238E0,1.043184930E1
1.299626675E1,-8.603966163E0,2.914340867E0,-5.877839860E0,1.081991764E1
1.300629075E1,-9.299415282E0,3.397105410E0,-5.749761279E0,1.144898268E1
1.301631475E1,-9.380298062E0,4.225157100E0,-5.891473812E0,1.185543791E1
1.302633775E1,-9.738687943E0,5.093256955E0,-5.719697235E0,1.238944090E1
1.303636175E1,-1.016806010E1,5.266069075E0,-8.611388619E0,1.432748909E1
1.304638650E1,-9.875423326E0,5.343425399E0,-4.513018450E0,1.210138490E1
1.305641050E1,-9.183398922E0,4.757288808E0,-4.750343485E0,1.138122910E1
1.306643450E1,-8.566940424E0,4.715953671E0,-4.691481319E0,1.084632123E1
1.307645850E1,-8.482652811E0,4.781580188E0,-3.850675682E0,1.047122777E1
1.308648250E1,-8.179323236E0,4.765079930E0,-3.878364002E0,1.022981049E1
1.309650650E1,-8.489099366E0,4.763304423E0,-3.767553418E0,1.043783195E1
1.310652950E1,-8.672768011E0,4.770277812E0,-3.334964125E0,1.044482844E1
1.311655350E1,-8.673598900E0,4.888530440E0,-3.054005998E0,1.041422106E1
1.312657750E1,-8.544307022E0,4.926845198E0,-2.954541351E0,1.029603325E1
1.313660150E1,-8.461269543E0,5.066196041E0,-2.865241504E0,1.026981176E1
1.314662550E1,-8.375925338E0,5.110464141E0,-2.957451510E0,1.024790166E1
1.315664950E1,-8.333849943E0,5.096978123E0,-3.187241531E0,1.027573596E1
1.316667350E1,-8.321404145E0,5.030171345E0,-3.429905950E0,1.031080237E1
1.317669750E1,-8.291017919E0,4.872764592E0,-3.691975232E0,1.030123750E1
1.318672150E1,-8.349539192E0,4.331316516E0,-4.493895716E0,1.042450029E1
1.319674450E1,-8.497948542E0,3.611365517E0,-5.120963402E0,1.055847321E1
1.320676850E1,-8.298810503E0,3.678502370E0,-5.175865248E0,1.044946011E1
1.321679250E1,-7.994464683E0,3.774343205E0,-5.267059008E0,1.029072606E1
1.322681650E1,-7.737594160E0,3.620426655E0,-5.208829511E0,1.000548637E1
1.323684050E1,-7.532292572E0,3.220522128E0,-4.906933089E0,9.549093491E0
1.324686450E1,-7.256258969E0,2.010595215E0,-3.552781679E0,8.325745913E0
1.325688850E1,-7.102523975E0,1.065620262E0,-1.736130129E0,7.388879562E0
1.326691250E1,-6.945841400E0,1.119744721E0,-2.177772081E0,7.364864712E0
1.327693550E1,-6.907214109E0,1.974993273E0,-3.590200351E0,8.031173248E0
1.328695950E1,-7.210233781E0,3.811054071E0,-3.942891535E0,9.058586974E0
1.329698350E1,-7.362411661E0,4.569778250E0,-3.872612973E0,9.491317609E0
1.330700750E1,-7.613120388E0,4.643753714E0,-3.713526900E0,9.659934401E0
1.331703150E1,-7.951877657E0,4.790891879E0,-3.506489273E0,9.923732679E0
1.332705550E1,-8.084792470E0,4.973487852E0,-3.216382592E0,1.002220373E1
1.333707950E1,-8.459707752E0,4.935941711E0,-3.505174234E0,1.040271225E1
1.334710350E1,-8.579762199E0,4.962516137E0,-3.693443468E0,1.057735366E1
1.335712750E1,-8.468762165E0,5.141380709E0,-3.405812498E0,1.047632030E1
1.336715050E1,-8.335171414E0,5.253784660E0,-3.217918363E0,1.036495704E1
1.337717450E1,-8.216954747E0,5.329469849E0,-3.028175338E0,1.025141161E1
1.338719850E1,-8.066255627E0,5.398032546E0,-2.858079250E0,1.011789762E1
1.339722250E1,-8.009821225E0,5.445520708E0,-2.744198293E0,1.006685433E1
1.340724650E1,-7.829760312E0,5.364675935E0,-2.398302743E0,9.789624634E0
1.341727050E1,-7.619433627E0,4.845036219E0,-2.790608521E0,9.450801060E0
1.342729450E1,-7.005826816E0,2.794960896E0,-3.514866871E0,8.321520588E0
1.343731850E1,-1.306697747E0,-1.077646055E1,-3.429369761E0,1.138420563E1
1.344734150E1,3.374945515E1,-5.691919686E1,-7.677402923E0,6.661653856E1
1.345736550E1,6.515313367E1,-6.109684533E1,1.042899444E0,8.932436944E1
1.346738950E1,6.585602513E1,-9.157681113E0,9.088560008E0,6.710798084E1
1.347741350E1,4.562491625E1,1.814913992E1,1.676234877E1,5.188449285E1
1.348743750E1,1.933094056E1,1.239856705E1,2.041659425E1,3.072860310E1
1.349746150E1,3.242235471E0,1.941574389E0,2.628157843E1,2.655189572E1
1.350748550E1,-7.726481527E-1,-3.375186245E0,3.781804603E1,3.797622247E1
1.351750950E1,-5.436903666E0,-3.867234412E0,3.490349905E1,3.553547058E1
1.352753250E1,-5.605461352E0,-1.403145230E0,1.412237768E1,1.525881925E1
1.353755650E1,-4.296368878E0,1.641475694E0,3.457031184E0,5.753632991E0
1.354758050E1,-3.864292678E0,1.396143482E0,-1.242661965E-1,4.110646738E0
1.355760450E1,-3.382314293E0,-1.420396855E-1,-1.016284672E0,3.534552275E0
1.356762850E1,-2.200386772E0,-1.070599751E0,-1.072281117E0,2.671642298E0
1.357765250E1,-5.366861039E-1,-7.006601572E-1,-1.595303448E0,1.823170239E0
1.358767650E1,-6.067486113E-1,1.347970319E-1,-2.707804053E0,2.778221897E0
1.359770050E1,-7.642971593E-1,1.278786063E0,-3.151190815E0,3.485605757E0
1.360772450E1,-1.085526230E0,2.108553911E0,-3.312161154E0,4.073668899E0
1.361774750E1,-1.363115777E0,1.927252219E0,-2.380171697E0,3.352253428E0
1.362777150E1,-1.755009618E0,1.697006116E0,-7.823100919E-1,2.563571259E0
1.363779550E1,-1.916429608E0,1.622475751E0,4.688303357E-1,2.554394623E0
1.364781950E1,-2.124388756E0,1.696167041E0,5.795824474E-1,2.779555006E0
1.365784350E1,-2.233230582E0,1.339437185E0,-4.598121750E-1,2.644397482E0
1.366786750E1,-1.929073627E0,1.361521533E0,-1.777119695E0,2.955202253E0
1.367789150E1,-1.372674220E0,1.815673604E0,-2.599088527E0,3.454875732E0
1.368791550E1,-1.338419477E0,1.835547997E0,-2.991586386E0,3.756353584E0
1.369793850E1,-1.258369925E0,1.819267595E0,-3.221760861E0,3.908065057E0
1.370796250E1,-1.452350135E0,1.796893224E0,-3.397873149E0,4.108976528E0
1.371798650E1,-1.801808394E0,1.782367863E0,-3.531949804E0,4.347185078E0
1.372801050E1,-2.257351516E0,1.792552251E0,-3.805132304E0,4.773668536E0
1.373803450E1,-2.465409483E0,1.830428175E0,-4.116256217E0,5.135394480E0
1.374805850E1,-2.396710546E0,1.903757522E0,-4.199501272E0,5.196568587E0
1.375808250E1,-2.358052264E0,2.059745156E0,-4.421027130E0,5.417420186E0
1.376810650E1,-2.264923076E0,1.954827104E0,-4.453373927E0,5.365050315E0
1.377812950E1,-2.080735198E0,1.667145555E0,-4.270611016E0,5.034575624E0
1.378815350E1,-1.695834627E0,1.375065439E0,-3.807804481E0,4.389309172E0
1.379817750E1,-1.395520461E0,1.147628338E0,-3.065803925E0,3.558606731E0
1.380820150E1,-1.315244622E0,6.877264085E-1,-2.110188793E0,2.579870689E0
1.381822550E1,-1.089733887E0,1.103103545E-1,-1.127717984E0,1.572080205E0
1.382824950E1,-5.957912216E-1,-3.062116671E-1,-8.150316954E-2,6.748151831E-1
1.383827350E1,-2.034374964E-1,-6.319597587E-1,1.016091714E0,1.213755462E0
1.384829750E1,-7.000695884E-2,-7.773189086E-1,1.988842111E0,2.136496806E0
1.385832050E1,-8.399993062E-2,-9.786218789E-1,2.777627410E0,2.946179017E0
1.386834450E1,-1.428656048E-1,-1.184794410E0,3.382579172E0,3.586919323E0
1.387836850E1,-1.868124005E-1,-1.257764153E0,3.628174508E0,3.844544160E0
1.388839250E1,-1.930654129E-1,-1.170757877E0,3.397802982E0,3.599029503E0
1.389841650E1,-1.115771538E-1,-8.844705972E-1,2.412223209E0,2.571683983E0
1.390844050E1,2.649724245E-2,-5.130706617E-1,1.472337087E0,1.559397354E0
1.391846450E1,3.497892112E-2,-8.170665264E-2,1.014730482E0,1.018615459E0
1.392848850E1,-2.598871011E-1,1.757898143E-1,6.633490741E-1,7.338088022E-1
1.393851150E1,-5.688954914E-1,3.803739497E-1,3.663479412E-1,7.762327201E-1
1.394853550E1,-7.825966054E-1,6.637031230E-1,1.537718314E-1,1.037595807E0
1.395855950E1,-8.970119977E-1,9.661015284E-1,-2.414081454E-2,1.318546725E0
1.396858350E1,-9.360734448E-1,1.164741384E0,-7.392050028E-2,1.496101677E0
1.397860750E1,-9.727626765E-1,1.275694640E0,-1.281709671E-2,1.604315529E0
1.398863150E1,-1.038772771E0,1.288317902E0,8.572602868E-2,1.657154440E0
1.399865550E1,-1.062120411E0,1.220498971E0,1.197281724E-1,1.622360114E0
1.400867950E1,-1.024652038E0,1.115689385E0,9.178842187E-2,1.517596691E0
1.401870250E1,-8.988983095E-1,9.621116808E-1,8.414260268E-2,1.319377518E0
1.402872650E1,-7.375587192E-1,7.806059209E-1,1.409348541E-1,1.083144081E0
1.403875050E1,-5.867049408E-1,5.633950156E-1,2.188899332E-1,8.423475732E-1
1.404877725E1,-4.240131819E-1,3.575049046E-1,3.121115077E-1,6.364043749E-1
1.405880125E1,-2.653407991E-1,1.999370608E-1,5.064671087E-1,6.057140416E-1
1.406882525E1,-1.913919398E-1,4.569891393E-2,7.484096897E-1,7.738451582E-1
1.407884925E1,-2.319783407E-1,-1.386898157E-1,1.039572378E0,1.074131996E0
1.408887325E1,-3.002118391E-1,-3.643914628E-1,1.259514225E0,1.345096417E0
1.409889725E1,-2.884548426E-1,-5.182296601E-1,1.438154849E0,1.555653415E0
1.410892025E1,-2.287226111E-1,-5.929319331E-1,1.630569760E0,1.750040014E0
1.411894425E1,-2.451649815E-1,-5.894785675E-1,1.861685636E0,1.968111851E0
1.412896825E1,-3.797789955E-1,-4.812974766E-1,2.049315185E0,2.139058689E0
1.413899225E1,-5.665127510E-1,-3.557679892E-1,2.135934668E0,2.238241378E0
1.414901625E1,-7.396549460E-1,-1.583124867E-1,2.040881746E0,2.176545562E0
1.415904025E1,-8.111213699E-1,5.258693397E-3,1.825697193E0,1.997777708E0
1.416906425E1,-7.971283981E-1,2.044958425E-1,1.545554752E0,1.750991641E0
1.417908825E1,-7.603906345E-1,4.502785823E-1,1.360668132E0,1.622455696E0
1.418911125E1,-7.457971537E-1,7.925251776E-1,1.149233399E0,1.582734013E0
1.419913525E1,-6.985528207E-1,1.035454476E0,8.522158939E-1,1.512089265E0
1.420915925E1,-6.215999544E-1,1.038808439E0,6.517978996E-1,1.374899988E0
1.421918325E1,-4.118129665E-1,8.445551643E-1,5.677260482E-1,1.097805179E0
1.422920725E1,-1.904104847E-1,6.696889177E-1,5.651567817E-1,8.967394198E-1
1.423923125E1,-1.015643817E-1,4.847344700E-1,4.257369411E-1,6.530962969E-1
1.424925525E1,2.858996093E-2,2.109093609E-1,1.631700611E-1,2.681876456E-1
1.425927925E1,1.988041627E-1,-5.408586770E-2,-8.451448560E-2,2.226905352E-1
1.426930225E1,4.513652873E-1,-3.094372836E-1,-2.148500919E-1,5.879137837E-1
1.427932625E1,6.986370206E-1,-5.479495955E-1,-2.517360824E-1,9.228832542E-1
1.428935025E1,8.707416272E-1,-7.537943906E-1,-1.939568210E-1,1.167911047E0
1.429937425E1,9.751962876E-1,-9.139674613E-1,-1.337784469E-1,1.343220381E0
1.430939825E1,1.066335669E0,-9.929650989E-1,-1.582841277E-1,1.465641604E0
1.431942225E1,1.149197146E0,-1.033256215E0,-2.715745157E-1,1.569084193E0
1.432944625E1,1.371992435E0,-1.309072009E0,-4.330787051E-1,1.945145221E0
1.433947025E1,1.697846069E0,-1.796688279E0,-4.032807094E-1,2.504676701E0
1.434949325E1,1.729178374E0,-1.756054223E0,-3.293181092E-1,2.486410003E0
1.435951725E1,1.264024183E0,-1.522267047E0,-4.305889606E-2,1.979118027E0
1.436954125E1,4.353199428E-1,-1.129283284E0,2.944137400E-1,1.245577632E0
1.437956525E1,-1.780266666E-1,-6.752399719E-1,6.450344253E-1,9.506376404E-1
1.438958925E1,-6.494800633E-1,-1.687132215E-1,8.465353239E-1,1.080236344E0
1.439961325E1,-1.087761036E0,3.078939110E-1,7.458942175E-1,1.354393191E0
1.440963725E1,-1.600730833E0,9.358977360E-1,4.213620543E-1,1.901523009E0
1.441966125E1,-2.003298767E0,1.441417888E0,3.409406197E-1,2.491411645E0
1.442968525E1,-2.242705411E0,1.702511562E0,3.002171016E-1,2.831678563E0
1.443970825E1,-2.380060015E0,1.873615125E0,2.377828717E-1,3.038364693E0
1.444973225E1,-2.451114795E0,2.022150190E0,3.045305926E-1,3.192145675E0
1.445975625E1,-2.516425270E0,2.280479593E0,1.470615667E-1,3.399207322E0
1.446978025E1,-2.727748321E0,2.529352294E0,-1.910139173E-1,3.724878555E0
1.447980425E1,-3.108778621E0,2.731192916E0,-5.003485823E-1,4.168245190E0
1.448982825E1,-3.506384608E0,2.825393607E0,-7.396493912E-1,4.563404789E0
1.449985225E1,-3.953126501E0,2.804259430E0,-1.043938494E0,4.957911624E0
1.450987625E1,-4.409812755E0,2.788216133E0,-1.286368148E0,5.373578021E0
1.451989925E1,-4.889215441E0,2.786620720E0,-1.501220579E0,5.824375150E0
1.452992325E1,-5.316535224E0,2.872038015E0,-1.689787144E0,6.274514303E0
1.453994725E1,-5.592063627E0,3.203442119E0,-1.915277122E0,6.723206338E0
1.454997125E1,-5.856900396E0,3.538740468E0,-1.990439863E0,7.126557177E0
1.455999525E1,-6.456891380E0,3.735564763E0,-1.979752907E0,7.717856695E0
1.457001925E1,-6.801758405E0,3.929446740E0,-1.973032117E0,8.099217543E0
1.458004325E1,-7.038729098E0,4.061957218E0,-1.871539949E0,8.339416379E0
1.459006725E1,-7.197524858E0,4.052465141E0,-1.761563762E0,8.445705695E0
1.460009025E1,-7.261513277E0,3.710701818E0,-1.526905935E0,8.296404329E0
1.461011425E1,-7.071622610E0,2.908500668E0,-1.110177799E0,7.726559210E0
1.462013825E1,-6.806224508E0,1.688586710E0,-8.516937375E-1,7.064092253E0
1.463016225E1,-6.465338852E0,-3.687838912E-3,-7.332466900E-1,6.506786518E0
1.464018625E1,-5.782267120E0,-1.899498995E0,-1.083531745E0,6.181969793E0
1.465021025E1,-4.907909575E0,-4.074940376E0,-1.689439527E0,6.599009120E0
1.466023425E1,-3.128052798E0,-5.819168898E0,-2.357896729E0,7.014778539E0
1.467025825E1,-7.723417586E-1,-6.350414168E0,-3.550650369E0,7.316514876E0
1.468028125E1,1.721606230E0,-5.505119623E0,-4.385840925E0,7.246093478E0
1.469030525E1,4.682542096E0,-3.343689340E0,-3.991802909E0,7.002924343E0
1.470032925E1,5.868845673E0,-1.573926320E0,-4.759302589E0,7.718261120E0
1.471035325E1,5.996089271E0,-1.381409668E0,-6.014605064E0,8.604467055E0
1.472037725E1,7.574493681E0,-1.634805483E0,-6.290871971E0,9.981012656E0
1.473040125E1,7.739332538E0,-1.390092199E0,-6.120962409E0,9.964728057E0
1.474042525E1,5.631242310E0,-1.075980066E0,-5.901607622E0,8.227854859E0
1.475044925E1,3.557824903E0,-1.100629588E0,-5.225892856E0,6.417122382E0
1.476047325E1,2.536979402E0,-4.075205255E-1,-3.456159364E0,4.306666346E0
1.477049625E1,2.234499428E0,7.660615566E-1,-1.987613611E0,3.087142023E0
1.478052025E1,2.847240851E0,1.616200812E0,-1.250825847E0,3.504775432E0
1.479054425E1,3.832814777E0,1.710267309E0,-1.001633888E0,4.314945403E0
1.480056825E1,3.828271490E0,1.117300000E0,-1.231928816E0,4.173927467E0
1.481059225E1,2.604187299E0,4.388235945E-1,-1.356018426E0,2.968693923E0
1.482061625E1,2.035001786E0,-3.957883796E-1,-1.518064653E0,2.569513767E0
1.483064025E1,2.322092473E0,-1.739700731E0,-1.557578967E0,3.293132904E0
1.484066425E1,2.731899844E0,-2.589952837E0,-1.655203494E0,4.112278087E0
1.485068725E1,3.073601187E0,-3.092610485E0,-1.881783101E0,4.748933723E0
1.486071125E1,3.412854885E0,-3.514005576E0,-2.130815431E0,5.341927373E0
1.487073525E1,3.734675109E0,-3.913853678E0,-2.494779170E0,5.957346044E0
1.488075925E1,4.371535127E0,-4.089573910E0,-2.979738173E0,6.686835852E0
1.489078325E1,4.515731558E0,-3.780469918E0,-3.684798945E0,6.947051718E0
1.490080725E1,3.998937682E0,-3.173114073E0,-3.958696851E0,6.459987327E0
1.491083125E1,3.965612646E0,-1.403204287E0,-2.404617736E0,4.845333052E0
1.492085525E1,4.375790731E0,1.978494001E0,4.736636442E0,6.745198871E0
1.493087825E1,9.067791867E-1,3.333491796E0,1.518230480E1,1.557038198E1
1.494090225E1,-3.022543885E0,2.773646041E0,3.208216604E1,3.234338050E1
1.495092625E1,-7.739739504E0,2.411897519E-1,5.217906495E1,5.275051241E1
1.496095025E1,-8.884416168E0,-1.074998319E0,5.334985060E1,5.409524038E1
1.497097425E1,-7.116715168E0,-1.784965635E0,2.315643813E1,2.429103464E1
1.498099825E1,-8.997049329E-1,-2.089248890E0,1.601789998E1,1.617861396E1
1.499102225E1,4.992835704E0,-1.569883116E0,2.246652515E1,2.306810989E1
1.500104625E1,6.713162563E0,-9.510651210E-1,2.156367529E1,2.260449443E1
1.501106925E1,5.160959526E0,-1.290070459E0,1.973100120E1,2.043556198E1
1.502109325E1,5.187054480E0,4.006095551E-1,1.844633284E1,1.916593899E1
1.503111725E1,4.450613456E0,1.420127591E0,1.210646588E1,1.297656498E1
1.504114125E1,2.474467989E0,1.121963155E0,5.292055855E0,5.948751829E0
1.505116188E1,1.241499831E0,1.254841861E0,1.629771030E-1,1.772713023E0
1.506118588E1,4.284228596E-1,1.301257059E0,-3.160137640E0,3.444312120E0
1.507120988E1,1.511549685E0,-1.714915261E-1,-2.502500126E0,2.928600122E0
1.508123388E1,5.110010982E0,-4.515964862E0,1.205590618E-1,6.820607404E0
1.509125688E1,-1.688988706E0,-2.513858050E0,-4.662587888E0,5.559846307E0
1.510128088E1,-1.061085921E1,8.470583573E-1,-6.168351753E0,1.230269907E1
1.511130487E1,-1.377509984E1,8.140344527E-1,-5.389651147E0,1.481432980E1
1.512132888E1,-1.561403981E1,4.100137782E-1,-5.056445224E0,1.641749033E1
1.513135288E1,-1.707848901E1,1.695487594E0,-8.731241337E0,1.925575343E1
1.514137688E1,-1.860098000E1,1.223805571E0,-1.918265867E1,2.674824388E1
1.515140088E1,-2.339680547E1,-1.836856897E0,-2.363652494E1,3.330870548E1
1.516142487E1,-2.250479401E1,-2.135634998E0,-2.201642052E1,3.155549814E1
1.517144888E1,-1.692693385E1,1.186312640E0,-1.475837932E1,2.248862352E1
1.518147187E1,-1.109833106E1,3.887584476E0,-8.305298574E0,1.439667495E1
1.519149588E1,-8.686279172E0,3.003440154E0,-5.398995582E0,1.065932699E1
1.520151988E1,-8.482969730E0,2.374383245E0,-4.713776168E0,9.990903713E0
1.521154388E1,-8.458361138E0,2.409755099E0,-4.572461537E0,9.912527291E0
1.522156788E1,-8.020355569E0,2.990938807E0,-3.449818059E0,9.228925346E0
1.523159187E1,-7.532810635E0,3.396251716E0,-3.731494809E0,9.066521675E0
1.524161588E1,-7.793223985E0,3.832929967E0,-3.918465961E0,9.527857456E0
1.525163988E1,-8.138030784E0,4.141430527E0,-4.184840256E0,1.004449500E1
1.526166288E1,-7.718415878E0,4.265863076E0,-4.587133663E0,9.940489258E0
1.527168687E1,-7.608747255E0,4.100663447E0,-5.003309821E0,9.987070875E0
1.528171088E1,-7.311767757E0,4.114216123E0,-4.620604295E0,9.578032475E0
1.529173488E1,-6.700426158E0,4.507382319E0,-2.308211183E0,8.398812114E0
1.530175888E1,-6.336152224E0,3.999818857E0,-1.675753534E0,7.678119939E0
1.531178288E1,-6.290691292E0,3.448175576E0,-7.914142066E-1,7.217274290E0
1.532180687E1,-6.676856031E0,2.520663916E0,-3.041171944E-1,7.143293380E0
1.533183088E1,-7.318212558E0,1.834072745E0,-9.866194081E-1,7.608776231E0
1.534185387E1,-7.673422723E0,1.626440017E0,-1.376429887E0,7.963748028E0
1.535187788E1,-8.356886804E0,1.878714921E0,-1.376725756E0,8.675396280E0
1.536190188E1,-9.528527902E0,2.545399685E0,-1.828422580E0,1.003070450E1
1.537192588E1,-9.861684709E0,3.409176401E0,-3.429463901E0,1.098346629E1
1.538194988E1,-8.946228254E0,3.781810099E0,-4.750873243E0,1.081239493E1
1.539197387E1,-8.028351052E0,3.927722104E0,-5.998165033E0,1.076380069E1
1.540199788E1,-7.378971561E0,3.837777894E0,-6.916605906E0,1.081744876E1
1.541202188E1,-6.969500404E0,3.733856499E0,-7.256205760E0,1.073164210E1
1.542204488E1,-6.745295352E0,3.741982667E0,-7.436276028E0,1.071445961E1
1.543206888E1,-6.536991802E0,3.711643219E0,-7.348094169E0,1.051204286E1
1.544209288E1,-6.473603307E0,3.637402584E0,-7.359803803E0,1.045490073E1
1.545211688E1,-6.584902718E0,3.597492121E0,-7.881955483E0,1.088246827E1
1.546214087E1,-6.791165589E0,3.719370022E0,-9.493120088E0,1.225042744E1
1.547216488E1,-6.712969020E0,3.720833580E0,-1.030350266E1,1.284798516E1
1.548218888E1,-6.634992891E0,3.680796233E0,-1.021511030E1,1.272477387E1
1.549221288E1,-6.611094736E0,3.510051396E0,-9.869213583E0,1.238662227E1
1.550223688E1,-6.454167747E0,2.975785747E0,-8.860772367E0,1.135891144E1
1.551225988E1,-5.703696914E0,1.860010555E0,-6.999728755E0,9.218893664E0
1.552228388E1,-4.944542965E0,1.267180510E0,-7.049476866E0,8.703411725E0
1.553230788E1,-4.331098123E0,1.090186607E0,-7.974100585E0,9.139649770E0
1.554233188E1,-4.406227242E0,4.823018821E-1,-1.051699854E1,1.141291864E1
1.555235587E1,-4.713211911E0,1.929301961E-1,-1.218719254E1,1.306825354E1
1.556237988E1,-4.907839993E0,3.909065393E-1,-1.108659804E1,1.213063714E1
1.557240388E1,-4.964728723E0,1.298980884E-1,-9.106737247E0,1.037294886E1
1.558242688E1,-5.301044195E0,8.293725765E-1,-8.580969649E0,1.012037393E1
1.559245088E1,-5.258284677E0,1.222667119E0,-6.090451638E0,8.138677643E0
1.560247488E1,-5.473951625E0,1.514718291E0,-6.256761653E0,8.450182500E0
1.561249888E1,-4.619816675E0,1.802378205E0,-4.126000017E0,6.450980502E0
1.562252287E1,5.066301291E0,6.650345340E-1,-6.591589594E-1,5.152103477E0
1.563254688E1,3.725119590E1,-1.111123235E1,5.424065520E0,3.924960595E1
1.564257088E1,5.543846668E1,-3.217081685E1,3.149544707E1,7.141672234E1
1.565259488E1,2.986536497E1,-4.076245123E1,6.766379242E1,8.445061432E1
1.566261888E1,-9.778166589E0,-2.256055540E1,6.872988017E1,7.299580556E1
1.567264188E1,-2.654668183E1,-7.132169359E0,3.681123502E1,4.594193269E1
1.568266588E1,-1.508690981E1,1.556250479E0,9.234588372E0,1.775709395E1
1.569268987E1,-1.266377394E0,1.543455017E0,7.726773888E0,7.980538817E0
1.570271388E1,1.958090288E0,3.948691973E-1,7.036427050E0,7.314461353E0
1.571273788E1,1.585458783E0,5.910394818E-1,5.333288666E0,5.595263641E0
1.572276188E1,1.268223068E0,9.469659305E-1,3.438657478E0,3.785432535E0
1.573278588E1,6.748973250E-2,1.288788310E0,6.117269307E-1,1.428194668E0
1.574280987E1,-1.325982157E0,1.518107045E0,-1.677918173E0,2.622648866E0
1.575283288E1,-1.191691786E0,1.514475924E0,-2.641426461E0,3.269694235E0
1.576285688E1,-6.867282888E-1,1.267021173E0,-2.525104877E0,2.907420340E0
1.577288088E1,3.949650916E-1,4.101935801E-1,-5.845028794E-1,8.160268456E-1
1.578290487E1,1.104050794E0,4.905849016E-1,3.656407789E0,3.850833627E0
1.579292888E1,-3.600189149E-2,7.413936156E-1,6.050687647E0,6.096046394E0
1.580295288E1,-1.078745507E0,1.937606469E-1,5.660326361E0,5.765460048E0
1.581297688E1,-1.823492208E-1,5.446158054E-1,3.116780536E0,3.169255200E0
1.582300088E1,1.137297185E0,7.479679325E-1,1.238266613E0,1.840164428E0
1.583302388E1,7.453179744E-1,5.945150667E-1,2.168398994E-1,9.777354394E-1
1.584304788E1,8.648967505E-2,8.118060789E-1,-4.279676539E-1,9.217732293E-1
1.585307187E1,-3.298949370E-1,9.854894337E-1,-9.497386801E-1,1.407843618E0
1.586309588E1,-5.977225569E-1,1.163759929E0,-1.532739995E0,2.015167814E0
1.587311988E1,-8.910060301E-1,1.428821231E0,-2.203926092E0,2.773573881E0
1.588314388E1,-1.233692628E0,1.708653770E0,-2.832818109E0,3.530772386E0
1.589316788E1,-1.459925495E0,1.981002164E0,-3.608254214E0,4.367522238E0
1.590319088E1,-1.687459660E0,2.125330743E0,-4.287946841E0,5.074548155E0
1.591321488E1,-1.802594259E0,2.185601503E0,-4.750572696E0,5.531197061E0
1.592323887E1,-1.688673249E0,1.956197983E0,-4.554183433E0,5.236307347E0
1.593326288E1,-1.580014733E0,1.893159151E0,-4.657353460E0,5.269861420E0
1.594328688E1,-1.764445563E0,2.143895068E0,-5.989692417E0,6.601967090E0
1.595331088E1,-2.006453632E0,2.364148279E0,-6.817210842E0,7.489286810E0
1.596333488E1,-2.119916221E0,2.332966832E0,-7.067587447E0,7.738706051E0
1.597335887E1,-1.771412520E0,1.920984004E0,-7.309279182E0,7.762322077E0
1.598338288E1,-1.418602637E0,1.580508823E0,-7.643451065E0,7.933018704E0
1.599340588E1,-1.170264957E0,1.254307280E0,-7.675718924E0,7.865079010E0
1.600342988E1,-8.894395611E-1,1.021802397E0,-6.581309019E0,6.719286516E0
1.601345387E1,-5.072734398E-1,1.306367964E0,-4.312426209E0,4.534417648E0
1.602347788E1,-3.174508926E-1,1.467743515E0,-2.218648211E0,2.679075583E0
1.603350188E1,-1.981475204E-1,1.192253119E0,-2.316193217E-1,1.230600443E0
1.604352567E1,-1.692219293E-1,8.522005449E-1,1.578005045E0,1.801383289E0
1.605354967E1,-1.691701815E-1,5.888172475E-1,3.051017486E0,3.111917737E0
1.606357367E1,-3.152730972E-2,3.858184384E-1,3.956938301E0,3.975828286E0
1.607359667E1,3.433373934E-1,8.032670975E-2,4.397972143E0,4.412084759E0
1.608362067E1,8.507181296E-1,-3.027585939E-1,4.655243785E0,4.742012104E0
1.609364467E1,1.254323359E0,-5.399194680E-1,4.687209928E0,4.882087364E0
1.610366867E1,1.458246759E0,-7.247577024E-1,4.341811391E0,4.637141738E0
1.611369267E1,1.099276250E0,-9.540749753E-1,3.393974810E0,3.692930049E0
1.612371667E1,3.584150237E-1,-9.810481811E-1,2.497783177E0,2.707367293E0
1.613374067E1,-7.561093032E-2,-6.395652321E-1,1.802830487E0,1.914408124E0
1.614376467E1,-3.340944073E-1,-1.616471538E-1,9.892851537E-1,1.056614400E0
1.615378767E1,-6.143985236E-1,2.039441577E-1,1.368529129E-1,6.616702237E-1
1.616381167E1,-7.922111821E-1,3.854902634E-1,-6.693541646E-1,1.106452122E0
1.617383567E1,-8.814812082E-1,6.129361349E-1,-1.098805257E0,1.536252850E0
1.618385967E1,-1.017071123E0,1.022197961E0,-1.200409985E0,1.876247977E0
1.619388367E1,-1.157898388E0,1.283028511E0,-1.108288271E0,2.053093697E0
1.620390767E1,-1.220215381E0,1.292529651E0,-8.927961552E-1,1.989131331E0
1.621393167E1,-1.070958185E0,1.191255876E0,-6.242627764E-1,1.719228318E0
1.622395567E1,-7.197890308E-1,1.081423239E0,-2.127310610E-1,1.316368860E0
1.623397867E1,-3.976834622E-1,9.566635376E-1,1.998128074E-1,1.055121992E0
1.624400267E1,-2.941950542E-1,8.201746139E-1,5.710998917E-1,1.041821584E0
1.625402667E1,-1.205216396E-1,4.427758737E-1,6.378768486E-1,7.857880210E-1
1.626405067E1,1.542837551E-1,3.411134049E-2,6.425610530E-1,6.617036856E-1
1.627407467E1,2.725925159E-1,-2.780073300E-2,7.302710420E-1,7.799842019E-1
1.628409867E1,1.923669630E-1,-2.449939504E-2,8.690880346E-1,8.904601511E-1
1.629412267E1,-2.076521695E-1,4.549323812E-2,1.089640331E0,1.110182467E0
1.630414667E1,-7.621369055E-1,2.138341382E-1,1.293867202E0,1.516795977E0
1.631416967E1,-1.122866549E0,3.340827128E-1,1.268728268E0,1.726879256E0
1.632419367E1,-1.255779901E0,4.172251493E-1,9.754553193E-1,1.643950445E0
1.633421767E1,-1.286733014E0,4.936519124E-1,9.037544221E-1,1.648073456E0
1.634424167E1,-1.302025529E0,7.898974389E-1,9.245184696E-1,1.781556298E0
1.635426567E1,-1.241467963E0,9.679366770E-1,8.501605976E-1,1.789110717E0
1.636428967E1,-1.169479676E0,1.087522616E0,6.678976232E-1,1.731033040E0
1.637431367E1,-1.006265468E0,1.306805044E0,3.915728295E-1,1.695181080E0
1.638433767E1,-8.087283969E-1,1.496804323E0,1.342023700E-1,1.706597515E0
1.639436067E1,-6.583742630E-1,1.582537514E0,-1.474533302E-1,1.720355818E0
1.640438467E1,-5.470321673E-1,1.587541854E0,-4.812018746E-1,1.746736550E0
1.641440867E1,-4.779090151E-1,1.566034333E0,-4.887219787E-1,1.708715813E0
1.642443267E1,-4.167518172E-1,1.286968803E0,1.637243772E-1,1.362635846E0
1.643445667E1,-3.636982754E-1,1.035809256E0,9.922075921E-1,1.479747666E0
1.644448067E1,-1.976715571E-1,8.714883167E-1,1.536019698E0,1.777054429E0
1.645450467E1,2.976241538E-1,4.958497345E-1,1.595301694E0,1.696889681E0
1.646452867E1,9.111204520E-1,1.525129259E-1,1.311697116E0,1.604353451E0
1.647455167E1,1.461071842E0,-5.048836827E-2,1.026968704E0,1.786601445E0
