"Time (s)","Linear Acceleration x (m/s^2)","Linear Acceleration y (m/s^2)","Linear Acceleration z (m/s^2)","Absolute acceleration (m/s^2)"
5.483291636E-3,1.749919617E-1,-1.782669872E0,2.158178061E0,2.804686543E0
1.544929168E-2,-8.088701919E-1,-1.852663090E0,7.534382951E-1,2.157382854E0
2.541529166E-2,3.047808534E-1,-2.578589943E0,-6.390831292E-2,2.597325882E0
3.538129164E-2,2.061177139E0,-2.784755166E0,1.269603011E0,3.689878634E0
4.534729169E-2,1.796282190E0,-2.756628304E0,2.016376650E0,3.858938210E0
5.531329167E-2,1.584684904E0,-2.482551180E0,3.089373466E0,4.268315244E0
6.527929165E-2,2.069581634E0,-2.306796888E0,3.486550267E0,4.664816480E0
7.524529163E-2,2.455805723E0,-1.617603997E0,2.307489637E0,3.737931629E0
8.521129168E-2,1.857046163E0,-9.094855705E-1,5.137854838E-1,2.130671250E0
9.517729166E-2,1.358265804E0,-2.945330232E-1,-7.820101297E-1,1.594733689E0
1.051422916E-1,9.533376414E-1,1.700969651E-1,-1.595689949E0,1.866550843E0
1.151082917E-1,7.959001905E-1,4.197457378E-1,-1.984659013E0,2.179108762E0
1.250742917E-1,2.520687890E-1,3.104805730E-1,-1.241834584E0,1.304641711E0
1.350402916E-1,-9.999931598E-1,3.678398582E-1,-3.238948166E-1,1.113642821E0
1.450062917E-1,-1.572040885E0,1.984425125E-1,-1.127491112E0,1.944718022E0
1.549722917E-1,-2.355308751E0,-1.946321744E-1,-9.888594764E-1,2.561875106E0
1.649382917E-1,-2.904047720E0,-4.715390584E-1,-1.402398541E0,3.259227503E0
1.749042916E-1,-3.201070488E0,-9.735162364E-1,-1.984208778E0,3.889944807E0
1.848702917E-1,-3.570220415E0,-1.137406528E0,-1.941845700E0,4.220300007E0
1.948362917E-1,-4.204445677E0,-1.199559361E0,-1.859423933E0,4.751185481E0
2.048013333E-1,-4.525382972E0,-1.378465303E0,-2.233097851E0,5.231250677E0
2.147673334E-1,-5.087796825E0,-1.709038663E0,-2.381193790E0,5.871675532E0
2.247333333E-1,-5.874233297E0,-2.089693571E0,-2.128976482E0,6.588321251E0
2.346993333E-1,-6.291853133E0,-2.675827385E0,-1.492920456E0,6.998305476E0
2.446653333E-1,-6.662660161E0,-3.605755699E0,-2.999516380E-1,7.581720489E0
2.546313333E-1,-6.869863265E0,-4.639352222E0,1.270522778E0,8.386467578E0
2.645973333E-1,-6.601335148E0,-5.324073454E0,3.083482981E0,9.023926594E0
2.745633333E-1,-6.027537936E0,-5.660621645E0,4.468905301E0,9.399200262E0
2.845293334E-1,-5.388253078E0,-5.717232049E0,5.459263419E0,9.566795211E0
2.944953333E-1,-4.011822022E0,-5.584123693E0,5.829613194E0,9.014518475E0
3.044603333E-1,-2.674913465E0,-6.140748217E0,4.288415787E0,7.953267296E0
3.144263334E-1,-2.314389351E0,-7.607759660E0,2.105049675E0,8.225912670E0
3.243923333E-1,-4.429213232E-1,-4.798411691E0,3.140469360E0,5.751824220E0
3.343583333E-1,2.414774934E0,-2.508923292E0,3.226578382E0,4.747277338E0
3.443243333E-1,4.010525694E0,-2.229238688E0,2.398813789E0,5.177656716E0
3.542903333E-1,4.885841013E0,-1.281346559E0,2.416812104E0,5.599488562E0
3.642563333E-1,5.604457385E0,1.639338537E-1,2.559061997E0,6.163247131E0
3.742223333E-1,6.513114697E0,2.138557437E0,2.562975538E0,7.318670274E0
3.841883334E-1,7.391965828E0,3.843336841E0,1.916081114E0,8.548904240E0
3.941533333E-1,8.206644936E0,4.877768347E0,2.484540403E-1,9.550045789E0
4.041193333E-1,8.723382679E0,5.450900731E0,-1.641329221E0,1.041651025E1
4.140853334E-1,8.446316459E0,5.494720935E0,-3.543365323E0,1.068118241E1
4.240513333E-1,6.207636856E0,4.689128399E0,-7.627616220E0,1.089510026E1
4.340173333E-1,3.670032386E0,3.842477301E0,-1.017061416E1,1.147497982E1
4.439833333E-1,2.232118442E0,2.198981540E0,-1.076601274E1,1.121271167E1
4.539493333E-1,1.901039736E0,5.506922320E-2,-1.041595865E1,1.058816223E1
4.639153333E-1,3.081367459E0,-7.546372667E-1,-6.583071955E0,7.307608308E0
4.738813333E-1,5.084114833E0,-6.824386252E-1,5.872066319E-1,5.163211960E0
4.838473334E-1,6.922593455E0,-2.303039613E0,3.882261171E0,8.264275129E0
4.938123333E-1,8.544336843E0,-4.028021733E0,4.235285647E0,1.035221211E1
5.037783333E-1,9.783584034E0,-4.819690293E0,4.124693749E0,1.166023283E1
5.137443334E-1,9.009354209E0,-4.681350433E0,3.846396105E0,1.085717588E1
5.237103333E-1,5.793558093E0,-3.457469140E0,2.619770129E0,7.237582729E0
5.336763333E-1,3.164151753E0,-2.427673746E0,2.325320721E-2,3.988232296E0
5.436423333E-1,2.762393074E0,-2.101752138E0,-1.767322685E0,3.895074713E0
5.536083333E-1,2.535121742E0,-1.576606830E0,-2.035764263E0,3.613428770E0
5.635743333E-1,2.146930357E0,-9.827149299E-1,-2.669262716E0,3.563706222E0
5.735403333E-1,2.412663504E0,-7.637922522E-1,-2.141945606E0,3.315456947E0
5.835053333E-1,2.068922653E0,-1.084563779E0,-8.259975636E-1,2.477698834E0
5.934713333E-1,1.528141159E0,-1.482864414E0,-8.319944680E-2,2.130967954E0
6.034373333E-1,3.141580331E-1,-1.755984495E0,3.405237132E-1,1.816076325E0
6.134033334E-1,-1.056108888E0,-1.473017119E0,-9.349750453E-1,2.039442020E0
6.233693333E-1,-1.718213675E0,-1.032904213E0,-1.476761091E0,2.489974431E0
6.333353333E-1,-3.041411388E0,-4.880934030E-1,-2.770151160E0,4.142723240E0
6.433013333E-1,-3.985665379E0,-4.642585440E-1,-4.198268094E0,5.807453788E0
6.532673333E-1,-4.575650024E0,-6.881551556E-1,-4.978728712E0,6.796901518E0
6.632333333E-1,-5.132833834E0,-1.265323142E0,-5.944722651E0,7.955297180E0
6.731993333E-1,-4.844831274E0,-1.648918030E0,-6.887187980E0,8.580482446E0
6.831643333E-1,-3.072519744E0,-1.404348734E0,-6.586179750E0,7.402049489E0
6.931303333E-1,-1.700773770E0,-5.809813938E-1,-5.946614226E0,6.212277484E0
7.030963333E-1,-1.263410517E0,-2.435830173E-1,-5.708086419E0,5.851306639E0
7.130623334E-1,-9.377211902E-1,2.198537005E-1,-5.121843408E0,5.211615544E0
7.230283333E-1,-2.255504966E-1,9.374862783E-1,-4.634928803E0,4.734165033E0
7.329943333E-1,6.591577899E-1,1.714285954E0,-4.036814775E0,4.434990288E0
7.429603333E-1,-3.415534079E-2,1.385348060E0,-4.982100216E0,5.171235674E0
7.529263333E-1,-1.086222634E0,5.207973918E-1,-7.514026455E0,7.609973922E0
7.628923333E-1,-1.203204369E0,-7.973804131E-2,-9.081758527E0,9.161462593E0
7.728573333E-1,-1.392441317E0,-1.403566742E-1,-8.374879271E0,8.491006749E0
7.828233333E-1,-1.025399897E0,-4.411119754E-1,-5.901609961E0,6.006248817E0
7.927893333E-1,-2.131526452E-1,-1.844643414E-1,-1.462575746E0,1.489492852E0
8.027553333E-1,3.383935726E-1,1.370320277E0,7.335540782E0,7.470103509E0
8.127213334E-1,3.758401356E0,1.878106518E0,6.285456280E0,7.560411728E0
8.226873333E-1,3.555526362E0,1.750967000E0,4.635650935E0,6.098927179E0
8.326533333E-1,2.965626503E0,2.044851421E0,1.530031564E0,3.913739193E0
8.426193333E-1,2.106727241E0,2.177279014E0,-1.638033730E0,3.444125154E0
8.525853333E-1,3.482642573E-1,1.625449207E0,-5.461751994E0,5.709124973E0
8.625503333E-1,-9.554046321E-1,1.025521080E0,-6.986661397E0,7.125863385E0
8.725163333E-1,-1.027158154E0,6.813598870E-1,-6.282229786E0,6.402008767E0
8.824823333E-1,4.780180657E-1,-3.565041536E-1,-4.154077177E0,4.196659824E0
8.924483333E-1,6.115339726E-1,-2.352062377E0,-3.465110282E0,4.232394179E0
9.024143333E-1,3.291893535E0,-3.420080582E0,1.816374977E0,5.082591100E0
9.123803333E-1,4.818751815E0,-3.446618462E0,9.238636399E0,1.097506038E1
9.223463333E-1,4.066099970E0,-3.986777812E0,1.273609172E1,1.395118628E1
9.323123333E-1,2.473829473E0,-4.031484746E0,1.151047556E1,1.244442643E1
9.422783333E-1,2.497872055E-2,-3.420755058E0,7.823264056E0,8.538480520E0
9.522433333E-1,-1.740080507E0,-1.867949612E0,4.394706473E0,5.082377486E0
9.622093333E-1,-2.011586611E0,-5.717634045E-1,1.713751665E0,2.703763831E0
9.721753333E-1,-1.744905045E0,4.497321600E-1,9.584855300E-1,2.040991706E0
9.821413333E-1,-7.601415431E-1,1.227866463E0,2.319424388E0,2.732251948E0
9.921073333E-1,-3.174301350E-1,1.481554053E0,3.776487379E0,4.069105704E0
1.002073333E0,2.691151768E-1,1.278856522E0,4.239352385E0,4.436215237E0
1.012039333E0,4.625954497E-1,1.097406895E0,5.236702019E0,5.370413809E0
1.022005333E0,-6.742365897E-2,5.678175572E-1,4.685404308E0,4.720166973E0
1.031971333E0,1.931522441E-1,4.134212431E-1,3.073237490E0,3.106929929E0
1.041936333E0,-5.103835738E-1,-2.924289027E-1,2.106245431E0,2.186841528E0
1.051902333E0,-1.762115155E0,-7.988284761E-1,5.494014591E-1,2.011223189E0
1.061868333E0,-2.148761120E0,-6.884891778E-1,-1.080304082E0,2.501649178E0
1.071834333E0,-2.128222775E0,-2.807479200E-1,-2.072508751E0,2.983863954E0
1.081800333E0,-1.489351315E0,5.596112823E-1,-2.283901384E0,2.783439897E0
1.091766333E0,-1.753316849E-1,1.853089060E0,-1.873178338E0,2.640734244E0
1.101732333E0,1.245051137E0,2.875796898E0,-1.022059382E0,3.296204714E0
1.111698333E0,1.757654899E0,3.535765697E0,-6.526743972E-1,4.002121147E0
1.121664333E0,1.320560326E0,3.963200085E0,-9.508367872E-1,4.284264824E0
1.131629333E0,8.259192109E-2,4.074938622E0,-1.716410978E0,4.422444216E0
1.141595333E0,-1.881794211E0,3.943176295E0,-2.264964591E0,4.921367020E0
1.151561333E0,-3.184709394E0,3.513412376E0,-2.218369592E0,5.235227225E0
1.161527333E0,-3.710716728E0,3.098935418E0,-1.496470301E0,5.060853952E0
1.171493333E0,-3.887054134E0,2.538025469E0,-8.709892568E-1,4.723281212E0
1.181459333E0,-3.402199504E0,1.830518222E0,-4.368326175E-1,3.888004779E0
1.191425333E0,-2.566941705E0,1.559588655E0,3.101132217E-1,3.019549088E0
1.201391042E0,-1.611204951E0,1.613201190E0,6.266037092E-1,2.364536251E0
1.211357042E0,-1.668685420E0,1.565644616E0,4.758996195E-1,2.337142388E0
1.221322042E0,-1.577862958E0,1.468632876E0,1.804912680E-1,2.163125317E0
1.231288042E0,-1.108396445E0,1.493656620E0,-6.073176916E-1,1.956626576E0
1.241254042E0,-9.405427641E-1,1.545855299E0,-1.691942720E0,2.477288733E0
1.251220042E0,-5.733884919E-1,1.589882494E0,-2.317430342E0,2.868271970E0
1.261186042E0,-2.764680505E-1,1.556103714E0,-2.735097102E0,3.158900047E0
1.271152042E0,-2.612886786E-2,1.267694480E0,-3.112330804E0,3.360704546E0
1.281118042E0,1.137892140E0,3.538793385E-1,-1.563102831E0,1.965532897E0
1.291084042E0,1.212992608E0,-4.060060966E-1,-1.421101884E0,1.911994399E0
1.301050042E0,-1.243474728E-1,-4.810054082E-1,-2.008316848E0,2.068855978E0
1.311015042E0,-1.694062920E0,-3.314939166E0,6.249913394E-2,3.723248178E0
1.320981042E0,1.402113197E0,-2.317297756E0,1.056559855E0,2.907251113E0
1.330947042E0,2.475759054E0,-8.592933637E-1,1.222944130E0,2.891947497E0
1.340913042E0,1.953956453E0,-1.393346466E0,-4.237937652E-1,2.436998431E0
1.350879042E0,2.150469677E0,-1.776034452E0,-8.401735532E-1,2.912852520E0
1.360845042E0,3.865731677E0,-1.529930992E0,1.053506000E-1,4.158806198E0
1.370811042E0,4.041559791E0,-1.157328284E0,8.635056978E-1,4.291766116E0
1.380777042E0,3.327659783E0,-1.758161852E0,7.954756826E-1,3.846717340E0
1.390742042E0,3.992759514E0,-1.659810516E0,2.273672265E0,4.885354138E0
1.400708042E0,4.051789787E0,-1.318672845E0,2.578595790E0,4.980467327E0
1.410674042E0,2.683061853E0,-1.330525151E0,2.593460582E0,3.961711230E0
1.420640042E0,8.064816043E-1,-1.987490820E0,2.737428972E0,3.477650027E0
1.430606042E0,-9.196582639E-1,-2.594600204E0,2.475394773E0,3.702067101E0
1.440572042E0,-2.283651708E0,-2.370492216E0,1.534983571E0,3.631869082E0
1.450538042E0,-2.971043363E0,-1.946742159E0,7.792537522E-1,3.636501080E0
1.460504042E0,-2.116472211E0,-2.007295924E0,9.067353326E-1,3.054645726E0
1.470470042E0,-2.274247923E0,-1.368088249E0,1.079726962E0,2.865253808E0
1.480435042E0,-1.606181315E0,-7.847746933E-1,9.219492030E-1,2.011387598E0
1.490401042E0,-7.770119298E-1,-6.720947546E-1,1.857400796E0,2.122591957E0
1.500367042E0,-1.094834121E0,-9.058787155E-1,2.050241969E0,2.494548081E0
1.510333042E0,-9.290521082E-1,-1.125583751E0,1.454589618E0,2.060560011E0
1.520299042E0,-6.517028823E-1,-1.130614695E0,5.209880841E-1,1.405145836E0
1.530265042E0,-7.896577030E-2,-9.494778943E-1,-1.350566483E-1,9.622807090E-1
1.540231042E0,3.575563601E-1,-8.185528886E-1,-1.222234132E0,1.513846642E0
1.550197042E0,3.105350983E-1,-1.272979778E0,-2.199528401E0,2.560241151E0
1.560162042E0,6.264975822E-1,-1.716714449E0,-1.514923528E0,2.373731454E0
1.570128042E0,1.212742347E0,-1.204316509E0,-1.277505523E0,2.133809414E0
1.580094042E0,1.380033233E0,-8.404255682E-1,-6.051809728E-1,1.725413246E0
1.590060042E0,1.560273948E0,-6.114866102E-1,1.515134174E-2,1.675887893E0
1.600026042E0,9.848412699E-1,-4.977828240E-1,9.246131945E-1,1.439656079E0
1.609992042E0,6.046409824E-1,-5.913540620E-1,1.571635673E0,1.784749011E0
1.619958042E0,1.162107798E-1,-5.112068617E-1,8.975417554E-1,1.039431866E0
1.629924042E0,-7.273918730E-1,1.317851311E-1,-2.162453545E0,2.285316519E0
1.639890042E0,-1.226100311E0,4.731257004E-1,-5.815889779E0,5.962528308E0
1.649855042E0,-1.025713600E0,3.734669262E-1,-6.987606307E0,7.072355183E0
1.659821042E0,-4.297738588E-1,7.312621450E-1,-4.837009746E0,4.910815938E0
1.669787042E0,5.007236812E-1,1.056946210E0,-2.455034183E0,2.719384551E0
1.679753042E0,1.154972734E0,2.068009318E0,4.103577407E-1,2.403958825E0
1.689719042E0,1.435227441E0,3.549431224E0,3.029771043E0,4.882402318E0
1.699685042E0,1.135320826E0,3.970562314E0,2.430528649E0,4.791845989E0
1.709651042E0,4.197719041E-1,3.449633287E0,3.767583239E-1,3.495443477E0
1.719617042E0,-9.832742161E-1,2.847626767E0,-1.225770382E0,3.252432846E0
1.729582042E0,-2.249780834E0,2.356136717E0,-2.027470572E0,3.837125350E0
1.739548042E0,-2.597097550E0,2.512211182E0,-2.514414120E0,4.402090307E0
1.749514042E0,-2.710330635E0,2.945605636E0,-2.805943136E0,4.888333213E0
1.759480042E0,-2.733938476E0,3.578552697E0,-2.546752439E0,5.173626096E0
1.769446042E0,-2.552563109E0,4.645590032E0,-1.674794298E0,5.558958635E0
1.779412042E0,-2.430024765E0,5.214957393E0,-3.940940027E-1,5.766811169E0
1.789378042E0,-2.276147391E0,4.799453080E0,1.330533922E0,5.475939858E0
1.799344042E0,-2.047500502E0,3.287385916E0,2.446667987E0,4.580976829E0
1.809309042E0,-2.385821276E0,1.618435618E0,2.987324935E0,4.151576481E0
1.819275042E0,-2.620239660E0,7.495592523E-1,3.320005778E0,4.295338557E0
1.829241042E0,-2.740715399E0,5.331187177E-1,2.706595434E0,3.888623832E0
1.839207042E0,-2.296920210E0,6.082314652E-1,1.885755115E0,3.033456826E0
1.849173042E0,-1.024330441E0,7.807921547E-1,1.215192915E0,1.770757765E0
1.859139042E0,7.063570994E-1,1.118145508E0,7.504714179E-1,1.520656791E0
1.869105042E0,2.560488718E0,8.861297446E-1,2.814989948E-1,2.724072334E0
1.879071042E0,4.213885422E0,4.609447807E-1,1.162543416E-2,4.239037107E0
1.889036042E0,5.387707533E0,1.485198623E-1,-3.624361539E-1,5.401926561E0
1.899002042E0,6.397160318E0,-1.024632157E0,-4.065522265E-1,6.491441743E0
1.908968042E0,6.558918861E0,-2.626448234E0,1.728653294E-1,7.067356604E0
1.918934042E0,6.073536812E0,-3.693894289E0,-6.864835829E-1,7.141705968E0
1.928900042E0,5.816713652E0,-4.711538438E0,-1.613790590E0,7.657484720E0
1.938866042E0,4.956581798E0,-5.352764572E0,-1.920390512E0,7.543718672E0
1.948832042E0,3.315777656E0,-5.902860096E0,-1.380590765E0,6.909715597E0
1.958798042E0,1.323023466E0,-6.780420161E0,-5.935707414E-1,6.933744650E0
1.968764042E0,5.586160862E-1,-7.484440713E0,2.074697729E-1,7.508125493E0
1.978729042E0,4.039455378E-1,-7.927363790E0,1.387918496E0,8.058075851E0
1.988695042E0,5.032873929E-1,-7.512044833E0,2.033661604E0,7.798711130E0
1.998661042E0,5.710922903E-1,-6.958005947E0,1.914936083E0,7.239266080E0
2.008627042E0,1.086758823E0,-6.237636580E0,1.690414842E0,6.553369911E0
2.018593042E0,1.899521214E0,-5.428261482E0,1.756065041E0,6.013149589E0
2.028559042E0,1.730345770E0,-4.640450914E0,1.562981794E0,5.193341242E0
2.038525042E0,7.666743448E-1,-4.150001083E0,9.933577394E-1,4.335557420E0
2.048490042E0,8.513312101E-2,-3.374448034E0,5.395833993E-1,3.418376431E0
2.058456042E0,-5.281444913E-1,-2.568245634E0,-7.464964076E-1,2.726183986E0
2.068422042E0,-1.733015901E0,-2.085602421E0,-2.048686755E0,3.398558370E0
2.078388042E0,-2.940185852E0,-1.581277147E0,-2.918207338E0,4.434079874E0
2.088354042E0,-3.684675568E0,-7.007654071E-1,-2.669752128E0,4.603855192E0
2.098320042E0,-4.036811267E0,1.033482503E0,-1.280293329E0,4.359252493E0
2.108286042E0,-3.303996102E0,2.600904087E0,-1.895749176E-1,4.209160363E0
2.118252042E0,-2.439300788E0,3.223357151E0,8.433453754E-2,4.043183395E0
2.128218042E0,-1.852513109E0,3.685301805E0,7.691472785E-1,4.195812406E0
2.138183042E0,-1.392088146E0,4.671092663E0,1.132969515E0,5.004061949E0
2.148149042E0,-1.247529187E0,5.563942612E0,8.221221752E-1,5.761047764E0
2.158115042E0,-1.655830901E0,6.487878699E0,1.213505409E0,6.804920379E0
2.168081042E0,-2.268840126E0,6.715666925E0,1.814295123E0,7.317068030E0
2.178047042E0,-3.082360024E0,6.385357128E0,2.347656061E0,7.468950258E0
2.188013042E0,-3.398405830E0,5.872762138E0,3.342436867E0,7.563754459E0
2.197979042E0,-3.315156390E0,5.286108068E0,3.953810041E0,7.386867687E0
2.207945333E0,-2.822514730E0,4.881175520E0,4.234852953E0,7.051697908E0
2.217910333E0,-2.239571011E0,4.426158062E0,4.376032805E0,6.614848193E0
2.227876333E0,-2.005918027E0,4.145567139E0,4.086323150E0,6.156904330E0
2.237842333E0,-1.691996807E0,3.968498247E0,3.944863801E0,5.845834580E0
2.247808333E0,-1.457591287E0,3.405285664E0,3.281450408E0,4.948581574E0
2.257774333E0,-1.527204143E0,3.027923323E0,2.389841383E0,4.148736432E0
2.267740333E0,-1.433640214E0,2.956180326E0,1.952201704E0,3.821703530E0
2.277706333E0,-1.012578414E0,2.511331176E0,1.560542482E0,3.125282732E0
2.287672333E0,-1.300102088E-1,1.569552895E0,9.140941997E-1,1.820979723E0
2.297637333E0,3.755754322E-2,1.113199348E0,3.170696542E-2,1.114283935E0
2.307603333E0,5.859031413E-1,3.486735624E-1,-9.461392803E-1,1.166205506E0
2.317569333E0,1.169864276E0,-1.174936590E0,-6.763848567E-1,1.790685592E0
2.327535333E0,8.249710849E-1,-1.523366323E0,-2.062408563E0,2.693464558E0
2.337501333E0,2.603106149E0,-1.614244334E0,-3.837434077E0,4.909974204E0
2.347467333E0,3.765277682E0,-2.377438708E0,-3.702005254E0,5.790887128E0
2.357433333E0,4.091513139E0,-3.072460395E0,-3.081551646E0,5.972976912E0
2.367399333E0,4.048766192E0,-3.477872999E0,-3.169123056E0,6.207370556E0
2.377364333E0,3.573938075E0,-3.267871419E0,-3.673328462E0,6.078269405E0
2.387330333E0,2.730641231E0,-3.016543472E0,-3.904755410E0,5.639419373E0
2.397296333E0,1.449790955E0,-3.056779917E0,-4.343222032E0,5.505395071E0
2.407262333E0,3.440684415E-1,-3.386354134E0,-4.793630422E0,5.879172564E0
2.417228333E0,-1.795317400E-1,-3.663426202E0,-4.844889454E0,6.076666603E0
2.427194333E0,-4.547862008E-2,-4.038412235E0,-4.369425452E0,5.950018526E0
2.437160333E0,6.323629242E-1,-4.463094923E0,-3.422430285E0,5.659693297E0
2.447126333E0,1.387580819E0,-4.827720859E0,-2.140948656E0,5.460396540E0
2.457091333E0,1.392300400E0,-4.914350283E0,-5.665428641E-1,5.139096216E0
2.467057333E0,6.955567074E-1,-4.361976099E0,1.135319072E0,4.560656095E0
2.477023333E0,-1.481745842E-1,-3.789481062E0,2.417802915E0,4.497543036E0
2.486989333E0,-1.052877132E0,-3.664737732E0,3.205916368E0,4.981641563E0
2.496955333E0,-1.687999358E0,-3.558029555E0,3.515186129E0,5.278773500E0
2.506921333E0,-2.265817408E0,-3.228316174E0,2.941702327E0,4.920321781E0
2.516887333E0,-2.578476507E0,-2.529670967E0,2.652827070E0,4.481659042E0
2.526853333E0,-2.359747665E0,-1.739287040E0,2.714240084E0,3.995075429E0
2.536818333E0,-2.237862747E0,-1.016030318E0,2.662712958E0,3.623587666E0
2.546784333E0,-1.994481751E0,-4.740378660E-1,3.168689485E0,3.774024696E0
2.556750333E0,-1.886466136E0,2.467986935E-1,3.733142262E0,4.189989884E0
2.566716333E0,-2.306134544E0,1.334936290E0,3.737519487E0,4.590137618E0
2.576682333E0,-1.804426777E0,1.723831680E0,3.121355689E0,3.996299913E0
2.586648333E0,-1.273606015E0,1.866427728E0,1.974604433E0,3.000781134E0
2.596614333E0,-9.683234704E-1,2.184244949E0,8.732348800E-1,2.543838732E0
2.606580333E0,-1.270436239E-1,1.981278738E0,3.987312832E-1,2.024991890E0
2.616545333E0,4.939414957E-1,1.403943375E0,1.612713240E-1,1.497011571E0
2.626511333E0,4.510913453E-1,8.185938191E-1,8.907151312E-2,9.388892251E-1
2.636477333E0,-2.802251789E-1,3.000054324E-1,-3.149801517E-1,5.174378284E-1
2.646443333E0,-1.671407298E0,2.249494028E-1,-5.938154474E-1,1.787965709E0
2.656409333E0,-2.571590241E0,6.583824492E-1,-6.700499833E-1,2.737793052E0
2.666375333E0,-2.938270597E0,1.644130622E0,-5.734585123E-1,3.415472774E0
2.676341333E0,-2.307781413E0,2.713678166E0,-4.942720096E-1,3.596416141E0
2.686306333E0,-1.361673269E0,3.648328691E0,-4.627040617E-1,3.921549614E0
2.696272333E0,-5.500909920E-1,4.483151457E0,-6.496548951E-1,4.563255260E0
2.706238333E0,1.011911832E-1,4.928677715E0,-8.304451020E-1,4.999174206E0
2.716204333E0,6.405200824E-1,4.897923700E0,-9.683608925E-1,5.033651295E0
2.726170333E0,8.683483618E-1,4.650275990E0,-8.301068406E-1,4.802933794E0
2.736136333E0,1.019494209E0,4.325765462E0,-7.026059644E-1,4.499474460E0
2.746102333E0,8.721075368E-1,3.999069244E0,-5.519280410E-1,4.130103018E0
2.756068333E0,5.509392768E-1,3.548127880E0,-9.960752329E-1,3.726246289E0
2.766033333E0,-1.398347005E-2,3.352219259E0,-1.168732986E0,3.550141728E0
2.775999333E0,-6.747854970E-1,3.224300891E0,-1.188630184E0,3.502041322E0
2.785965333E0,-1.703463196E0,2.382414104E0,-1.077530309E0,3.120697901E0
2.795931333E0,-2.336861955E0,2.187137566E0,-2.184026263E0,3.874850351E0
2.805897333E0,-2.229111658E0,2.397583535E0,-2.984569435E0,4.430011321E0
2.815863333E0,-1.384172477E0,2.691522481E0,-2.935915046E0,4.216612843E0
2.825829333E0,-3.059131667E-1,3.129837953E0,-2.414257894E0,3.964607125E0
2.835795333E0,5.201729822E-1,3.273632095E0,-1.538671410E0,3.654416060E0
2.845760333E0,1.084182686E0,2.928015457E0,-9.051467903E-1,3.250848709E0
2.855726333E0,1.647298059E0,2.120469952E0,-2.476893707E-1,2.696541069E0
2.865692333E0,2.016006082E0,1.175939387E0,1.064437370E-1,2.336331363E0
2.875658333E0,1.720472162E0,8.474194229E-2,-4.340984595E-1,1.776414121E0
2.885624333E0,6.329495461E-1,-7.155383974E-1,-7.625106888E-1,1.222310467E0
2.895590333E0,-6.667609245E-2,-5.294864273E-1,-1.173071620E0,1.288758551E0
2.905556333E0,-7.044900835E-2,-4.115936959E-1,-1.528603528E0,1.584613890E0
2.915521333E0,6.213007962E-1,-7.599924392E-1,-2.192094251E0,2.401849369E0
2.925487333E0,1.505538747E0,-1.797991916E0,-2.998150470E0,3.806353648E0
2.935453333E0,1.196312110E0,-4.869185219E0,-4.743685845E0,6.902367910E0
2.945419333E0,7.496588011E-1,-7.406530073E0,-5.092141306E0,9.019344717E0
2.955385333E0,1.470781582E0,-7.559870964E0,-2.820314423E0,8.201769376E0
2.965351333E0,2.280205944E0,-6.890430261E0,6.337949073E-1,7.285538025E0
2.975317333E0,1.069444195E0,-5.868925195E0,2.854138227E0,6.613176154E0
2.985283333E0,-6.565020577E-1,-4.888005652E0,2.614226968E0,5.581915160E0
2.995248333E0,-2.294554426E0,-4.649172036E0,2.585732317E0,5.793599248E0
3.005214333E0,-3.069551405E0,-5.447939701E0,2.390005105E0,6.694349649E0
3.015180333E0,-3.117070850E0,-5.772174826E0,2.777957193E0,7.123986178E0
3.025146333E0,-2.099089608E0,-5.987375751E0,3.318474977E0,7.160106266E0
3.035112333E0,-8.901104560E-1,-4.536495606E0,4.067014475E0,6.157328621E0
3.045078333E0,-2.339867862E-1,-3.394813301E0,4.040106758E0,5.282231515E0
3.055044333E0,4.079436446E-1,-2.376418954E0,3.751260152E0,4.459342753E0
3.065009333E0,7.234583049E-1,-1.068611405E0,3.033550683E0,3.296627368E0
3.074975333E0,6.811860055E-1,-4.699407220E-2,2.086817326E0,2.195684260E0
3.084941333E0,4.718015618E-1,2.715224755E-1,1.630227259E0,1.718709424E0
3.094907333E0,4.354497876E-1,1.324616539E-1,1.741499627E0,1.799995432E0
3.104873333E0,6.374081942E-1,-1.051738679E0,2.045458946E0,2.386701857E0
3.114839333E0,8.288550979E-1,-2.101051349E0,2.016771337E0,3.028000028E0
3.124805333E0,9.902343030E-1,-2.221470078E0,1.448388208E0,2.830781108E0
3.134771333E0,8.316400536E-1,-9.977834970E-1,6.556390817E-1,1.455011921E0
3.144736333E0,2.146886357E-1,1.105523123E0,4.333242881E-1,1.206665871E0
3.154702333E0,-3.054440738E-1,2.546674086E0,-3.472532737E-1,2.588325678E0
3.164668333E0,-5.150033858E-1,2.618596593E0,-1.416602597E0,3.021430046E0
3.174634333E0,-7.993513633E-1,2.366654103E0,-2.001365093E0,3.200855586E0
3.184600333E0,-1.100742220E0,2.284351619E0,-2.347355368E0,3.455426599E0
3.194566333E0,-1.321601715E0,2.572363828E0,-2.711297765E0,3.964192519E0
3.204532667E0,-1.057004389E0,2.714885616E0,-2.899008590E0,4.110001581E0
3.214498667E0,-3.732760877E-1,2.554308211E0,-2.847715645E0,3.843606362E0
3.224463667E0,1.983472759E-1,2.351850708E0,-1.838747009E0,2.991911422E0
3.234429667E0,4.663908043E-1,1.911085837E0,-3.412388277E-1,1.996550375E0
3.244395667E0,9.178206302E-1,2.022428518E0,7.934564929E-1,2.358428508E0
3.254361667E0,1.231192944E0,2.663873922E0,1.487614692E0,3.290145561E0
3.264327667E0,1.562407013E0,3.020352933E0,2.364425583E0,4.141757580E0
3.274293667E0,1.840486117E0,3.335535983E0,3.238440628E0,5.000068714E0
3.284259667E0,1.922062523E0,3.618131331E0,3.946269472E0,5.688430487E0
3.294224667E0,1.888776663E0,3.863433722E0,4.488066627E0,6.215813660E0
3.304190667E0,1.488805478E0,4.139678993E0,4.880483794E0,6.570586426E0
3.314156667E0,1.312994760E0,3.831777481E0,4.760011271E0,6.250134495E0
3.324122667E0,1.385367064E0,2.830112017E0,4.003472782E0,5.094759096E0
3.334088667E0,1.466299837E0,1.433585835E0,3.152642386E0,3.760898506E0
3.344054667E0,1.396780098E0,1.179646522E-1,2.617607828E0,2.969306492E0
3.354020667E0,1.505161310E0,-1.055372724E0,2.309664362E0,2.951926764E0
3.363986667E0,1.909268084E0,-1.960256243E0,2.145864995E0,3.477448164E0
3.373951667E0,2.138597198E0,-2.942456326E0,2.438280595E0,4.379139124E0
3.383917667E0,1.823905460E0,-3.714754230E0,3.050836222E0,5.141364777E0
3.393883667E0,1.305045032E0,-4.178996256E0,3.654333197E0,5.702745247E0
3.403849667E0,1.463039284E0,-4.396998582E0,3.860843990E0,6.031599853E0
3.413815667E0,1.533850381E0,-4.046659732E0,3.111042663E0,5.329797222E0
3.423781667E0,9.271663812E-1,-2.540255013E0,1.530711157E0,3.107347691E0
3.433747667E0,9.338363732E-1,-7.970608628E-1,-4.271648312E-1,1.299933146E0
3.443712667E0,2.134183135E0,-2.711289579E-1,-1.834076107E0,2.827027366E0
3.453678667E0,3.620475187E0,-1.203031876E0,-3.223413284E0,4.994548976E0
3.463644667E0,3.815346220E0,-2.614788886E0,-4.366837474E0,6.361073590E0
3.473610667E0,2.557078329E0,-3.841323060E0,-6.242778622E0,7.763162845E0
3.483576667E0,-2.939194310E-2,-4.461755326E0,-1.032505199E1,1.124788083E1
3.493542667E0,-1.932344706E0,-4.441791177E0,-1.375812187E1,1.458593097E1
3.503508667E0,1.959033773E-1,-4.484631388E0,-9.200080444E0,1.023678548E1
3.513474667E0,7.677218735E-1,-3.303824193E0,-4.716002787E0,5.809073374E0
3.523439667E0,1.065707129E-1,-1.930365277E0,-1.919423528E0,2.724308004E0
3.533405667E0,-6.889291808E-1,-1.254211385E0,-3.061311217E-1,1.463347491E0
3.543371667E0,-4.753745395E-1,-7.907879698E-1,6.664046828E-1,1.138165967E0
3.553337667E0,-5.833367984E-1,-6.013387674E-1,1.518168587E0,1.733991347E0
3.563303667E0,-1.087777555E0,-4.119854593E-1,2.228198176E0,2.513535188E0
3.573269667E0,-1.729287571E0,-2.547438902E-1,2.856741407E0,3.349074711E0
3.583235667E0,-2.357641936E0,-1.495998430E-1,3.280222492E0,4.042365052E0
3.593200667E0,-2.744906683E0,-3.488682747E-2,3.418410909E0,4.384206078E0
3.603166667E0,-3.087064693E0,-4.390264928E-2,3.212870754E0,4.455831499E0
3.613132667E0,-3.567925968E0,-1.822939646E-1,3.004643219E0,4.668105362E0
3.623098667E0,-3.896923357E0,-3.650790954E-1,2.729945705E0,4.771990984E0
3.633064667E0,-4.233773557E0,-5.465883636E-1,2.453028588E0,4.923509584E0
3.643030667E0,-4.409671252E0,-5.680681103E-1,2.067069086E0,4.903129260E0
3.652996667E0,-4.228206131E0,-3.480525881E-1,1.671400867E0,4.559873742E0
3.662961667E0,-3.805812335E0,-3.331509590E-2,1.316401201E0,4.027186307E0
3.672927667E0,-3.003436646E0,2.390014315E-1,1.006620321E0,3.176639394E0
3.682893667E0,-1.955403639E0,8.012948316E-1,3.459481752E-1,2.141344657E0
3.692859667E0,-1.392918158E0,1.530702825E0,-4.567481609E-1,2.119408175E0
3.702825667E0,-1.121627378E0,2.102789726E0,-1.391403290E0,2.759669496E0
3.712791667E0,-5.867971806E-1,2.678103122E0,-2.060736551E0,3.429752527E0
3.722757667E0,-1.235085801E-1,3.125907454E0,-2.571654561E0,4.049686279E0
3.732722667E0,9.175830871E-2,3.357859483E0,-2.883022302E0,4.426675670E0
3.742688667E0,1.217817511E-1,3.555169682E0,-2.705904293E0,4.469449665E0
3.752654667E0,7.472606387E-2,3.717467923E0,-2.121562797E0,4.280908834E0
3.762620667E0,1.338466766E-1,3.747595117E0,-1.392830303E0,4.000295033E0
3.772586667E0,2.164986230E-1,3.676900526E0,-7.227824398E-1,3.753516163E0
3.782552667E0,3.844082361E-1,3.526484996E0,-3.225653060E-1,3.562009896E0
3.792518667E0,6.001013504E-1,3.510301657E0,2.124044940E-2,3.561290568E0
3.802484667E0,7.616738060E-1,3.775557087E0,1.031719275E-1,3.853001784E0
3.812449667E0,5.634376272E-1,3.588484778E0,4.318271086E-2,3.632705563E0
3.822415667E0,7.571472571E-1,3.364719436E0,-2.065495308E-1,3.455035682E0
3.832381667E0,8.766490692E-1,3.091011271E0,-5.078203006E-1,3.252805824E0
3.842347667E0,8.458188207E-1,2.704838930E0,-7.647843786E-1,2.935380429E0
3.852313667E0,9.421240705E-1,2.142658381E0,-8.617274134E-1,2.494224697E0
3.862279667E0,1.155432032E0,1.534168469E0,-9.560419786E-1,2.145393283E0
3.872245667E0,1.379161121E0,8.995075893E-1,-1.080742038E0,1.969569155E0
3.882210667E0,1.596780455E0,2.773796314E-1,-1.147962799E0,1.986067941E0
3.892176667E0,1.613267556E0,-4.523113668E-1,-1.085288980E0,1.996263998E0
3.902142667E0,1.630905536E0,-1.052411109E0,-8.358374043E-1,2.113302197E0
3.912108667E0,1.842884645E0,-1.432315235E0,-1.066741612E0,2.566259615E0
3.922074667E0,2.377203796E0,-1.505237031E0,-1.430760022E0,3.156566275E0
3.932040667E0,2.532499266E0,-1.432907558E0,-1.926939539E0,3.489967420E0
3.942006667E0,2.443714120E0,-1.337887380E0,-2.494693508E0,3.739676061E0
3.951971667E0,2.457615144E0,-1.352627041E0,-3.025544676E0,4.125941431E0
3.961937667E0,2.517519869E0,-1.402966890E0,-3.340428933E0,4.411880307E0
3.971903667E0,2.575628328E0,-1.616918265E0,-3.502988545E0,4.638880760E0
3.981869667E0,2.459540048E0,-2.305004570E0,-3.378640487E0,4.772587857E0
3.991835667E0,2.123736499E0,-3.408672956E0,-2.817676159E0,4.905976659E0
4.001801667E0,1.584534338E0,-4.597818280E0,-1.804642539E0,5.187235940E0
4.011767667E0,1.003236391E0,-5.262052038E0,-3.767407823E-1,5.370065970E0
4.021732667E0,2.074946601E-1,-5.200999505E0,1.033278727E0,5.306704704E0
4.031698667E0,-5.848776128E-1,-4.537328249E0,1.829104950E0,4.926972131E0
4.041664667E0,-1.308111458E0,-3.489508958E0,2.152164785E0,4.303445319E0
4.051630667E0,-1.852096495E0,-2.524344739E0,2.337808181E0,3.907419209E0
4.061596667E0,-2.164863475E0,-2.108200155E0,2.528095143E0,3.939848577E0
4.071562667E0,-2.393252064E0,-2.240235547E0,2.772690021E0,4.293497490E0
4.081528667E0,-2.549431633E0,-2.472260665E0,2.754325086E0,4.494216408E0
4.091493667E0,-3.058272711E0,-2.755830744E0,2.451903584E0,4.791603724E0
4.101459667E0,-3.318270617E0,-2.950831878E0,2.283361101E0,4.993202036E0
4.111425667E0,-3.354267538E0,-3.112110949E0,2.282141372E0,5.113170691E0
4.121391667E0,-3.227142053E0,-3.149350111E0,2.437558025E0,5.125869788E0
4.131357667E0,-2.682818316E0,-2.720874335E0,2.520506626E0,4.577512962E0
4.141323667E0,-1.835831003E0,-1.885344055E0,2.233700699E0,3.451697624E0
4.151289667E0,-1.163573988E0,-1.129145874E0,1.847724824E0,2.458243653E0
4.161254667E0,-7.398362828E-1,-5.419959605E-1,1.599295342E0,1.843600536E0
4.171220667E0,-4.147454182E-1,2.137823904E-1,1.376966661E0,1.453875462E0
4.181186667E0,-1.493105520E-1,1.069731731E0,1.030133218E0,1.492579668E0
4.191152667E0,2.379232049E-2,1.868458466E0,7.236420536E-1,2.003836554E0
4.201118667E0,8.609878868E-2,2.541773534E0,4.793804669E-1,2.588016873E0
4.211085417E0,1.466889529E-1,3.080779814E0,2.977331861E-1,3.098607261E0
4.221051417E0,1.744045358E-1,3.537493549E0,1.987632140E-1,3.547363016E0
4.231016417E0,1.766047700E-1,3.939943954E0,1.325481745E-1,3.946126787E0
4.240982417E0,1.221929931E-1,4.279789975E0,7.424794436E-2,4.282177730E0
4.250948417E0,4.523866497E-2,4.499624233E0,1.826670170E-3,4.499852010E0
4.260914417E0,5.724687248E-2,4.563186976E0,-1.148673820E-1,4.564991467E0
4.270880417E0,8.097648159E-2,4.430050553E0,-1.803754932E-1,4.434460555E0
4.280846417E0,7.904806986E-2,4.146171741E0,-1.952665973E-1,4.151519933E0
4.290812417E0,2.519419044E-2,3.827752258E0,-1.703954655E-1,3.831625857E0
4.300777417E0,-1.021117542E-1,3.493247668E0,-1.426375451E-1,3.497649432E0
4.310743417E0,-1.503107183E-1,3.151309513E0,-1.151521597E-1,3.156993028E0
4.320709417E0,-1.673931395E-1,2.733904270E0,-9.052078206E-2,2.740519482E0
4.330675417E0,-1.459382435E-1,2.279997198E0,-4.508844635E-2,2.285107910E0
4.340641417E0,-1.351477186E-1,1.801823012E0,-1.980389815E-2,1.806992879E0
4.350607417E0,-8.347887062E-2,1.394051641E0,-2.209662795E-2,1.396723652E0
4.360572417E0,1.369455182E-1,1.104219194E0,-1.044412118E-1,1.117569716E0
4.370538417E0,4.851160008E-1,8.254777461E-1,-1.691512145E-1,9.722978849E-1
4.380504417E0,8.199913037E-1,4.125292504E-1,-1.866360704E-1,9.366958649E-1
4.390470417E0,1.230953793E0,-2.274601972E-1,-1.777413225E-1,1.264348591E0
4.400436417E0,1.561510050E0,-9.309615165E-1,-8.097746830E-2,1.819769307E0
4.410402417E0,1.810194616E0,-1.621907694E0,9.359173972E-2,2.432313412E0
4.420368417E0,2.149944597E0,-2.221930254E0,2.226613873E-1,3.099808690E0
4.430333417E0,2.622239993E0,-2.678331748E0,2.159669101E-1,3.754496669E0
4.440299417E0,3.123767666E0,-3.051118058E0,1.332281874E-1,4.368637726E0
4.450265417E0,3.419981179E0,-3.261051226E0,2.548764758E-3,4.725540483E0
4.460231417E0,3.731260920E0,-3.219817831E0,-2.236460584E-1,4.933513198E0
4.470197417E0,3.943050287E0,-3.130361863E0,-4.383141923E-1,5.053605673E0
4.480163417E0,4.312812710E0,-3.038994441E0,-5.769003296E-1,5.307415065E0
4.490129417E0,4.885211268E0,-3.111674747E0,-6.795137018E-1,5.831770549E0
4.500094417E0,5.134806100E0,-3.207065638E0,-6.941796881E-1,6.093717185E0
4.510060417E0,5.019143497E0,-3.039842872E0,-6.221174330E-1,5.900803016E0
4.520026417E0,4.464401776E0,-2.723925996E0,-5.405628079E-1,5.257648162E0
4.529992417E0,3.532621064E0,-2.427171031E0,-2.955539471E-1,4.296268489E0
4.539958417E0,2.431147869E0,-2.171862885E0,1.575743123E-1,3.263785841E0
4.549924417E0,1.115774023E0,-1.852168123E0,5.413528033E-1,2.229022495E0
4.559890417E0,-1.086463831E-1,-1.826391258E0,9.636205548E-1,2.067866929E0
4.569855417E0,-1.190928140E0,-2.128288849E0,1.452144898E0,2.838423517E0
4.579821417E0,-2.175559056E0,-2.264640071E0,1.894717142E0,3.667642963E0
4.589787417E0,-3.075092812E0,-2.269828305E0,2.212543133E0,4.416295218E0
4.599753417E0,-4.151768404E0,-2.186100855E0,2.373590071E0,5.258340770E0
4.609719417E0,-4.711718240E0,-2.050095204E0,2.331889483E0,5.642773049E0
4.619685417E0,-5.192494145E0,-1.854406437E0,2.183741503E0,5.930391693E0
4.629651417E0,-5.495652981E0,-1.558937860E0,1.882184805E0,6.014574679E0
4.639616417E0,-5.541389317E0,-1.277441788E0,1.371161546E0,5.849695468E0
4.649582417E0,-5.594097288E0,-8.727255875E-1,8.588250017E-1,5.726530783E0
4.659548417E0,-5.642547902E0,-3.414990288E-1,4.373411791E-1,5.669765050E0
4.669514417E0,-5.493908172E0,3.979521418E-1,-6.606125772E-2,5.508698303E0
4.679480417E0,-5.142900401E0,1.067070664E0,-7.395511580E-1,5.304243608E0
4.689446417E0,-4.215339625E0,1.704822382E0,-1.580848546E0,4.813999339E0
4.699411417E0,-3.297390502E0,2.160018765E0,-2.342222098E0,4.585244764E0
4.709377417E0,-2.507661463E0,2.357574547E0,-2.833033871E0,4.457869970E0
4.719343417E0,-1.829019143E0,2.476594037E0,-2.863356362E0,4.204478410E0
4.729309417E0,-1.247425984E0,2.703362508E0,-2.739432228E0,4.045828638E0
4.739275417E0,-7.037911950E-1,3.064429829E0,-2.313874211E0,3.903852724E0
4.749241417E0,-2.507878102E-1,3.357047305E0,-1.715114066E0,3.778131468E0
4.759207417E0,-7.047561318E-2,3.595644693E0,-1.231766848E0,3.801430933E0
4.769172417E0,-2.447264403E-2,3.785797901E0,-8.344614083E-1,3.876749991E0
4.779138417E0,1.843899722E-1,3.878255244E0,-4.891488254E-1,3.913327225E0
4.789104417E0,1.765316798E-1,3.957635874E0,-1.516720963E-1,3.964473429E0
4.799070417E0,1.907636565E-1,3.928246014E0,2.908638954E-2,3.932982779E0
4.809036417E0,2.514222331E-1,3.633019511E0,1.556657811E-1,3.645034395E0
4.819002417E0,5.275214705E-1,3.281084372E0,4.892708860E-2,3.323580512E0
4.828968417E0,7.347608265E-1,2.878414696E0,2.821866274E-3,2.970715840E0
4.838933417E0,7.536447018E-1,2.537787488E0,-1.436988330E-1,2.651225193E0
4.848899417E0,9.471737990E-1,2.350683019E0,-4.476477007E-1,2.573565100E0
4.858865417E0,1.196878413E0,2.248502340E0,-8.051311167E-1,2.671425991E0
4.868831417E0,1.314127219E0,2.029635211E0,-9.522693551E-1,2.598685507E0
4.878797417E0,1.496672907E0,1.769967381E0,-9.279753435E-1,2.496788448E0
4.888763417E0,1.759306737E0,1.221830674E0,-9.197167361E-1,2.331074702E0
4.898728417E0,2.036176784E0,4.055734026E-1,-1.026382813E0,2.316024041E0
4.908694417E0,2.319259789E0,-4.592438257E-1,-1.180607804E0,2.642670174E0
4.918660417E0,2.728798774E0,-1.132730802E0,-1.397702057E0,3.268484795E0
4.928626417E0,3.218510978E0,-1.490397967E0,-1.677013024E0,3.923324063E0
4.938592417E0,3.687032873E0,-1.733022918E0,-1.867624068E0,4.481696052E0
4.948558417E0,3.821086139E0,-1.937183715E0,-1.801453468E0,4.647430971E0
4.958524417E0,3.423075233E0,-1.754623702E0,-1.525830925E0,4.138152776E0
4.968489417E0,3.430764322E0,-1.686311266E0,-1.432716354E0,4.082458288E0
4.978455417E0,3.554692841E0,-1.650094197E0,-1.545691577E0,4.212815509E0
4.988421417E0,3.753935838E0,-1.810680959E0,-1.854022275E0,4.561578499E0
4.998387417E0,4.053872273E0,-2.516608872E0,-2.083923100E0,5.206720283E0
5.008353417E0,3.906835265E0,-3.572403765E0,-2.176539488E0,5.723875836E0
5.018319417E0,2.903139063E0,-4.256712769E0,-1.824677439E0,5.466010224E0
5.028284417E0,1.938301995E0,-3.882097449E0,-7.109242865E-1,4.396943094E0
5.038250417E0,1.498911952E0,-2.819813316E0,8.047803569E-1,3.293289480E0
5.048216417E0,1.205357168E0,-2.340126455E0,1.676102028E0,3.120640277E0
5.058182417E0,7.964260013E-1,-2.734006596E0,2.185314989E0,3.589524766E0
5.068148417E0,1.551700468E-1,-3.518174348E0,2.579674602E0,4.365357894E0
5.078114417E0,-9.252960031E-1,-4.146344819E0,2.833874116E0,5.106778883E0
5.088080417E0,-2.069157127E0,-4.380265605E0,3.069954278E0,5.735220768E0
5.098045417E0,-3.333790297E0,-4.559952296E0,3.162798707E0,6.473841081E0
5.108011417E0,-4.471487432E0,-4.968402529E0,3.007525896E0,7.329695461E0
5.117977417E0,-4.979498790E0,-5.033111326E0,2.745659512E0,7.593830652E0
5.127943417E0,-5.619203478E0,-4.817015777E0,2.343452936E0,7.763430967E0
5.137909417E0,-5.584831206E0,-3.895049032E0,1.643336570E0,7.004448703E0
5.147875417E0,-5.066314155E0,-2.417142472E0,1.484053153E0,5.806249272E0
5.157840417E0,-4.347629371E0,-8.297666788E-1,1.618304640E0,4.712674803E0
5.167806417E0,-3.109623544E0,7.021868652E-1,1.536628393E0,3.538933709E0
5.177772417E0,-2.281613515E0,1.828452401E0,1.521181219E0,3.295905143E0
5.187738417E0,-2.013016547E0,2.545135099E0,1.501198944E0,3.575408586E0
5.197704417E0,-1.883894969E0,2.975919356E0,1.359888114E0,3.775506847E0
5.207669208E0,-1.661348772E0,3.330089301E0,1.071063142E0,3.872563847E0
5.217635208E0,-1.393107023E0,3.612331477E0,6.740149802E-1,3.929883214E0
5.227600208E0,-1.300438741E0,3.884063868E0,3.157029406E-1,4.108133566E0
5.237566208E0,-1.231526381E0,4.199309483E0,1.682243943E-3,4.376169580E0
5.247532208E0,-1.283637644E0,4.497509880E0,-2.177503840E-1,4.682172140E0
5.257498208E0,-1.283351131E0,4.726793824E0,-4.009167532E-1,4.914295903E0
5.267464208E0,-1.061668567E0,4.764962109E0,-5.374970397E-1,4.911304013E0
5.277430208E0,-8.014708328E-1,4.548942574E0,-5.972830655E-1,4.657465093E0
5.287395208E0,-6.444767471E-1,4.141203947E0,-5.677032441E-1,4.229327060E0
5.297361208E0,-3.557282281E-1,3.770047256E0,-3.698485961E-1,3.804811016E0
5.307327208E0,1.374183387E-2,3.327888409E0,-1.881014192E-1,3.333228502E0
5.317293208E0,2.947477622E-1,2.752655706E0,-1.112251514E-1,2.770624607E0
5.327259208E0,4.523892809E-1,2.203155429E0,-1.637050813E-1,2.255071897E0
5.337225208E0,6.332103319E-1,1.613750829E0,-2.909901953E-1,1.757789053E0
5.347191208E0,7.647310227E-1,9.940792859E-1,-3.761946523E-1,1.309400466E0
5.357156208E0,1.070828961E0,4.343633384E-1,-5.000487663E-1,1.259124673E0
5.367122208E0,1.293706988E0,1.069221854E-2,-6.409917334E-1,1.443836035E0
5.377088208E0,1.506595924E0,-2.992166430E-1,-8.471370754E-1,1.754138849E0
5.387054208E0,1.811055619E0,-6.220911205E-1,-1.054154164E0,2.185900460E0
5.397020208E0,1.987658196E0,-1.173316326E0,-1.198470609E0,2.600728380E0
5.406986208E0,2.425097316E0,-1.620611951E0,-1.494521424E0,3.277357835E0
5.416951208E0,2.768896055E0,-1.886176114E0,-1.992921567E0,3.898228068E0
5.426917208E0,3.158151633E0,-2.157934817E0,-2.577176086E0,4.612205654E0
5.436883208E0,3.594112138E0,-2.287253008E0,-2.797707918E0,5.096698733E0
5.446849208E0,3.899705755E0,-2.284369746E0,-2.325485466E0,5.082709195E0
5.456815208E0,4.236713537E0,-2.090918709E0,-1.556100644E0,4.974246863E0
5.466781208E0,4.329542471E0,-1.529468477E0,-9.249872701E-1,4.683995440E0
5.476746208E0,4.394698287E0,-9.098630083E-1,-8.001264849E-1,4.558664949E0
5.486712208E0,4.996221242E0,-7.038550758E-1,-8.435286856E-1,5.115582011E0
5.496678208E0,5.025322250E0,-9.328840810E-1,-4.809855276E-1,5.133759198E0
5.506644208E0,4.440514145E0,-1.468773794E0,-1.782968080E-1,4.680518357E0
5.516610208E0,4.008138568E0,-2.041768768E0,-2.794742502E-2,4.498308076E0
5.526576208E0,3.561560104E0,-2.527141462E0,3.550533132E-1,4.381462906E0
5.536542208E0,2.547882705E0,-2.701443452E0,8.983527642E-1,3.820541937E0
5.546507208E0,1.105898222E0,-2.304065507E0,1.257848938E0,2.848493056E0
5.556473208E0,-3.288648038E-1,-1.483247992E0,1.447841347E0,2.098671301E0
5.566439208E0,-1.313777848E0,-1.187711586E0,1.591292843E0,2.380941822E0
5.576405208E0,-2.387077697E0,-1.802599522E0,1.802564000E0,3.492383418E0
5.586371208E0,-3.492647451E0,-2.457632686E0,2.209337690E0,4.808296753E0
5.596337208E0,-4.054863376E0,-3.231140379E0,2.731289980E0,5.860215875E0
5.606302208E0,-4.670303873E0,-3.608451265E0,2.966435173E0,6.605482302E0
5.616268208E0,-5.529208397E0,-3.722494774E0,2.631126006E0,7.166026577E0
5.626234208E0,-5.723478044E0,-3.880749666E0,2.031385868E0,7.207284332E0
5.636200208E0,-5.592344878E0,-3.918877020E0,1.410526755E0,6.972912165E0
5.646166208E0,-5.068358341E0,-3.531177387E0,9.936080003E-1,6.256574692E0
5.656132208E0,-4.518282991E0,-2.751909016E0,7.646631950E-1,5.345333874E0
5.666097208E0,-3.557520555E0,-1.622815182E0,3.620435134E-2,3.910344278E0
5.676063208E0,-2.433077888E0,-3.586535901E-1,-1.072659944E0,2.683113819E0
5.686029208E0,-1.504091561E0,6.073175454E-1,-1.793905297E0,2.418516537E0
5.695995208E0,-1.109634300E0,1.294032678E0,-2.078211540E0,2.687893610E0
5.705961208E0,-1.132966737E0,1.927809459E0,-1.996439983E0,2.997638328E0
5.715927208E0,-8.585805881E-1,2.665101838E0,-1.857414245E0,3.360047040E0
5.725893208E0,-3.480622360E-1,3.298105032E0,-1.566426973E0,3.667742846E0
5.735858208E0,-3.612219796E-1,3.798008056E0,-1.117687671E0,3.975496478E0
5.745824208E0,-7.437281165E-1,4.260585380E0,-9.762979031E-1,4.433833204E0
5.755790208E0,-9.327256215E-1,4.594450868E0,-6.630567133E-1,4.734828410E0
5.765756208E0,-1.064561331E0,4.566740329E0,-2.378800086E-1,4.695209788E0
5.775722208E0,-8.084281424E-1,4.779434552E0,3.300659680E-1,4.858548574E0
5.785688208E0,-3.564196613E-1,4.688537831E0,6.023579371E-1,4.740491224E0
5.795653208E0,-4.427488303E-1,4.292442765E0,6.355210785E-1,4.361763228E0
5.805619208E0,-5.986480249E-1,4.005570179E0,6.060943079E-1,4.095158388E0
5.815585208E0,-6.195462660E-1,3.808089826E0,4.062633741E-1,3.879489093E0
5.825551208E0,-8.350918843E-1,3.722329883E0,9.521832548E-2,3.816043074E0
5.835517208E0,-6.210642032E-1,3.859212032E0,-2.109721454E-1,3.914555849E0
5.845483208E0,-7.222086087E-2,3.826303318E0,-4.539041483E-1,3.853808753E0
5.855448208E0,2.787161587E-1,3.509946147E0,-5.778112527E-1,3.568090595E0
5.865414208E0,2.690148970E-1,3.105448632E0,-6.206350907E-1,3.178264957E0
5.875380208E0,2.230052036E-1,2.527331496E0,-7.973799746E-1,2.659501953E0
5.885346208E0,4.853874578E-1,1.749900906E0,-1.056939120E0,2.101160267E0
5.895312208E0,7.625296922E-1,9.553642863E-1,-1.131633865E0,1.665763385E0
5.905278208E0,1.152031438E0,1.639149964E-1,-1.200878931E0,1.672170675E0
5.915243208E0,1.632373626E0,-7.836508584E-1,-1.601435423E0,2.417301747E0
5.925209208E0,2.635975102E0,-1.618347909E0,-1.881396600E0,3.620368470E0
5.935175208E0,3.775069722E0,-2.159141682E0,-1.733832757E0,4.681796689E0
5.945141208E0,3.983507172E0,-2.480516349E0,-1.331216877E0,4.877850871E0
5.955107208E0,3.432407389E0,-2.037226651E0,-1.234294599E0,4.177941607E0
5.965073208E0,3.101940887E0,-1.143408988E0,-1.839131756E0,3.783097540E0
5.975038208E0,3.195690465E0,-6.061597967E-1,-2.665151539E0,4.205104038E0
5.985004208E0,3.099590891E0,-1.021181130E0,-3.154738905E0,4.539014447E0
5.994970208E0,2.903547783E0,-2.348356996E0,-3.233459970E0,4.939699757E0
6.004936208E0,2.345972209E0,-4.024330970E0,-2.850867294E0,5.461343213E0
6.014902208E0,9.667099312E-1,-5.056168066E0,-1.058264172E0,5.255405471E0
6.024868208E0,-6.368696657E-1,-5.305777516E0,2.246495576E0,5.796862979E0
6.034833208E0,-1.477984328E0,-5.205171493E0,4.338038768E0,6.935187690E0
6.044799208E0,-2.015257785E0,-5.121745759E0,4.474449631E0,7.093253348E0
6.054765208E0,-3.045576359E0,-5.100846056E0,3.857211699E0,7.083237109E0
6.064731208E0,-3.960156609E0,-4.934081712E0,2.105568323E0,6.667939762E0
6.074697208E0,-4.700916386E0,-4.171977843E0,-2.067598844E-1,6.288621760E0
6.084663208E0,-5.093054641E0,-3.434859712E0,-1.064696182E0,6.234664769E0
6.094628208E0,-4.521195197E0,-3.433487370E0,6.627737081E-1,5.715707350E0
6.104594208E0,-2.834616420E0,-3.364793111E0,3.188249298E0,5.433398248E0
6.114560208E0,-1.919850521E0,-2.972672982E0,4.332527182E0,5.594050631E0
6.124526208E0,-1.383255342E0,-2.567217109E0,4.010920966E0,4.958980340E0
6.134492208E0,-4.726716641E-1,-2.241182796E0,3.123749832E0,3.873516728E0
6.144458208E0,4.302936763E-2,-2.041203927E0,2.525610076E0,3.247625480E0
6.154424208E0,4.036569777E-1,-1.794557261E0,2.169416410E0,2.844247225E0
6.164389208E0,6.179939765E-1,-1.319595535E0,1.982872689E0,2.460697672E0
6.174355208E0,6.000526723E-1,-4.801423591E-1,1.753136755E0,1.914180863E0
6.184321208E0,6.157430908E-1,3.956027305E-1,1.370880294E0,1.554012180E0
6.194287208E0,5.651790011E-1,1.329973174E0,8.896790045E-1,1.696992834E0
6.204253208E0,5.831314149E-1,2.156389983E0,5.633850753E-1,2.303793122E0
6.214218292E0,3.579756054E-1,2.766048169E0,3.324510473E-1,2.808859680E0
6.224184292E0,-8.830377370E-2,3.454064307E0,2.252739233E-1,3.462528864E0
6.234150292E0,-3.760513955E-1,4.068931192E0,3.053538623E-1,4.097664784E0
6.244116292E0,-5.514933005E-1,4.448280417E0,4.658365248E-1,4.506478359E0
6.254082292E0,-8.264062840E-1,4.653690764E0,5.468982295E-1,4.758033496E0
6.264048292E0,-8.526126274E-1,4.654869563E0,5.256038396E-1,4.761409281E0
6.274014292E0,-9.348262337E-1,4.450719876E0,4.969501805E-1,4.574906226E0
6.283979292E0,-1.160414445E0,4.209411718E0,5.195864334E-1,4.397235354E0
6.293945292E0,-1.357294581E0,3.974958251E0,4.898188798E-1,4.228766275E0
6.303911292E0,-1.455172440E0,3.713870716E0,3.110811552E-1,4.000891652E0
6.313877292E0,-1.610419524E0,3.255660093E0,2.939880627E-1,3.644064032E0
6.323843292E0,-1.674196128E0,2.831841624E0,2.111984327E-1,3.296492748E0
6.333808292E0,-1.418474145E0,2.497072740E0,-7.765453219E-2,2.872885552E0
6.343774292E0,-1.155324590E0,1.969663829E0,-4.466477537E-1,2.326767011E0
6.353740292E0,-8.580875216E-1,1.466317964E0,-8.868596233E-1,1.916487035E0
6.363706292E0,-2.009055059E-1,9.886133087E-1,-1.459487246E0,1.774210337E0
6.373672292E0,5.597738349E-1,5.919206572E-1,-2.056243551E0,2.211753682E0
6.383638292E0,1.186937707E0,3.624010706E-1,-2.580030112E0,2.862989877E0
6.393604292E0,1.779764391E0,3.205367607E-1,-2.790329316E0,3.325092900E0
6.403569292E0,2.405376997E0,2.034310645E-1,-2.628015872E0,3.568429643E0
6.413535292E0,3.107303368E0,-2.825608492E-2,-2.305460653E0,3.869274021E0
6.423501292E0,3.593424506E0,-4.688110399E-1,-1.872450360E0,4.079038345E0
6.433467292E0,4.101399027E0,-9.563401866E-1,-1.491142902E0,4.467613198E0
6.443433292E0,4.561333701E0,-1.317837278E0,-1.204334782E0,4.898253004E0
6.453399292E0,4.942100583E0,-1.386608135E0,-1.041480397E0,5.237530116E0
6.463364292E0,4.868061092E0,-1.325879538E0,-1.025386448E0,5.148533064E0
6.473330292E0,4.772837139E0,-9.851283681E-1,-1.004970821E0,4.975984185E0
6.483296292E0,5.009994358E0,-3.138124627E-1,-9.877023856E-1,5.116060763E0
6.493262292E0,5.271649073E0,-7.799191654E-2,-8.572023994E-1,5.341456977E0
6.503228292E0,5.518258901E0,-6.959502250E-1,-4.641111211E-1,5.581301564E0
6.513194292E0,5.421600333E0,-1.741671535E0,7.196511827E-2,5.694940640E0
6.523159292E0,5.044062576E0,-2.781565509E0,5.375865021E-1,5.785211595E0
6.533125292E0,4.220580484E0,-3.518031676E0,8.470902246E-1,5.559443169E0
6.543091292E0,2.855691539E0,-3.722179025E0,1.143563281E0,4.828801905E0
6.553057292E0,1.328379807E0,-3.246779927E0,1.412854532E0,3.781842241E0
6.563023292E0,-3.510574722E-1,-2.779528340E0,1.738190687E0,3.297017744E0
6.572988292E0,-1.623912120E0,-2.830734161E0,2.325273358E0,4.007123988E0
6.582954292E0,-2.712925630E0,-3.442952843E0,3.165509477E0,5.406878951E0
6.592920292E0,-4.634298766E0,-4.092422966E0,4.040062904E0,7.385577774E0
6.602886292E0,-6.190288167E0,-4.321991669E0,4.313962272E0,8.695375211E0
6.612852292E0,-7.170235902E0,-4.211939469E0,4.169073531E0,9.302359437E0
6.622818292E0,-7.486908238E0,-4.055628192E0,3.572102634E0,9.233733385E0
6.632783292E0,-7.063623619E0,-3.676305864E0,2.595935124E0,8.375492977E0
6.642749292E0,-6.169049910E0,-2.922763488E0,1.578274602E0,7.006473715E0
6.652715292E0,-5.384737147E0,-2.116666338E0,9.567945153E-1,5.864394792E0
6.662681292E0,-4.785146697E0,-1.782803773E0,6.108807655E-1,5.142877941E0
6.672647292E0,-3.934066333E0,-1.480498046E0,-1.537783364E-1,4.206233487E0
6.682613292E0,-3.310530657E0,-1.106131234E0,-1.208417820E0,3.693699117E0
6.692578292E0,-2.915327292E0,-5.903892714E-1,-2.431829508E0,3.842068124E0
6.702544292E0,-2.753224348E0,1.275225109E-1,-3.790242954E0,4.686410988E0
6.712510292E0,-2.146633319E0,9.662634963E-1,-4.388990820E0,4.980455819E0
6.722476292E0,-1.597772727E0,1.778363982E0,-3.932996877E0,4.602599328E0
6.732442292E0,-1.242780956E0,2.403289833E0,-3.136061729E0,4.141882385E0
6.742408292E0,-1.438927267E0,3.026779023E0,-1.914401793E0,3.859642102E0
6.752373292E0,-1.679997151E0,3.768895939E0,-6.104973344E-1,4.171291649E0
6.762339292E0,-1.819777472E0,4.259828750E0,4.906234932E-1,4.658158696E0
6.772305292E0,-1.194933190E0,4.593330542E0,9.856019926E-1,4.847469658E0
6.782271292E0,-6.784603259E-1,4.638566356E0,7.947302357E-1,4.754808346E0
6.792237292E0,-6.662484160E-1,4.506631536E0,5.965657584E-1,4.594508185E0
6.802203292E0,-9.631592095E-1,4.200688257E0,2.479816584E-1,4.316822025E0
6.812168292E0,-1.296560722E0,3.943066367E0,1.568926366E-1,4.153728130E0
6.822134292E0,-1.423537980E0,3.962236463E0,3.087038966E-1,4.221501660E0
6.832100292E0,-1.206747489E0,4.036316593E0,4.534620988E-1,4.237182910E0
6.842066292E0,-7.717400801E-1,3.921342207E0,8.278464532E-1,4.081401377E0
6.852032292E0,-1.701069054E-1,3.725125437E0,1.124271124E0,3.894801848E0
6.861998292E0,2.317158008E-1,3.425410611E0,1.195404914E0,3.635398599E0
6.871963292E0,5.021616577E-1,3.016087974E0,1.134925847E0,3.261442882E0
6.881929292E0,7.814830032E-1,2.440567587E0,1.030157922E0,2.761939749E0
6.891895292E0,1.201621089E0,1.987636415E0,7.078838074E-1,2.428104455E0
6.901861292E0,1.784339106E0,1.511697035E0,2.038760376E-1,2.347479373E0
6.911827292E0,2.057430536E0,8.890954524E-1,-2.300424007E-1,2.253093571E0
6.921793292E0,2.604045796E0,5.523086947E-1,-7.182965291E-1,2.757181406E0
6.931758292E0,3.269896602E0,7.737620473E-3,-1.543345674E0,3.615826258E0
6.941724292E0,3.686040893E0,-4.655126256E-1,-2.298218876E0,4.368685097E0
6.951690292E0,4.155891568E0,-8.518171138E-1,-2.448699310E0,4.898280865E0
6.961656292E0,4.297002716E0,-1.371007764E0,-1.968134197E0,4.921122519E0
6.971622292E0,3.893331120E0,-1.491390240E0,-1.409152075E0,4.400906910E0
6.981588292E0,4.231441980E0,-1.010754960E0,-1.158854992E0,4.502185215E0
6.991553292E0,3.717073821E0,-1.534765470E-1,-1.501262094E0,4.011730389E0
7.001519292E0,3.233968093E0,4.714656758E-1,-2.210324700E0,3.945423271E0
7.011485292E0,3.543900343E0,-4.218883038E-2,-2.541822066E0,4.361406763E0
7.021451292E0,3.779592543E0,-1.397123768E0,-2.647087151E0,4.821238948E0
7.031417292E0,3.975995839E0,-3.276401922E0,-2.862775733E0,5.893966183E0
7.041382292E0,3.485848601E0,-4.804157749E0,-2.677258784E0,6.511435076E0
7.051348292E0,2.050448375E0,-5.259872196E0,-6.323600006E-1,5.680710627E0
7.061314292E0,1.079293391E0,-4.469207017E0,1.641256131E0,4.881844659E0
7.071280292E0,-8.837774098E-2,-4.112595275E0,2.895050025E0,5.030165521E0
7.081246292E0,-9.326460993E-1,-4.366300115E0,3.440969467E0,5.636903078E0
7.091212292E0,-1.312941112E0,-4.833739398E0,3.300010639E0,5.998243172E0
7.101177292E0,-2.303520839E0,-4.919146169E0,2.482362315E0,5.972129432E0
7.111143292E0,-4.114569003E0,-4.742161476E0,1.558318639E0,6.468858518E0
7.121109292E0,-5.314717909E0,-4.463042298E0,8.834447032E-1,6.996102311E0
7.131075292E0,-5.944350768E0,-4.630471471E0,1.106894295E0,7.615890433E0
7.141041292E0,-5.901084881E0,-4.858772498E0,2.004571706E0,7.902454092E0
7.151007292E0,-5.269224232E0,-4.500923485E0,3.057161740E0,7.574250731E0
7.160972292E0,-4.311401484E0,-3.625989404E0,3.438154618E0,6.599764321E0
7.170938292E0,-2.932665163E0,-2.937174536E0,2.828352005E0,5.022658089E0
7.180904292E0,-1.779032319E0,-2.297930024E0,1.924613371E0,3.485624049E0
7.190870292E0,-1.070346274E0,-1.750057027E0,1.323432478E0,2.441273083E0
7.200836292E0,-7.653441033E-1,-9.501643574E-1,1.184953455E0,1.700787639E0
7.210801792E0,-7.942533222E-1,1.830476707E-1,9.584709120E-1,1.258177761E0
7.220767792E0,-6.789731267E-1,1.276332572E0,6.554541636E-1,1.587340386E0
7.230733792E0,-6.391635284E-1,2.121372178E0,3.018157303E-1,2.236032796E0
7.240699792E0,-5.818631539E-1,2.705934699E0,-1.109269617E-1,2.770009407E0
7.250665792E0,-5.419328105E-1,3.252872726E0,-2.687211110E-1,3.308637662E0
7.260631792E0,-7.664837256E-1,3.834350840E0,-2.778234533E-1,3.920067543E0
7.270596792E0,-9.724539435E-1,4.222729921E0,-2.231700951E-1,4.338999833E0
7.280562792E0,-1.161281879E0,4.398373262E0,-9.504067976E-2,4.550087437E0
7.290528792E0,-1.107258284E0,4.386357819E0,-7.111091316E-2,4.524512414E0
7.300494792E0,-1.095637236E0,4.248655890E0,-4.085394759E-2,4.387843077E0
7.310460792E0,-9.278300402E-1,4.005056793E0,-3.911030788E-2,4.111310997E0
7.320426792E0,-7.009721062E-1,3.736328702E0,-8.024777234E-2,3.802361604E0
7.330391792E0,-5.744502001E-1,3.460557055E0,-1.786136540E-1,3.512456548E0
7.340357792E0,-7.123250601E-1,3.010534288E0,-3.099006754E-1,3.109141702E0
7.350323792E0,-6.418957861E-1,2.447439235E0,-4.604290563E-1,2.571766693E0
7.360289792E0,-3.778014672E-1,1.961064329E0,-6.687232500E-1,2.106109692E0
7.370255792E0,1.296459273E-1,1.572543161E0,-9.765260176E-1,1.855613948E0
7.380221792E0,6.849852338E-1,1.413621687E0,-1.283244565E0,2.028360830E0
7.390186792E0,1.008955772E0,1.298687062E0,-1.451299390E0,2.193364939E0
7.400152792E0,1.271947598E0,1.107392478E0,-1.565912418E0,2.301358402E0
7.410118792E0,1.572972054E0,8.918097299E-1,-1.486140025E0,2.340550758E0
7.420084792E0,2.147137349E0,6.617334884E-1,-1.270569556E0,2.581169696E0
7.430050792E0,2.819505168E0,3.062572753E-1,-1.099978209E0,3.041932769E0
7.440015792E0,3.414128116E0,-1.648365176E-1,-1.078356959E0,3.584172931E0
7.449981792E0,3.906706918E0,-6.277594113E-1,-1.096598006E0,4.105967366E0
7.459947792E0,4.183664088E0,-9.049940318E-1,-1.034442031E0,4.403649591E0
7.469913792E0,4.430062248E0,-1.111391973E0,-9.482599193E-1,4.664744421E0
7.479879792E0,4.693051881E0,-1.178668283E0,-8.869957904E-1,4.919426431E0
7.489845792E0,4.595412735E0,-1.085167211E0,-9.231286595E-1,4.811192431E0
7.499810792E0,4.353070205E0,-6.830910283E-1,-9.922204560E-1,4.516673001E0
7.509776792E0,4.335023358E0,-2.607904959E-1,-9.565986335E-1,4.446967523E0
7.519742792E0,4.688616183E0,-5.998798871E-1,-6.644575600E-1,4.773309276E0
7.529708792E0,4.995502034E0,-1.654015340E0,-1.425282204E-1,5.264135410E0
7.539674792E0,4.761392968E0,-2.618136417E0,3.352482822E-1,5.444069499E0
7.549639792E0,4.002108042E0,-3.131359983E0,6.793294414E-1,5.126770193E0
7.559605792E0,2.872915390E0,-3.419737058E0,9.933179053E-1,4.575469904E0
7.569571792E0,1.238170719E0,-3.461434137E0,1.334809406E0,3.911049624E0
7.579537792E0,-6.191873932E-1,-2.790176119E0,1.597946974E0,3.274432827E0
7.589503792E0,-2.262816909E0,-1.930844749E0,1.727044140E0,3.439648713E0
7.599469792E0,-3.403375964E0,-1.968506080E0,2.005499659E0,4.413616773E0
7.609434792E0,-4.517248034E0,-3.034865137E0,2.588396308E0,6.026253533E0
7.619400792E0,-6.184164963E0,-4.299792130E0,3.101229281E0,8.145534464E0
7.629366792E0,-7.145892189E0,-4.829870296E0,3.072911800E0,9.156102292E0
7.639332792E0,-7.332066366E0,-4.355868682E0,2.617732374E0,8.921060024E0
7.649298792E0,-6.644163664E0,-3.468947225E0,2.074213214E0,7.776944522E0
7.659264792E0,-5.770129470E0,-2.641435817E0,1.673639181E0,6.562975345E0
7.669229792E0,-5.091294630E0,-2.232208489E0,1.332468765E0,5.716599405E0
7.679195792E0,-4.740488295E0,-2.242804229E0,9.335464974E-1,5.326716545E0
7.689161792E0,-4.312967661E0,-2.240522060E0,-1.613604210E-1,4.862886626E0
7.699127792E0,-3.852749982E0,-2.106058320E0,-1.523483852E0,4.647597994E0
7.709093792E0,-3.149098681E0,-1.716953015E0,-2.736683452E0,4.511561423E0
7.719058792E0,-2.348730049E0,-9.487048924E-1,-3.651408420E0,4.444024894E0
7.729024792E0,-1.625494669E0,5.699631929E-2,-4.258968624E0,4.558979627E0
7.738990792E0,-1.430640593E0,1.163248590E0,-4.295571025E0,4.674591984E0
7.748956792E0,-1.191669274E0,2.279648119E0,-3.331764529E0,4.209219177E0
7.758922792E0,-1.182549664E0,3.030713030E0,-2.130883259E0,3.888998411E0
7.768888792E0,-1.298377744E0,3.769863653E0,-7.401931822E-1,4.055310429E0
7.778853792E0,-1.137391033E0,4.381482995E0,-1.018304666E-1,4.527849494E0
7.788819792E0,-6.719833651E-1,4.663932747E0,1.700183201E-1,4.715160288E0
7.798785792E0,-4.628816709E-1,4.575096585E0,3.028343153E-1,4.608413699E0
7.808751792E0,-6.714924914E-1,4.445606486E0,2.642731706E-1,4.503793901E0
7.818717792E0,-5.771424043E-1,4.342347581E0,-1.379697311E-1,4.382705958E0
7.828683792E0,-4.627343211E-1,4.298273608E0,3.192119278E-2,4.323227732E0
7.838648792E0,-5.950228974E-1,4.177510478E0,5.661975861E-2,4.220053536E0
7.848614792E0,-1.022739413E0,3.903847337E0,-1.492677212E-1,4.038353723E0
7.858580792E0,-9.417218551E-1,3.701047187E0,-1.864759663E-1,3.823527641E0
7.868546792E0,-7.499843448E-1,3.518852625E0,-2.203355111E-2,3.597955780E0
7.878512792E0,-6.466856790E-1,3.226338646E0,2.403252411E-1,3.299275624E0
7.888477792E0,-2.881507874E-1,2.992980362E0,3.750485981E-1,3.030119433E0
7.898443792E0,1.989298779E-1,2.653773442E0,4.532598217E-1,2.699542747E0
7.908409792E0,3.994677401E-1,2.259033176E0,6.780513132E-1,2.392187064E0
7.918375792E0,5.748880103E-1,1.779612948E0,7.827129650E-1,2.027352474E0
7.928341792E0,1.135068958E0,1.128682775E0,5.077312768E-1,1.679314561E0
7.938307792E0,1.794886460E0,4.368033814E-1,2.207441219E-1,1.860414622E0
7.948272792E0,2.425446395E0,-1.546676248E-1,-1.352741647E-1,2.434134628E0
7.958238792E0,2.791333868E0,-7.257107985E-1,-6.276471448E-1,2.951633762E0
7.968204792E0,3.145735070E0,-1.145549068E0,-1.287595478E0,3.586897534E0
7.978170792E0,3.506978685E0,-1.340860689E0,-1.704168663E0,4.123226615E0
7.988136792E0,3.897508371E0,-1.402150034E0,-1.606384506E0,4.442641939E0
7.998102792E0,4.166813290E0,-1.374661689E0,-1.679179417E0,4.698049730E0
8.008067792E0,4.418815128E0,-1.108637350E0,-2.069400371E0,5.003740781E0
8.018033792E0,4.623294891E0,-9.060096931E-1,-2.539484349E0,5.352073427E0
8.027999792E0,4.749972479E0,-9.636299103E-1,-3.053503722E0,5.728412183E0
8.037965792E0,5.028682644E0,-1.176754489E0,-3.332881932E0,6.146584599E0
8.047931792E0,5.118680064E0,-1.749885119E0,-3.298894406E0,6.336062486E0
8.057896792E0,4.680480660E0,-2.359539211E0,-2.938534014E0,6.009101983E0
8.067862792E0,3.639057346E0,-2.763954281E0,-2.189709756E0,5.067248805E0
8.077828792E0,2.543349067E0,-2.625157169E0,-4.830782461E-1,3.686928156E0
8.087794792E0,1.690306669E0,-2.480763686E0,1.396688150E0,3.310900616E0
8.097760792E0,6.185915619E-1,-2.835933505E0,2.744944983E0,3.994984020E0
8.107725792E0,-5.255544671E-1,-3.378818827E0,3.469422019E0,4.871294829E0
8.117691792E0,-1.741097631E0,-4.011218004E0,3.530317846E0,5.620003108E0
8.127657792E0,-2.742815719E0,-4.535257165E0,3.016313092E0,6.098339142E0
8.137623792E0,-4.513944941E0,-5.014383278E0,1.948598065E0,7.022590193E0
8.147589792E0,-7.229117364E0,-5.865054923E0,1.119538314E0,9.376159829E0
8.157555792E0,-8.580172673E0,-6.731578953E0,6.894995767E-1,1.092743922E1
8.167520792E0,-7.595879872E0,-6.405025992E0,9.562437075E-1,9.981790973E0
8.177486792E0,-5.462501607E0,-4.362547957E0,1.791053025E0,7.216551768E0
8.187452792E0,-3.380738761E0,-1.916394525E0,2.111123178E0,4.422533619E0
8.197418792E0,-2.701321830E0,-6.319419247E-1,2.259864065E0,3.578194491E0
8.207384792E0,-1.843236794E0,-5.833948320E-1,2.479249842E0,3.143970608E0
8.217349542E0,-7.366345668E-1,-7.330589944E-1,2.540498841E0,2.744838855E0
8.227315542E0,-2.973046035E-2,-5.102888489E-1,2.175570604E0,2.234812311E0
8.237281542E0,2.330460423E-1,5.790146828E-2,1.659942663E0,1.677221715E0
8.247247542E0,-1.077653539E-1,9.413549423E-1,1.146382297E0,1.487264223E0
8.257213542E0,-4.592730618E-1,1.770482520E0,6.422470576E-1,1.938561679E0
8.267179542E0,-5.704534820E-1,2.655566783E0,3.136393486E-1,2.734194901E0
8.277144542E0,-6.315504536E-1,3.509878319E0,6.404985208E-2,3.566819896E0
8.287110542E0,-7.351607761E-1,3.970606168E0,-1.830938272E-1,4.042239238E0
8.297076542E0,-1.088998015E0,4.174765211E0,-3.003545111E-1,4.324903938E0
8.307042542E0,-1.184495325E0,4.168582365E0,-4.200217994E-1,4.353909326E0
8.317008542E0,-9.120674086E-1,3.982298845E0,-5.405979278E-1,4.121021374E0
8.326973542E0,-6.989618334E-1,3.843680073E0,-6.207083271E-1,3.955717757E0
8.336939542E0,-5.102581510E-1,3.707377383E0,-6.043793195E-1,3.790815849E0
8.346905542E0,-3.400611985E-1,3.602447344E0,-4.577194566E-1,3.647297025E0
8.356871542E0,-3.896911955E-1,3.398011143E0,-2.550958195E-1,3.429783205E0
8.366837542E0,-4.232224922E-1,3.017126439E0,-5.861424387E-2,3.047229046E0
8.376803542E0,-5.177127662E-1,2.341583582E0,1.524971384E-1,2.402976395E0
8.386768542E0,-2.922770213E-1,1.882403491E0,1.314383181E-1,1.909488096E0
8.396734542E0,1.977586806E-2,1.560526548E0,-3.952140369E-2,1.561152181E0
8.406700542E0,1.611153495E-1,1.360690936E0,-2.522910563E-1,1.393229614E0
8.416666542E0,2.990168144E-1,1.179892690E0,-4.326834333E-1,1.291809881E0
8.426632542E0,9.148020051E-1,1.135622835E0,-6.573662031E-1,1.599572523E0
8.436597542E0,1.486537343E0,9.095753253E-1,-7.762466023E-1,1.907794363E0
8.446563542E0,2.354983646E0,4.491035843E-1,-8.185302307E-1,2.533304905E0
8.456529542E0,3.065876430E0,-8.039161384E-2,-7.441541592E-1,3.155919281E0
8.466495542E0,3.643588938E0,-6.885143209E-1,-6.468062047E-1,3.764060386E0
8.476461542E0,4.002155989E0,-1.095883988E0,-6.390405907E-1,4.198402929E0
8.486427542E0,4.198482395E0,-1.376362644E0,-6.722503636E-1,4.469177676E0
8.496392542E0,4.617347980E0,-1.430354079E0,-7.032387793E-1,4.884706741E0
8.506358542E0,4.744537492E0,-1.430293853E0,-7.092134643E-1,5.005932506E0
8.516324542E0,4.662248749E0,-1.288557930E0,-6.536936400E-1,4.881010173E0
8.526290542E0,4.450129892E0,-9.519623762E-1,-6.404065733E-1,4.595651096E0
8.536256542E0,4.369250035E0,-6.777513510E-1,-5.948591023E-1,4.461339498E0
8.546221542E0,4.462273389E0,-7.498247159E-1,-4.863895243E-1,4.550900534E0
8.556187542E0,4.775782674E0,-1.260649754E0,-2.599642843E-1,4.946202521E0
8.566153542E0,4.791569279E0,-1.882644981E0,6.914040148E-2,5.148618132E0
8.576119542E0,4.476666895E0,-2.319896843E0,3.220063122E-1,5.052341627E0
8.586085542E0,3.831854079E0,-2.571842256E0,4.938150497E-1,4.641264007E0
8.596051542E0,2.827335175E0,-2.500408577E0,7.062617898E-1,3.839879289E0
8.606016542E0,1.414191206E0,-1.816904735E0,8.026214918E-1,2.438294658E0
8.615982542E0,-1.175173402E-1,-8.745212674E-1,8.412236401E-1,1.219120579E0
8.625948542E0,-1.301098453E0,-5.918849891E-1,1.229605717E0,1.885501325E0
8.635914542E0,-2.259617020E0,-1.570149311E0,2.088855227E0,3.454642397E0
8.645880542E0,-3.444109422E0,-3.038708512E0,3.045223480E0,5.510809847E0
8.655845542E0,-4.805987636E0,-4.203368036E0,3.690858414E0,7.374839376E0
8.665811542E0,-6.156124055E0,-4.519748595E0,3.540880841E0,8.418065566E0
8.675777542E0,-7.176466695E0,-4.188274033E0,2.845535218E0,8.782959881E0
8.685743542E0,-7.661227185E0,-3.832646377E0,2.207485292E0,8.846274445E0
8.695709542E0,-7.250562027E0,-3.290897754E0,1.652300352E0,8.132081787E0
8.705674542E0,-6.312369844E0,-2.328288183E0,1.208148190E0,6.835682918E0
8.715640542E0,-5.576413554E0,-1.848094368E0,1.160421461E0,5.988189951E0
8.725606542E0,-5.006966085E0,-1.652634813E0,1.146772891E0,5.395924320E0
8.735572542E0,-4.427629806E0,-1.043387101E0,3.466867516E-1,4.562099741E0
8.745538542E0,-3.771914856E0,-2.639263576E-1,-1.078306162E0,3.931887967E0
8.755504542E0,-2.827936853E0,1.289188260E-1,-2.879016960E0,4.037646042E0
8.765469542E0,-1.779065648E0,3.402301830E-1,-4.566977726E0,4.913055740E0
8.775435542E0,-9.882086813E-1,6.258193052E-1,-5.326120564E0,5.453051115E0
8.785401542E0,-6.822753417E-1,1.170965745E0,-4.961543160E0,5.143303505E0
8.795367542E0,-7.917548069E-1,2.076668460E0,-3.752433688E0,4.361213839E0
8.805333542E0,-8.945079276E-1,3.204423866E0,-2.472108053E0,4.144851623E0
8.815298542E0,-8.809128588E-1,4.234247766E0,-1.132106320E0,4.470629299E0
8.825264542E0,-7.931809428E-1,4.679357117E0,-2.075105938E-1,4.750639924E0
8.835230542E0,-5.273109707E-1,4.641772969E0,3.409230781E-1,4.684051847E0
8.845196542E0,-5.572390670E-1,4.627001148E0,5.690673264E-1,4.695049800E0
8.855162542E0,-5.130703694E-1,4.570177322E0,5.791409826E-1,4.635209406E0
8.865127542E0,-5.052786621E-1,4.521688117E0,2.432676331E-1,4.556330661E0
8.875093542E0,-4.934620240E-1,4.474069562E0,-1.715690748E-1,4.504468799E0
8.885059542E0,-6.640372914E-1,4.159174195E0,-3.668600842E-1,4.227796333E0
8.895025542E0,-5.983002618E-1,3.672594051E0,-3.558709002E-1,3.737988011E0
8.904991542E0,-4.424649480E-1,3.295949163E0,-3.494904184E-1,3.343830090E0
8.914956542E0,-4.332251778E-1,2.823590618E0,-2.677288020E-1,2.869150875E0
8.924922542E0,-2.739212957E-1,2.459968064E0,-3.409148189E-1,2.498539306E0
8.934888542E0,-1.746621788E-2,1.976779890E0,-2.156371272E-1,1.988583207E0
8.944854542E0,2.863130075E-1,1.331282365E0,-1.441747963E-1,1.369333504E0
8.954820542E0,7.664302236E-1,6.998760456E-1,-1.824202645E-1,1.053811615E0
8.964786542E0,1.242083383E0,2.879016960E-1,-5.327760708E-1,1.381849796E0
8.974751542E0,1.593368019E0,-2.810955369E-1,-1.137068267E0,1.977564307E0
8.984717542E0,2.349522639E0,-7.432021594E-1,-2.206178439E0,3.307541290E0
8.994683542E0,3.410503135E0,-1.040256502E0,-2.951012557E0,4.628405809E0
9.004649542E0,3.746196463E0,-1.299896851E0,-2.723662872E0,4.810619420E0
9.014615542E0,3.467326084E0,-1.457808511E0,-1.632219844E0,4.100207000E0
9.024580542E0,3.520840094E0,-1.076868258E0,-9.222988665E-1,3.795602115E0
9.034546542E0,3.732638817E0,-4.951971853E-1,-9.160557944E-1,3.875173674E0
9.044512542E0,3.751049944E0,-1.059363449E-1,-1.334628142E0,3.982816902E0
9.054478542E0,3.683309366E0,-4.287821710E-2,-1.784644477E0,4.093111572E0
9.064444542E0,3.899249087E0,-7.232888818E-2,-1.969052795E0,4.368814921E0
9.074409542E0,4.193140671E0,-3.086072713E-1,-1.870423130E0,4.601755080E0
9.084375542E0,4.266543108E0,-6.916507673E-1,-1.812521662E0,4.686897230E0
9.094341542E0,4.123030801E0,-1.200575461E0,-1.848327087E0,4.675155339E0
9.104307542E0,3.216371774E0,-1.693277054E0,-1.770169694E0,4.042985941E0
9.114273542E0,2.256283230E0,-1.710386007E0,-2.867053556E-1,2.845774810E0
9.124238542E0,1.557723978E0,-1.500086803E0,1.225776376E0,2.485818202E0
9.134204542E0,8.330536911E-1,-1.827773539E0,2.136695391E0,2.932610059E0
9.144170542E0,3.377059400E-1,-2.837758421E0,2.857028505E0,4.040981321E0
9.154136542E0,-2.750202799E-1,-3.894748485E0,3.366432670E0,5.155343911E0
9.164102542E0,-1.647148955E0,-5.144289114E0,3.489585557E0,6.430708945E0
9.174067542E0,-3.936620689E0,-6.736909860E0,3.761878695E0,8.662255378E0
9.184033542E0,-7.409177692E0,-8.171393242E0,3.233714324E0,1.149454174E1
9.193999542E0,-9.858711984E0,-9.334601487E0,1.909421720E0,1.371039307E1
9.203965542E0,-7.942440251E0,-8.010481961E0,7.536727685E-1,1.130567119E1
9.213931542E0,-5.141936780E0,-4.818091664E0,5.674437008E-1,7.069336142E0
9.223897542E0,-3.388557950E0,-1.874954723E0,1.297868451E0,4.084390127E0
9.233862542E0,-2.821456092E0,-4.016160071E-1,2.449104522E0,3.757661887E0
9.243828542E0,-1.938998983E0,-7.555421233E-2,3.089750612E0,3.648559214E0
9.253794542E0,-7.989892745E-1,7.967532992E-2,3.222730329E0,3.321253196E0
9.263760542E0,-1.595363089E-1,3.209799796E-1,2.944432100E0,2.966169310E0
9.273726542E0,2.002612889E-2,7.603830332E-1,2.463183448E0,2.577955799E0
9.283691542E0,-2.919836372E-2,1.526692219E0,1.868056177E0,2.412731970E0
9.293657542E0,-9.078942508E-2,2.357887373E0,1.300534782E0,2.694302563E0
9.303623542E0,-2.831946874E-1,3.233066452E0,7.978554263E-1,3.342078873E0
9.313589542E0,-2.981968886E-1,4.191681790E0,-3.864132464E-2,4.202452947E0
9.323555542E0,-5.906564891E-1,4.857905356E0,-8.124701033E-1,4.960668020E0
9.333520542E0,-8.068260053E-1,5.232946937E0,-1.257703927E0,5.442106303E0
9.343486542E0,-1.071432102E0,5.245211472E0,-1.624138992E0,5.594464907E0
9.353452542E0,-1.090861230E0,5.017277066E0,-1.870911373E0,5.464737573E0
9.363418542E0,-1.013368373E0,4.598561461E0,-1.913732433E0,5.082917941E0
9.373384542E0,-1.137772856E0,3.968564320E0,-1.790024792E0,4.499802062E0
9.383349542E0,-9.628142238E-1,3.233351212E0,-1.357422489E0,3.636504792E0
9.393315542E0,-7.645430347E-1,2.643924392E0,-8.918057831E-1,2.893126302E0
9.403281542E0,-7.273841254E-1,2.185293354E0,-5.746859890E-1,2.373785731E0
9.413247542E0,-5.408655475E-1,1.759672188E0,-5.087171173E-1,1.909914882E0
9.423213542E0,-2.740592900E-1,1.270089499E0,-5.735719483E-1,1.420288918E0
9.433178542E0,9.940895185E-2,9.079094535E-1,-7.273556203E-1,1.167573515E0
9.443144542E0,6.160569401E-1,5.861020929E-1,-9.292868739E-1,1.259609428E0
9.453110542E0,1.162154430E0,2.847453690E-1,-1.120537603E0,1.639294777E0
9.463076542E0,1.949075198E0,-9.436353564E-2,-1.233156146E0,2.308348475E0
9.473042542E0,2.703820930E0,-6.324804533E-1,-1.180661014E0,3.017389530E0
9.483007542E0,3.484338266E0,-1.105408518E0,-1.050009658E0,3.803296126E0
9.492973542E0,3.818913899E0,-1.665136744E0,-8.672537631E-1,4.255456830E0
9.502939542E0,4.241513224E0,-1.842789774E0,-8.366213697E-1,4.699600397E0
9.512905542E0,4.540568484E0,-1.818134989E0,-8.792152660E-1,4.969446295E0
9.522871542E0,4.581750131E0,-1.649572626E0,-9.303547217E-1,4.957729724E0
9.532837542E0,4.491176468E0,-1.310378569E0,-1.048095426E0,4.794399033E0
9.542802542E0,4.297591823E0,-9.156616920E-1,-1.112580859E0,4.532721917E0
9.552768542E0,4.219996932E0,-8.312811077E-1,-1.080441053E0,4.434721553E0
9.562734542E0,4.310845122E0,-1.043385932E0,-8.842253065E-1,4.522598176E0
9.572700542E0,4.435938115E0,-1.560985554E0,-5.100951599E-1,4.730160666E0
9.582666542E0,4.282375906E0,-2.103265105E0,-1.193716384E-1,4.772495897E0
9.592631542E0,3.761935998E0,-2.390279194E0,2.147951281E-1,4.462256607E0
9.602597542E0,3.069297344E0,-2.607800878E0,5.832433891E-1,4.069568092E0
9.612563542E0,2.248465210E0,-2.667884527E0,9.799904197E-1,3.624028819E0
9.622529542E0,1.065856197E0,-2.286777045E0,1.226517218E0,2.805306252E0
9.632495542E0,-1.358790591E-1,-1.749085804E0,1.481088615E0,2.295950295E0
9.642460542E0,-1.257156920E0,-1.744748340E0,1.942036466E0,2.897601754E0
9.652426542E0,-2.333184056E0,-2.503988827E0,2.582263164E0,4.287399087E0
9.662392542E0,-3.547584381E0,-3.362368855E0,3.210876853E0,5.848128712E0
9.672358542E0,-4.621714681E0,-4.035325490E0,3.523124601E0,7.075062216E0
9.682324542E0,-5.730755489E0,-4.215880492E0,3.283230300E0,7.835483903E0
9.692289542E0,-7.146017904E0,-3.778176055E0,2.500381680E0,8.461211186E0
9.702255542E0,-7.841789789E0,-3.353282867E0,1.502133914E0,8.659941072E0
9.712221542E0,-7.875451040E0,-3.121638402E0,9.363544035E-1,8.523151704E0
9.722187542E0,-7.343548543E0,-2.974423054E0,9.315405370E-1,7.977635332E0
9.732153542E0,-6.047714923E0,-2.075495508E0,8.947982419E-1,6.456252883E0
9.742118542E0,-4.695831355E0,-6.011072177E-1,5.987485971E-1,4.771861470E0
9.752084542E0,-4.075203500E0,4.650933802E-1,2.563998216E-1,4.109663769E0
9.762050542E0,-3.162353150E0,1.319711310E0,-4.150346361E-1,3.451719736E0
9.772016542E0,-1.975144424E0,1.872870190E0,-1.565237650E0,3.139873747E0
9.781982542E0,-1.166161381E0,2.129543077E0,-2.459014383E0,3.455667492E0
9.791947542E0,-9.303098443E-1,2.118053883E0,-3.544616627E0,4.232722019E0
9.801913542E0,-5.172280321E-1,2.307828190E0,-4.286884986E0,4.896016613E0
9.811879542E0,4.344270730E-1,2.900883207E0,-3.770341955E0,4.776958104E0
9.821845542E0,4.403973725E-1,3.750367867E0,-3.157970077E0,4.922599312E0
9.831811542E0,1.132102811E-1,4.356117189E0,-2.425345531E0,4.987070731E0
9.841776542E0,1.628829628E-1,4.875020741E0,-1.417043477E0,5.079406491E0
9.851742542E0,1.446922749E-2,5.025825110E0,-6.399286366E-1,5.066422412E0
9.861708542E0,1.682159159E-1,4.915814425E0,-1.180973840E-1,4.920109252E0
9.871674542E0,1.753389940E-1,4.672421150E0,3.675629195E-1,4.690134931E0
9.881640542E0,3.879186121E-1,4.599590571E0,3.714607465E-1,4.630841971E0
9.891605542E0,2.612381002E-1,4.407839904E0,3.957687183E-1,4.433275408E0
9.901571542E0,2.918529519E-1,4.140254359E0,3.097585150E-1,4.162070956E0
9.911537542E0,3.234869733E-1,3.780859342E0,1.048967465E-1,3.796122300E0
9.921503542E0,5.925468940E-1,3.449682403E0,-2.668820886E-1,3.510362738E0
9.931469542E0,6.535473865E-1,2.840625311E0,-3.357786977E-1,2.934113781E0
9.941434542E0,8.865416810E-1,2.192034609E0,-5.160565424E-1,2.420183100E0
9.951400542E0,1.191632144E0,1.389161029E0,-8.362266827E-1,2.012220316E0
9.961366542E0,1.628510955E0,6.709095240E-1,-1.457761148E0,2.286314739E0
9.971332542E0,1.912678619E0,-2.441364563E-1,-2.216400542E0,2.937749729E0
9.981298542E0,2.394710506E0,-8.500413144E-1,-3.136823037E0,4.036937875E0
9.991263542E0,3.266943465E0,-1.283886589E0,-3.857169600E0,5.215270051E0
1.000122954E1,3.625770133E0,-1.807567316E0,-3.352574185E0,5.258636926E0
1.001119554E1,3.145535388E0,-1.834441119E0,-1.877975394E0,4.097115898E0
1.002116154E1,2.780325607E0,-1.108040349E0,-1.160106881E0,3.209955120E0
1.003112754E1,2.767226382E0,-2.701694298E-1,-1.288021156E0,3.064234304E0
1.004109254E1,2.545718943E0,-1.361377984E-1,-1.588054655E0,3.003520605E0
1.005105854E1,2.619070509E0,-9.358556360E-1,-1.909417042E0,3.373607794E0
1.006102454E1,2.903235250E0,-2.426367039E0,-2.118521075E0,4.336376768E0
1.007099054E1,2.684923899E0,-4.178957664E0,-2.289750938E0,5.469502981E0
1.008095654E1,1.992063342E0,-5.047332339E0,-1.528600166E0,5.637419495E0
1.009092154E1,1.069436447E0,-4.310865002E0,1.391302865E0,4.654350120E0
1.010088754E1,1.789291844E-1,-3.420053977E0,3.572529480E0,4.948914199E0
1.011085354E1,-5.143792686E-1,-3.109724116E0,4.362480129E0,5.382025918E0
1.012081954E1,-1.112419914E0,-3.320163068E0,4.453344691E0,5.665089567E0
1.013078554E1,-1.748764792E0,-3.912982442E0,4.069707702E0,5.910340995E0
1.014075054E1,-2.534738457E0,-4.671383269E0,3.015885075E0,6.110833289E0
1.015071654E1,-4.128563144E0,-5.536009879E0,1.063058889E0,6.987312302E0
1.016068254E1,-5.625383985E0,-6.221032827E0,-6.221004760E-1,8.410303408E0
1.017064854E1,-5.321747432E0,-6.167533727E0,-2.842916250E-2,8.146181696E0
1.018061454E1,-4.826316065E0,-5.199529515E0,2.089584374E0,7.395593066E0
1.019057954E1,-3.997738418E0,-3.425053931E0,3.160662720E0,6.140252089E0
1.020054554E1,-2.716417002E0,-1.782326056E0,3.066103887E0,4.467281113E0
1.021051108E1,-1.714711485E0,-9.606770664E-1,3.101860780E0,3.672148717E0
1.022047708E1,-8.911302835E-1,-5.796432585E-1,3.184913462E0,3.357644003E0
1.023044308E1,-2.142516294E-1,-1.975721544E-1,2.979546384E0,2.993766052E0
1.024040808E1,1.762543756E-1,4.412115973E-1,2.472385796E0,2.517622847E0
1.025037408E1,3.297475871E-1,1.256525128E0,1.942952578E0,2.337232036E0
1.026034008E1,3.442369875E-1,2.218627746E0,1.462496370E0,2.679496932E0
1.027030608E1,1.091216156E-1,2.913370521E0,1.036065291E0,3.094037267E0
1.028027208E1,-3.925382048E-2,3.582101957E0,6.255690444E-1,3.636527454E0
1.029023708E1,-2.212185869E-1,4.219532079E0,3.347706378E-1,4.238568155E0
1.030020308E1,-5.368375468E-1,4.584497153E0,1.625870937E-1,4.618684148E0
1.031016908E1,-7.224272946E-1,4.780507516E0,7.143426418E-2,4.835313450E0
1.032013508E1,-6.554421768E-1,4.878905046E0,-1.020321590E-1,4.923792182E0
1.033010108E1,-6.234751564E-1,4.587133078E0,-2.180093426E-1,4.634440551E0
1.034006608E1,-5.819792211E-1,4.086410859E0,-2.279174495E-1,4.133932738E0
1.035003208E1,-4.735763745E-1,3.644535018E0,-2.512067632E-1,3.683750116E0
1.035999808E1,-3.012653612E-1,3.258567914E0,-3.698253534E-1,3.293295683E0
1.036996408E1,-4.058347732E-2,2.809823933E0,-4.045858810E-1,2.839092688E0
1.037993008E1,1.933586508E-1,2.296551835E0,-3.991596649E-1,2.338988315E0
1.038989508E1,4.344627410E-1,1.744971703E0,-3.127149403E-1,1.825232794E0
1.039986108E1,7.221178307E-1,1.174452440E0,-1.164367747E-1,1.383600455E0
1.040982708E1,9.671382397E-1,5.684435016E-1,7.365094364E-2,1.124237008E0
1.041979308E1,1.147546331E0,1.235791487E-1,1.500980258E-1,1.163900256E0
1.042975908E1,1.286764881E0,-1.410629082E-1,7.107685313E-2,1.296423744E0
1.043972408E1,1.661318220E0,-3.719086432E-1,-1.209258284E-1,1.706727079E0
1.044969008E1,2.089290406E0,-7.130889988E-1,-4.031475390E-1,2.244138645E0
1.045965608E1,2.435356841E0,-1.145659581E0,-7.575553197E-1,2.795959384E0
1.046962208E1,2.988233593E0,-1.598587829E0,-9.790585198E-1,3.527545696E0
1.047958808E1,3.299458662E0,-2.016912839E0,-1.013991394E0,3.997817331E0
1.048955308E1,3.573087305E0,-2.102627758E0,-1.086692750E0,4.285895182E0
1.049951908E1,4.024149706E0,-1.687813416E0,-1.149785376E0,4.512704444E0
1.050948508E1,4.192760602E0,-1.132772318E0,-1.170930662E0,4.498165537E0
1.051945108E1,4.409309017E0,-6.827787870E-1,-1.131279670E0,4.603041014E0
1.052941708E1,4.475723155E0,-3.713426328E-1,-1.058348957E0,4.614119160E0
1.053938208E1,4.924584664E0,-5.540640289E-1,-8.970084894E-1,5.036183604E0
1.054934808E1,5.328030850E0,-1.365331287E0,-5.995945430E-1,5.532771085E0
1.055931408E1,5.099136330E0,-2.234528080E0,-2.226454537E-1,5.571703335E0
1.056928008E1,4.489536032E0,-2.693886511E0,1.465342940E-1,5.237788714E0
1.057924608E1,3.560909309E0,-2.932800234E0,5.946133000E-1,4.651339301E0
1.058921108E1,2.410248897E0,-2.955973334E0,1.167728873E0,3.988817973E0
1.059917708E1,9.939114708E-1,-2.755761162E0,1.738430569E0,3.406496799E0
1.060914308E1,-4.066934368E-1,-2.931010986E0,2.326343399E0,3.764053475E0
1.061910908E1,-1.575921097E0,-3.160239966E0,2.860070227E0,4.544298147E0
1.062907508E1,-2.956679386E0,-3.474529561E0,3.217981805E0,5.582984467E0
1.063904008E1,-4.640625746E0,-3.465318443E0,2.952993593E0,6.501077632E0
1.064900608E1,-6.421494675E0,-3.230975488E0,1.965716958E0,7.452438502E0
1.065897208E1,-7.396441287E0,-3.082928081E0,9.588338779E-1,8.070387331E0
1.066893808E1,-8.070952696E0,-3.283150193E0,3.398296487E-1,8.719795685E0
1.067890408E1,-7.856299655E0,-3.548957600E0,1.312160508E-1,8.621702962E0
1.068886908E1,-7.335020964E0,-3.121076485E0,1.938468202E-1,7.973783767E0
1.069883508E1,-6.759430411E0,-2.144672163E0,4.176870793E-1,7.103800438E0
1.070880108E1,-5.506141716E0,-9.418607265E-1,3.540313661E-1,5.597324042E0
1.071876708E1,-4.539645501E0,2.110271823E-1,2.301423150E-1,4.550371329E0
1.072873308E1,-3.793373261E0,1.351961043E0,-3.083727980E-1,4.038882660E0
1.073869808E1,-3.196631574E0,2.147789898E0,-7.965854111E-1,3.932683967E0
1.074866408E1,-2.419093980E0,2.675991107E0,-1.481965113E0,3.899892907E0
1.075863008E1,-1.836734982E0,2.824702173E0,-2.148924258E0,3.996299942E0
1.076859608E1,-1.778464262E0,2.929717582E0,-2.639153649E0,4.325657432E0
1.077856208E1,-1.860990987E0,3.466805974E0,-2.375327278E0,4.596108223E0
1.078852708E1,-1.195371731E0,4.180147573E0,-1.698344836E0,4.667646354E0
1.079849308E1,-6.839549544E-1,4.790576422E0,-8.886867321E-1,4.920079363E0
1.080845908E1,-5.987241849E-1,4.988768966E0,-6.501331973E-1,5.066454344E0
1.081842508E1,-1.536195114E-1,4.930973917E0,-7.310095453E-1,4.987231464E0
1.082839108E1,1.531493953E-1,4.783971407E0,-8.346491770E-1,4.858649649E0
1.083835608E1,9.725819975E-2,4.620054656E0,-8.075952796E-1,4.691116532E0
1.084832208E1,1.109216809E-3,4.400698700E0,-6.379639721E-1,4.446700834E0
1.085828808E1,1.379390332E-1,4.122035020E0,-5.371671836E-1,4.159176417E0
1.086825408E1,3.614336488E-1,3.981067421E0,-5.105565052E-1,4.029913156E0
1.087822008E1,6.748704278E-1,4.107321671E0,-5.458165312E-1,4.198030144E0
1.088818508E1,6.504699969E-1,4.004641056E0,-4.485668099E-1,4.081846811E0
1.089815108E1,-1.926160544E-1,3.653271927E0,-1.132207330E-1,3.660097766E0
1.090811708E1,-4.679444826E-1,2.951756907E0,3.525637150E-2,2.988826507E0
1.091808308E1,-2.527268931E-1,2.081677185E0,8.966478623E-2,2.098878405E0
1.092804908E1,2.128719789E-1,1.199176807E0,-1.866009506E-1,1.232136116E0
1.093801408E1,8.030919734E-1,3.601481384E-1,-7.993693435E-1,1.188972139E0
1.094798008E1,1.611963042E0,-5.067922139E-1,-1.269366199E0,2.113422283E0
1.095794608E1,2.602948566E0,-1.607465656E0,-1.940714264E0,3.622935126E0
1.096791208E1,3.593916256E0,-2.687082691E0,-2.699261856E0,5.236665161E0
1.097787708E1,3.707324758E0,-3.615458568E0,-2.887185520E0,5.928881661E0
1.098784308E1,3.358581029E0,-3.253132927E0,-1.868283634E0,5.035218377E0
1.099780908E1,3.063785466E0,-1.894368063E0,-1.027935834E0,3.745939644E0
1.100777508E1,2.633598501E0,-5.770242906E-1,-1.009159255E0,2.878749816E0
1.101774108E1,2.393115385E0,2.329378688E-1,-1.179253589E0,2.678040389E0
1.102770608E1,2.229109173E0,4.945031208E-1,-1.263565761E0,2.609609065E0
1.103767208E1,2.584023761E0,2.683784276E-1,-1.627232169E0,3.065467388E0
1.104763808E1,3.302485766E0,-1.116947413E0,-1.737397220E0,3.895193558E0
1.105760408E1,3.789131983E0,-3.018202912E0,-2.113901775E0,5.285418689E0
1.106757008E1,3.282432740E0,-4.596502072E0,-2.616424352E0,6.224778902E0
1.107753508E1,1.973602805E0,-4.695798903E0,-4.011950076E-1,5.109461107E0
1.108750108E1,1.082631859E0,-3.568974373E0,2.142947234E0,4.301382646E0
1.109746708E1,-5.676886261E-2,-3.035662698E0,2.782006974E0,4.118013298E0
1.110743308E1,-1.065455078E0,-3.409622544E0,2.893412805E0,4.597016214E0
1.111739908E1,-1.453346793E0,-4.061295898E0,2.575074597E0,5.023678976E0
1.112736408E1,-2.381341724E0,-5.069673380E0,2.108773767E0,5.984923006E0
1.113733008E1,-4.141788961E0,-5.931101562E0,1.254302017E0,7.342047064E0
1.114729608E1,-6.484607767E0,-6.857734385E0,2.022206908E-1,9.440315249E0
1.115726208E1,-7.177698119E0,-7.153304120E0,-5.323053700E-1,1.014753463E1
1.116722808E1,-5.191860892E0,-5.617976148E0,4.119480371E-1,7.660729515E0
1.117719308E1,-2.793658721E0,-3.475811271E0,1.862410106E0,4.832635352E0
1.118715908E1,-1.909800619E0,-2.393505102E0,2.676957067E0,4.067223159E0
1.119712508E1,-1.149791223E0,-1.989753107E0,3.021714749E0,3.796300477E0
1.120709108E1,-4.466825446E-1,-1.267082861E0,2.783109174E0,3.090424073E0
1.121705796E1,-3.376995081E-1,-3.479841757E-1,2.288600206E0,2.339406944E0
1.122702296E1,-2.970043489E-1,7.045678514E-1,1.691700645E0,1.856469368E0
1.123698896E1,-3.416188967E-1,1.704007865E0,1.112246836E0,2.063356319E0
1.124695496E1,-3.166796449E-1,2.614848527E0,5.350225711E-1,2.687744030E0
1.125692096E1,-3.089496258E-1,3.427822587E0,1.313775436E-1,3.444223805E0
1.126688696E1,-6.621924949E-1,4.121265526E0,-1.024496867E-1,4.175383141E0
1.127685196E1,-8.821609470E-1,4.672093706E0,-3.032623315E-1,4.764308510E0
1.128681796E1,-1.043154674E0,5.058287097E0,-5.111535790E-1,5.189963200E0
1.129678396E1,-1.139617945E0,5.122826909E0,-6.789856251E-1,5.291796111E0
1.130674996E1,-1.097134415E0,4.912525951E0,-6.967419380E-1,5.081541545E0
1.131671496E1,-1.263339766E0,4.577308586E0,-6.531929722E-1,4.793166210E0
1.132668096E1,-1.449730582E0,4.160101563E0,-5.230363637E-1,4.436409676E0
1.133664696E1,-1.699119592E0,3.611503512E0,-3.032038593E-1,4.002736262E0
1.134661296E1,-1.680835934E0,3.033798020E0,-6.488070488E-3,3.468311111E0
1.135657896E1,-1.382653078E0,2.622155793E0,1.195445698E-1,2.966769529E0
1.136654396E1,-1.188536044E0,2.178749735E0,1.446927866E-1,2.486062014E0
1.137650996E1,-6.444347933E-1,1.727631785E0,7.409123898E-2,1.845398954E0
1.138647596E1,-6.662843764E-2,1.219138616E0,-5.322786190E-2,1.222117637E0
1.139644196E1,6.888613531E-1,8.234739053E-1,-2.622920609E-1,1.105186121E0
1.140640796E1,1.517441924E0,4.967250627E-1,-4.586562536E-1,1.661243914E0
1.141637296E1,2.020786035E0,1.177763718E-1,-6.351217137E-1,2.121515276E0
1.142633896E1,2.512623410E0,-1.708866316E-1,-7.783533541E-1,2.635965210E0
1.143630496E1,3.005076205E0,-4.291248178E-1,-8.116039114E-1,3.142185866E0
1.144627096E1,3.566189052E0,-6.336656839E-1,-8.190007854E-1,3.713488769E0
1.145623696E1,4.045217517E0,-7.063126606E-1,-9.557620431E-1,4.216176398E0
1.146620196E1,4.296958569E0,-8.217963392E-1,-1.020852517E0,4.492364859E0
1.147616796E1,4.614126457E0,-1.079759706E0,-1.053233886E0,4.854415063E0
1.148613396E1,4.664389707E0,-1.402475724E0,-1.082432469E0,4.989501934E0
1.149609996E1,4.485857841E0,-1.538253334E0,-1.074134173E0,4.862397363E0
1.150606596E1,4.235220158E0,-1.275197627E0,-1.140038214E0,4.567593010E0
1.151603096E1,3.874272121E0,-6.661504751E-1,-1.211492943E0,4.113569748E0
1.152599696E1,3.795397567E0,-1.459108347E-1,-1.058737797E0,3.943001190E0
1.153596296E1,4.107719282E0,-3.289403790E-1,-7.265114285E-1,4.184420907E0
1.154592896E1,4.432828273E0,-1.004630002E0,-2.716950414E-1,4.553357677E0
1.155589396E1,4.271437227E0,-1.567605187E0,1.212717643E-1,4.551622661E0
1.156585996E1,3.859814295E0,-1.844193690E0,3.785125617E-1,4.294471856E0
1.157582596E1,3.372264976E0,-1.950735222E0,6.049535161E-1,3.942525552E0
1.158579196E1,2.501184502E0,-1.900926300E0,8.894409498E-1,3.265049757E0
1.159575796E1,1.397171423E0,-1.515259159E0,1.131836763E0,2.351415055E0
1.160572296E1,1.539414006E-1,-1.188872843E0,1.510555658E0,1.928443670E0
1.161568896E1,-1.171268339E0,-1.639731762E0,2.149569206E0,2.946393990E0
1.162565496E1,-2.297212570E0,-2.820821961E0,2.977633175E0,4.701119171E0
1.163562096E1,-3.553209988E0,-4.015018694E0,3.570187671E0,6.441421919E0
1.164558696E1,-4.854454037E0,-4.881885372E0,3.672565985E0,7.802965442E0
1.165555196E1,-5.886128288E0,-4.882682932E0,3.109302531E0,8.255595743E0
1.166551796E1,-6.869069213E0,-4.403261535E0,2.200715970E0,8.450797286E0
1.167548396E1,-7.403173771E0,-4.035099202E0,1.161396192E0,8.511042743E0
1.168544996E1,-6.537799888E0,-3.620892971E0,3.602339463E-1,7.482209685E0
1.169541596E1,-5.883693507E0,-3.024721388E0,2.965605453E-2,6.615713736E0
1.170538096E1,-4.859718577E0,-2.183594738E0,-2.840226531E-2,5.327828575E0
1.171534696E1,-3.682577587E0,-1.129317783E0,-5.670512795E-2,3.852265802E0
1.172531296E1,-3.161446247E0,-1.692494112E-1,-4.124678546E-1,3.192728843E0
1.173527896E1,-2.605705236E0,8.330112988E-1,-1.309658777E0,3.032954618E0
1.174524396E1,-1.973741969E0,1.700699510E0,-2.446185007E0,3.573773534E0
1.175520996E1,-1.567920645E0,2.438671920E0,-3.107944808E0,4.250272557E0
1.176517596E1,-1.479922096E0,2.996084649E0,-3.225107807E0,4.644137487E0
1.177514196E1,-1.621343730E0,3.433119580E0,-2.958970032E0,4.813581743E0
1.178510796E1,-1.425153273E0,3.992077729E0,-2.315064704E0,4.829831366E0
1.179507296E1,-1.091754684E0,4.684386308E0,-1.398045874E0,5.008985490E0
1.180503896E1,-1.004634387E0,5.173520515E0,-6.789623094E-1,5.313717586E0
1.181500496E1,-1.043152043E0,5.344093151E0,-2.002074945E-1,5.448631097E0
1.182497096E1,-1.019861121E0,5.066062725E0,1.216665244E-1,5.169130583E0
1.183493696E1,-1.035604165E0,4.654094222E0,2.824521641E-1,4.776279749E0
1.184490196E1,-7.821741441E-1,4.396056595E0,5.805108391E-2,4.465476448E0
1.185486796E1,-9.394326702E-1,4.073113706E0,5.229398847E-2,4.180373627E0
1.186483396E1,-8.660506985E-1,3.761237256E0,9.230421938E-2,3.860760233E0
1.187479996E1,-6.105995876E-1,3.633123007E0,1.727559865E-1,3.688124085E0
1.188476596E1,-1.756778401E-1,3.450039083E0,-1.882346626E-1,3.459633603E0
1.189473096E1,-1.033635700E-1,2.825133113E0,-4.829753351E-1,2.867982969E0
1.190469696E1,-1.074624681E-1,2.044711087E0,-4.602109551E-1,2.098615195E0
1.191466296E1,2.077372465E-1,1.305572743E0,-4.619148338E-1,1.400371474E0
1.192462896E1,6.931441462E-1,7.419859385E-1,-6.722661511E-1,1.217757660E0
1.193459396E1,1.190104852E0,1.232394254E-1,-9.741519749E-1,1.542890010E0
1.194455996E1,1.545587497E0,-3.854735988E-1,-1.495130703E0,2.184684514E0
1.195452596E1,2.227394769E0,-8.399607146E-1,-1.859516319E0,3.020698992E0
1.196449196E1,2.877798108E0,-1.290224971E0,-1.831611067E0,3.647081234E0
1.197445796E1,3.209605669E0,-1.694097419E0,-1.249554078E0,3.838348604E0
1.198442296E1,3.705344599E0,-1.792377419E0,-7.026751077E-1,4.175637402E0
1.199438896E1,3.800774374E0,-1.163296537E0,-8.850597042E-1,4.072158562E0
1.200435496E1,3.671568450E0,-5.136574298E-1,-1.265927451E0,3.917503178E0
1.201432096E1,3.485476719E0,-3.350401944E-1,-1.495121348E0,3.807385945E0
1.202428696E1,3.717229941E0,-6.089389783E-1,-1.557103588E0,4.075926484E0
1.203425196E1,4.257146047E0,-1.175292100E0,-1.914369049E0,4.813461628E0
1.204421796E1,4.706145551E0,-2.101768802E0,-2.181064648E0,5.596631223E0
1.205418396E1,4.590499905E0,-3.179707101E0,-2.223000879E0,6.010404273E0
1.206414996E1,3.388392181E0,-3.647676727E0,-1.172240438E0,5.114772206E0
1.207411496E1,2.428428767E0,-2.810862983E0,7.028237001E-1,3.780499721E0
1.208408096E1,1.792508397E0,-2.033907187E0,1.699335939E0,3.199626140E0
1.209404696E1,1.042187545E0,-2.172495553E0,2.117174461E0,3.207541038E0
1.210401296E1,6.988288093E-1,-3.210627177E0,2.474498395E0,4.113347892E0
1.211397896E1,4.454174995E-1,-4.339159679E0,2.487547626E0,5.021413811E0
1.212394396E1,-8.216027963E-1,-5.292879143E0,2.162597972E0,5.776368303E0
1.213390996E1,-2.479731068E0,-5.775139949E0,1.859142097E0,6.554213678E0
1.214387596E1,-3.953002540E0,-5.870751280E0,2.081719285E0,7.377364357E0
1.215384196E1,-5.168344560E0,-5.938309425E0,2.857409744E0,8.374968344E0
1.216380796E1,-6.012258577E0,-5.585275009E0,3.576399752E0,8.951714099E0
1.217377296E1,-5.739861943E0,-4.482868452E0,3.665732344E0,8.153509569E0
1.218373896E1,-5.037859849E0,-3.131434243E0,3.496977022E0,6.885837681E0
1.219370496E1,-3.719194314E0,-1.899606584E0,2.967218115E0,5.123016187E0
1.220367096E1,-3.116713293E0,-1.058211547E0,2.368931594E0,4.055311372E0
1.221363579E1,-3.062744662E0,-5.387776530E-1,1.940037741E0,3.665301169E0
1.222360179E1,-2.457771265E0,7.091327727E-2,1.663776682E0,2.968808032E0
1.223356779E1,-1.893609972E0,8.319523680E-1,1.328599078E0,2.458267475E0
1.224353379E1,-1.714530222E0,1.581077172E0,8.241726476E-1,2.473596462E0
1.225349979E1,-1.737228820E0,2.320657566E0,3.601183176E-1,2.921147158E0
1.226346479E1,-1.572415984E0,3.020926545E0,-9.356195547E-2,3.406940424E0
1.227343079E1,-1.321008223E0,3.547753658E0,-5.715595559E-1,3.828615816E0
1.228339679E1,-1.387619411E0,3.820161987E0,-8.711246198E-1,4.156679365E0
1.229336279E1,-1.384065766E0,4.042121708E0,-1.014193708E0,4.391238416E0
1.230332879E1,-1.393534454E0,4.298088836E0,-1.096564019E0,4.649511648E0
1.231329379E1,-1.405903070E0,4.516098763E0,-1.123081654E0,4.861380862E0
1.232325979E1,-1.385044882E0,4.518020743E0,-1.042395925E0,4.839157987E0
1.233322579E1,-1.374387454E0,4.281712539E0,-9.120743521E-1,4.588451020E0
1.234319179E1,-1.222033865E0,3.787073178E0,-8.215291214E-1,4.063274557E0
1.235315779E1,-1.013079813E0,3.146735237E0,-6.880518061E-1,3.376638661E0
1.236312279E1,-6.605798328E-1,2.542881582E0,-4.305410135E-1,2.662325679E0
1.237308879E1,-3.327501324E-1,2.123320470E0,-4.653366244E-1,2.199034025E0
1.238305479E1,-5.090673655E-2,1.747952614E0,-6.963558756E-1,1.882243699E0
1.239302079E1,2.393785769E-1,1.342784423E0,-1.008197388E0,1.696123251E0
1.240298579E1,6.728253642E-1,9.245886362E-1,-1.342904145E0,1.763788440E0
1.241295179E1,1.025468894E0,5.964183354E-1,-1.618721985E0,2.006878708E0
1.242291779E1,1.592410246E0,3.244210660E-1,-1.669391763E0,2.329782882E0
1.243288379E1,2.430684623E0,-7.246805191E-2,-1.359691501E0,2.786079743E0
1.244284979E1,3.312083386E0,-6.306186998E-1,-9.802307403E-1,3.511186210E0
1.245281479E1,4.020258969E0,-1.212376311E0,-7.125678657E-1,4.259118625E0
1.246278079E1,4.418410501E0,-1.571676019E0,-5.648030251E-1,4.723507100E0
1.247274679E1,4.567707458E0,-1.695384391E0,-5.135549574E-1,4.899185478E0
1.248271279E1,4.701212255E0,-1.471156535E0,-5.261418200E-1,4.954041122E0
1.249267879E1,4.719636832E0,-1.158787165E0,-6.363863933E-1,4.901300558E0
1.250264379E1,4.639011037E0,-7.437839574E-1,-7.189029584E-1,4.752942188E0
1.251260979E1,4.737756184E0,-4.290803790E-1,-7.269743818E-1,4.812373155E0
1.252257579E1,4.879274590E0,-5.296875715E-1,-5.680874062E-1,4.940709741E0
1.253254179E1,5.084897776E0,-1.081768225E0,-2.403562313E-1,5.204246247E0
1.254250679E1,5.083923630E0,-1.766422214E0,2.274971808E-1,5.386861969E0
1.255247279E1,4.724640002E0,-2.354447456E0,6.263689435E-1,5.315823927E0
1.256243879E1,4.148859707E0,-2.814858386E0,9.068195325E-1,5.094976571E0
1.257240479E1,3.235029362E0,-2.924970812E0,1.062744236E0,4.488907945E0
1.258237079E1,2.041013308E0,-2.494559607E0,1.082370488E0,3.400013063E0
1.259233579E1,8.241077435E-1,-1.645925133E0,1.126055475E0,2.157828549E0
1.260230179E1,-3.675527599E-1,-1.203453460E0,1.394253370E0,1.878120795E0
1.261226779E1,-1.417401327E0,-1.785131550E0,1.997335046E0,3.030687786E0
1.262223379E1,-2.331824286E0,-3.064003567E0,2.724981419E0,4.717101451E0
1.263219879E1,-3.468518331E0,-4.105822445E0,3.229612502E0,6.270470021E0
1.264216479E1,-4.882517163E0,-4.609827291E0,3.176936690E0,7.428486269E0
1.265213079E1,-6.223254184E0,-4.404903433E0,2.442668492E0,8.006166139E0
1.266209679E1,-7.384498934E0,-3.853335580E0,1.579223166E0,8.477792484E0
1.267206279E1,-7.603149716E0,-3.482162517E0,6.930307102E-1,8.391283153E0
1.268202779E1,-7.093133347E0,-3.167841931E0,-1.843567161E-1,7.770569514E0
1.269199379E1,-6.553646427E0,-2.516189042E0,-7.670523673E-1,7.061859395E0
1.270195979E1,-5.670109338E0,-1.860871119E0,-5.988964585E-1,5.997637717E0
1.271192579E1,-4.768010262E0,-8.563709253E-1,-4.137823087E-1,4.861944963E0
1.272189179E1,-3.903739749E0,3.524865317E-1,-4.753487387E-1,3.948339803E0
1.273185679E1,-2.955306459E0,1.348626961E0,-1.013383795E0,3.402877851E0
1.274182279E1,-2.134921346E0,2.020611788E0,-1.736709003E0,3.414223090E0
1.275178879E1,-1.473196920E0,2.406026330E0,-1.912851697E0,3.408558857E0
1.276175479E1,-1.427694473E0,2.632441045E0,-1.997869043E0,3.599935843E0
1.277171979E1,-1.387383768E0,3.018552575E0,-1.985218007E0,3.870088359E0
1.278168579E1,-1.211712945E0,3.493026643E0,-1.798173180E0,4.111314896E0
1.279165179E1,-1.209528717E0,4.032648634E0,-1.376969000E0,4.429588960E0
1.280161779E1,-1.039351938E0,4.542021224E0,-1.103997585E0,4.788425620E0
1.281158379E1,-1.002215979E0,4.579976671E0,-5.689071127E-1,4.722740568E0
1.282154879E1,-1.069843998E0,4.398348119E0,-8.650370836E-3,4.526599959E0
1.283151479E1,-8.057518718E-1,4.048402203E0,1.373347966E-1,4.130091684E0
1.284148079E1,-4.879662260E-1,3.785967470E0,4.049057237E-1,3.838698916E0
1.285144679E1,-3.215614852E-1,3.482270105E0,7.074078441E-1,3.567917142E0
1.286141279E1,-3.155683815E-1,3.333131608E0,7.392108500E-1,3.428670646E0
1.287137779E1,-9.347358942E-2,3.368871544E0,4.632257064E-1,3.401854031E0
1.288134379E1,9.063710511E-2,3.337941527E0,5.523630738E-2,3.339628688E0
1.289130979E1,1.913846308E-1,3.104173354E0,-1.422300124E-1,3.113318112E0
1.290127579E1,4.899858543E-1,2.469335303E0,-2.130878142E-1,2.526481624E0
1.291124079E1,9.345411819E-1,1.750808979E0,-2.533621931E-1,2.000722795E0
1.292120679E1,1.411157085E0,1.050842886E0,-4.043233045E-1,1.805301201E0
1.293117279E1,1.957986062E0,4.198786157E-1,-7.064898312E-1,2.123472475E0
1.294113879E1,2.563942668E0,-1.889036572E-1,-1.174919633E0,2.826645138E0
1.295110479E1,3.126442475E0,-6.584847754E-1,-1.669228626E0,3.604798046E0
1.296106979E1,3.190055796E0,-9.991049677E-1,-2.253014052E0,4.031220539E0
1.297103579E1,3.611865454E0,-9.395797276E-1,-2.291620293E0,4.379486921E0
1.298100179E1,3.977349469E0,-9.962930417E-1,-1.414043856E0,4.337214389E0
1.299096779E1,3.836050334E0,-8.479836792E-1,-6.262011284E-1,3.978251668E0
1.300093279E1,3.819105980E0,-6.453197694E-1,-4.093758104E-1,3.894816638E0
1.301089879E1,4.068232158E0,-7.080791044E-1,-4.540771894E-1,4.154283933E0
1.302086479E1,3.881826431E0,-6.163976866E-1,-8.396619219E-1,4.019148503E0
1.303083079E1,3.807624972E0,-6.235558480E-1,-1.566690098E0,4.164294380E0
1.304079679E1,3.997001376E0,-1.019186060E0,-2.069500358E0,4.614931415E0
1.305076179E1,4.389002807E0,-1.719477843E0,-2.376298501E0,5.278896121E0
1.306072779E1,4.104236388E0,-2.363837500E0,-2.482151815E0,5.347294801E0
1.307069379E1,3.138722505E0,-2.768929676E0,-1.457058898E0,4.431881220E0
1.308065979E1,1.940286540E0,-2.440872227E0,8.632542676E-1,3.235394414E0
1.309062579E1,1.162620015E0,-1.988250373E0,2.134207401E0,3.140010521E0
1.310059079E1,3.203075498E-1,-2.036647192E0,2.605263187E0,3.322337277E0
1.311055679E1,-3.085987929E-1,-2.800785307E0,2.702278435E0,3.904092762E0
1.312052279E1,-6.058732831E-1,-3.706731851E0,2.240218005E0,4.373273392E0
1.313048879E1,-1.322023592E0,-4.683560096E0,1.171822363E0,5.005661714E0
1.314045379E1,-2.949182670E0,-5.592572334E0,2.513764421E-1,6.327537740E0
1.315041979E1,-4.574655120E0,-6.075318459E0,2.399357434E-1,7.608845707E0
1.316038579E1,-5.987746464E0,-6.199571791E0,1.123472906E0,8.691949694E0
1.317035179E1,-6.717181354E0,-5.928103695E0,2.475773672E0,9.294750886E0
1.318031779E1,-5.938703527E0,-4.608663111E0,3.216936323E0,8.176591867E0
1.319028279E1,-4.599851649E0,-2.806947688E0,3.262100217E0,6.299118061E0
1.320024879E1,-3.246741628E0,-1.297910551E0,2.960072232E0,4.581258628E0
1.321021479E1,-2.644501804E0,-6.548519003E-1,2.712521002E0,3.844475386E0
1.322018046E1,-2.085208318E0,-5.029587793E-1,2.445271087E0,3.252754518E0
1.323014546E1,-1.523599919E0,-1.212858707E-1,2.165413991E0,2.650487640E0
1.324011146E1,-1.125082060E0,5.075751561E-1,1.708580972E0,2.107769228E0
1.325007746E1,-7.897103280E-1,1.245831156E0,1.098616977E0,1.839210954E0
1.326004346E1,-6.453823346E-1,1.989705745E0,4.646459951E-1,2.142741984E0
1.327000946E1,-8.503558946E-1,2.824106342E0,-1.461417997E-1,2.952971250E0
1.327997446E1,-9.416572434E-1,3.413018607E0,-6.367804956E-1,3.597346769E0
1.328994046E1,-8.580835748E-1,3.720870418E0,-9.480032996E-1,3.934449688E0
1.329990646E1,-7.576696327E-1,4.176568492E0,-1.129273928E0,4.392385143E0
1.330987246E1,-7.497846624E-1,4.614851804E0,-1.177058617E0,4.821255148E0
1.331983746E1,-7.743020377E-1,4.690935189E0,-1.088268648E0,4.877370731E0
1.332980346E1,-6.937616122E-1,4.590187079E0,-1.005212384E0,4.749902581E0
1.333976946E1,-6.157425061E-1,4.342901897E0,-9.838665390E-1,4.495323024E0
1.334973546E1,-6.201355192E-1,3.930821713E0,-8.373645508E-1,4.066584167E0
1.335970146E1,-3.994697866E-1,3.368699051E0,-6.235313628E-1,3.449130436E0
1.336966646E1,-1.804766500E-1,2.725022349E0,-4.325099172E-1,2.765028653E0
1.337963246E1,9.776690751E-2,2.119099365E0,-4.507315222E-1,2.168709153E0
1.338959846E1,2.151561937E-1,1.449428866E0,-4.357929826E-1,1.528741884E0
1.339956446E1,2.346130961E-1,8.708533090E-1,-5.227773321E-1,1.042460997E0
1.340952946E1,5.123021914E-1,6.420055676E-1,-7.684592074E-1,1.124790753E0
1.341949546E1,9.999981299E-1,5.377707624E-1,-1.059646308E0,1.553075642E0
1.342946146E1,1.829249084E0,3.739896673E-1,-1.185273882E0,2.211536719E0
1.343942746E1,2.540100354E0,8.355671167E-3,-1.084978346E0,2.762129185E0
1.344939346E1,3.174088511E0,-6.243884915E-1,-8.285684381E-1,3.339344924E0
1.345935846E1,4.017118722E0,-1.108925033E0,-6.957109277E-1,4.225040976E0
1.346932446E1,4.593527593E0,-1.455632177E0,-7.351388490E-1,4.874401492E0
1.347929046E1,4.915349572E0,-1.633528451E0,-7.828883815E-1,5.238510364E0
1.348925646E1,5.041753510E0,-1.615517272E0,-8.029371683E-1,5.354799960E0
1.349922146E1,5.117132306E0,-1.482874355E0,-8.289919227E-1,5.391770303E0
1.350918746E1,5.069568715E0,-1.248505087E0,-8.904701328E-1,5.296435496E0
1.351915346E1,5.027797961E0,-1.034740239E0,-8.170068848E-1,5.197782214E0
1.352911946E1,5.202077147E0,-1.008487410E0,-6.447425030E-1,5.338009591E0
1.353908546E1,5.397923203E0,-1.406884525E0,-3.280140339E-1,5.587887989E0
1.354905046E1,5.353676153E0,-1.979964284E0,6.650564611E-2,5.708461256E0
1.355901646E1,4.867106534E0,-2.336832134E0,3.989100619E-1,5.413745439E0
1.356898246E1,4.258053828E0,-2.544350402E0,7.228760684E-1,5.012712956E0
1.357894846E1,3.417296138E0,-2.539877282E0,1.042617608E0,4.383599089E0
1.358891346E1,2.193931446E0,-2.111243631E0,1.294578223E0,3.308567308E0
1.359887946E1,5.580149925E-1,-1.547916443E0,1.532883251E0,2.248812377E0
1.360884546E1,-9.520761046E-1,-1.548954324E0,2.066957404E0,2.752820611E0
1.361881146E1,-2.283340636E0,-2.373802909E0,2.696143536E0,4.256497936E0
1.362877746E1,-3.725373359E0,-3.437424300E0,3.134157291E0,5.959633748E0
1.363874246E1,-5.028020740E0,-4.257501558E0,3.257877358E0,7.349903193E0
1.364870846E1,-6.710273454E0,-4.430442901E0,2.785839239E0,8.509846908E0
1.365867446E1,-8.492465023E0,-4.210028599E0,1.928638009E0,9.672949268E0
1.366864046E1,-8.839353431E0,-3.824928052E0,9.189478272E-1,9.675159368E0
1.367860546E1,-8.328529562E0,-2.938379647E0,-2.354673743E-2,8.831706181E0
1.368857146E1,-7.583458632E0,-1.853942168E0,-4.120794533E-1,7.817656674E0
1.369853746E1,-5.932637626E0,-1.093904706E0,-2.402457920E-1,6.037427825E0
1.370850346E1,-4.846072345E0,-4.744267058E-1,1.644383222E-1,4.872015788E0
1.371846946E1,-4.357169688E0,1.490695006E-1,2.394165838E-1,4.366287863E0
1.372843446E1,-3.547965328E0,9.085859764E-1,-2.854582176E-1,3.673564051E0
1.373840046E1,-2.515773890E0,1.469645614E0,-1.467864552E0,3.262453500E0
1.374836646E1,-1.793596564E0,1.849780705E0,-3.061256545E0,4.001245922E0
1.375833246E1,-1.011971473E0,2.084532380E0,-4.131741398E0,4.737156160E0
1.376829746E1,-7.834807044E-1,2.226118029E0,-4.327547109E0,4.929209619E0
1.377826346E1,-9.208674681E-1,2.996103360E0,-3.458782425E0,4.667741220E0
1.378822946E1,-3.410818300E-1,4.043376521E0,-2.579209163E0,4.808071382E0
1.379819546E1,2.740566587E-1,4.673657836E0,-1.697063127E0,4.979779903E0
1.380816146E1,2.389321420E-1,4.916740040E0,-5.879106367E-1,4.957525603E0
1.381812646E1,-1.137283444E-1,4.968027722E0,2.184395514E-2,4.969377299E0
1.382809246E1,4.901019216E-2,5.140180276E0,-1.212246211E-1,5.141843121E0
1.383805846E1,1.842407951E-1,4.916986207E0,-7.574351594E-2,4.921019723E0
1.384802446E1,-1.076048478E-1,4.498356557E0,-1.993817215E-1,4.504058568E0
1.385798946E1,-6.645702651E-1,4.098513426E0,-1.417622352E-1,4.154462958E0
1.386795546E1,-8.854073212E-1,3.825090020E0,-2.535808790E-1,3.934407586E0
1.387792146E1,-8.781763619E-1,3.629985391E0,-3.201034820E-1,3.748393509E0
1.388788746E1,-3.326194471E-1,3.364138808E0,-1.070964324E-1,3.382238203E0
1.389785346E1,-3.058582029E-1,2.892538646E0,1.418943091E-1,2.912123461E0
1.390781846E1,6.410068631E-2,2.260078658E0,1.635898912E-1,2.266897900E0
1.391778446E1,1.090075949E-1,1.516225703E0,1.345842663E-1,1.526085176E0
1.392775046E1,1.337588587E-1,8.202509201E-1,-1.955764632E-1,8.537875363E-1
1.393771646E1,6.676067242E-1,8.536993325E-2,-1.113523868E0,1.301123426E0
1.394768146E1,1.323237474E0,-5.506966174E-1,-1.937060924E0,2.409653336E0
1.395764746E1,2.250573132E0,-1.239935408E0,-2.578612747E0,3.640297095E0
1.396761346E1,3.274258040E0,-1.893378714E0,-2.834803823E0,4.726707245E0
1.397757946E1,3.538748654E0,-2.359008284E0,-2.291086442E0,4.830811444E0
1.398754546E1,3.191583965E0,-2.173733994E0,-1.039740193E0,3.999048306E0
1.399751046E1,3.270177560E0,-1.209115904E0,-7.361609423E-1,3.563419071E0
1.400747646E1,3.297652457E0,-3.797977066E-1,-1.181400687E0,3.523416752E0
1.401744246E1,3.023707773E0,-1.239580482E-1,-1.553669518E0,3.401773547E0
1.402740846E1,3.126038432E0,-2.593374628E-1,-2.018130230E0,3.729909090E0
1.403737346E1,3.790796393E0,-6.731595325E-1,-2.629125674E0,4.662143590E0
1.404733946E1,4.286218404E0,-1.727421870E0,-3.122310247E0,5.577138675E0
1.405730546E1,4.234794188E0,-2.998346937E0,-3.404990380E0,6.206248920E0
1.406727146E1,3.231361112E0,-3.296049151E0,-1.098847357E0,4.744797167E0
1.407723746E1,2.266544217E0,-2.792260652E0,2.139988543E0,4.184912567E0
1.408720246E1,1.686791323E0,-2.813576092E0,3.323703557E0,4.669955110E0
1.409716846E1,9.105035707E-1,-3.552641346E0,3.669853461E0,5.188265771E0
1.410713446E1,5.385814789E-1,-4.493938401E0,3.673198653E0,5.829060019E0
1.411710046E1,-1.096376324E-1,-5.254971060E0,3.179856205E0,6.143144694E0
1.412706546E1,-2.223266635E0,-6.348757067E0,2.482416694E0,7.170217812E0
1.413703146E1,-4.660765603E0,-6.936512752E0,1.164633796E0,8.437672490E0
1.414699746E1,-7.195578904E0,-7.622523880E0,1.904572259E-1,1.048405933E1
1.415696346E1,-8.050352955E0,-7.486856198E0,8.250438827E-1,1.102460411E1
1.416692946E1,-5.779642889E0,-5.238097749E0,1.795178820E0,8.004036916E0
1.417689446E1,-3.659680768E0,-2.739214126E0,2.679381908E0,5.298645559E0
1.418686046E1,-2.732533390E0,-1.255650385E0,3.201916580E0,4.392683281E0
1.419682646E1,-1.968767450E0,-5.724897748E-1,3.226739180E0,3.823040093E0
1.420679246E1,-1.095697462E0,-4.478791773E-2,3.011023116E0,3.204499819E0
1.421675767E1,-6.547814414E-1,5.884596902E-1,2.585273311E0,2.731055040E0
1.422672367E1,-5.218987879E-1,1.347694330E0,2.051596184E0,2.509522914E0
1.423668967E1,-5.101555324E-1,2.169939151E0,1.445636947E0,2.656832845E0
1.424665567E1,-4.432961297E-1,2.970582603E0,9.004121536E-1,3.135540544E0
1.425662067E1,-7.030247712E-1,3.868023786E0,3.663139542E-1,3.948422185E0
1.426658667E1,-1.219407588E0,4.580041575E0,-2.427969322E-1,4.745807207E0
1.427655267E1,-1.449288533E0,4.895662581E0,-7.320258645E-1,5.157888253E0
1.428651867E1,-1.482850966E0,5.038215945E0,-1.273313069E0,5.404053392E0
1.429648467E1,-1.476600877E0,4.996138796E0,-1.576715734E0,5.443141145E0
1.430644967E1,-1.439388904E0,4.639746909E0,-1.581432683E0,5.108817978E0
1.431641567E1,-1.376399774E0,4.002281120E0,-1.406811435E0,4.460027905E0
1.432638167E1,-1.330530121E0,3.348495167E0,-1.132403797E0,3.776912581E0
1.433634767E1,-1.172045141E0,2.714372815E0,-8.094733322E-1,3.065412969E0
1.434631267E1,-9.266649824E-1,2.032852349E0,-5.312417614E-1,2.296391620E0
1.435627867E1,-4.369694424E-1,1.644820594E0,-5.379843320E-1,1.784882131E0
1.436624467E1,-3.663333231E-1,1.384320704E0,-6.993813711E-1,1.593636790E0
1.437621067E1,-1.319367202E-1,1.274270259E0,-9.388375698E-1,1.588265712E0
1.438617567E1,3.751519476E-1,1.282307256E0,-1.222186624E0,1.810743225E0
1.439614167E1,9.850124471E-1,1.278658009E0,-1.515151570E0,2.213797666E0
1.440610767E1,1.550585989E0,1.133807859E0,-1.737368423E0,2.590035947E0
1.441607367E1,2.310020165E0,6.356092983E-1,-1.655256119E0,2.912055145E0
1.442603967E1,3.350758624E0,3.187141836E-2,-1.328035406E0,3.604480155E0
1.443600467E1,4.115621209E0,-5.461328655E-1,-1.010266133E0,4.272848781E0
1.444597067E1,4.649291319E0,-1.004948090E0,-8.020105308E-1,4.823800507E0
1.445593667E1,4.956172493E0,-1.189208474E0,-7.096182378E-1,5.146010164E0
1.446590267E1,5.095128649E0,-1.220243155E0,-6.274366450E-1,5.276647236E0
1.447586767E1,5.098139380E0,-1.184740616E0,-5.525355667E-1,5.263072394E0
1.448583367E1,5.122096007E0,-1.061456167E0,-5.130927350E-1,5.256027098E0
1.449579967E1,5.075266827E0,-8.891644496E-1,-5.180464961E-1,5.178544096E0
1.450576567E1,5.114092339E0,-9.506806666E-1,-3.704684740E-1,5.214880734E0
1.451573167E1,5.438712795E0,-1.649445741E0,1.841573261E-2,5.683362320E0
1.452569667E1,5.681604379E0,-2.784476253E0,5.506648962E-1,6.351154868E0
1.453566267E1,5.348217777E0,-3.795280915E0,1.056495974E0,6.642572872E0
1.454562867E1,4.451758049E0,-4.221097963E0,1.480560027E0,6.310933032E0
1.455559467E1,2.623098656E0,-3.627511434E0,1.724494169E0,4.797224813E0
1.456555967E1,6.989214876E-1,-2.301482792E0,1.787252335E0,2.996595601E0
1.457552567E1,-7.288639095E-1,-1.844919915E0,2.254009833E0,3.002587620E0
1.458549167E1,-1.543576055E0,-2.858194440E0,3.197311898E0,4.557927804E0
1.459545767E1,-2.635918969E0,-4.195390095E0,3.992449611E0,6.363098361E0
1.460542267E1,-4.678747253E0,-5.157318465E0,4.138513058E0,8.100364186E0
1.461538867E1,-6.492425494E0,-4.995417835E0,3.544483311E0,8.925757675E0
1.462535467E1,-8.005170350E0,-4.147703712E0,2.389256516E0,9.327097357E0
1.463532067E1,-8.351973973E0,-3.280464567E0,1.312651382E0,9.068625622E0
1.464528667E1,-7.562225053E0,-2.428690723E0,6.753845443E-1,7.971319255E0
1.465525167E1,-7.101300738E0,-1.889601413E0,4.065790506E-1,7.359644842E0
1.466521767E1,-6.394942469E0,-1.556890165E0,4.334470066E-1,6.595989120E0
1.467518367E1,-5.382012345E0,-1.003564054E0,4.423120433E-1,5.492616647E0
1.468514967E1,-4.560697524E0,-3.294134188E-1,1.655440307E-1,4.575574273E0
1.469511467E1,-4.089071926E0,3.636096901E-1,-4.918636145E-1,4.134567818E0
1.470508067E1,-3.185745521E0,1.011257821E0,-1.747528106E0,3.771666924E0
1.471504667E1,-2.532379982E0,1.488484758E0,-3.417882906E0,4.506712639E0
1.472501267E1,-1.658628209E0,1.871181514E0,-4.594863682E0,5.231170046E0
1.473497767E1,-1.162793677E0,2.150481956E0,-5.096664128E0,5.652667247E0
1.474494367E1,-1.320963491E0,2.693716357E0,-4.282442272E0,5.228801408E0
1.475490967E1,-1.154289486E0,3.939427645E0,-2.771739264E0,4.953182101E0
1.476487567E1,-5.781627434E-1,4.749430150E0,-1.618421584E0,5.050806602E0
1.477484167E1,-4.149900511E-1,5.144527096E0,-3.716618177E-1,5.174602235E0
1.478480667E1,-7.341945237E-1,5.340250361E0,4.391913843E-1,5.408345827E0
1.479477267E1,-3.725465745E-1,5.439981641E0,3.847785111E-1,5.466282622E0
1.480473867E1,-2.056266940E-1,5.076393000E0,1.855741064E-1,5.083943940E0
1.481470467E1,-4.652533016E-1,4.491013623E0,-5.101227880E-2,4.515336782E0
1.482466967E1,-9.684930396E-1,3.870125860E0,-2.382272601E-1,3.996574179E0
1.483463567E1,-1.113544918E0,3.687333713E0,-3.833597573E-1,3.870836718E0
1.484460167E1,-1.045709908E0,3.579145605E0,-9.488152586E-2,3.729985922E0
1.485456767E1,-7.866177356E-1,3.391776257E0,2.509673198E-1,3.490830594E0
1.486453267E1,-2.113940951E-1,2.972689939E0,4.140531079E-1,3.008822513E0
1.487449867E1,-1.336337283E-1,2.178395394E0,5.958769564E-1,2.262373491E0
1.488446467E1,-2.116750538E-1,1.201604571E0,5.624180190E-1,1.343493171E0
1.489443067E1,2.559940249E-2,5.538336486E-1,1.749545395E-1,5.813743463E-1
1.490439667E1,4.422181955E-1,6.912929177E-2,-4.403772727E-1,6.279075838E-1
1.491436167E1,8.687459725E-1,-5.160881174E-1,-1.167953260E0,1.544403227E0
1.492432767E1,1.521030653E0,-7.848717570E-1,-1.920569437E0,2.572575535E0
1.493429367E1,2.332015490E0,-1.030084101E0,-2.536543200E0,3.596306565E0
1.494425967E1,2.833807458E0,-1.507996332E0,-2.657064840E0,4.167074658E0
1.495422467E1,3.243435027E0,-1.915843717E0,-2.085742754E0,4.305885595E0
1.496419067E1,3.390054837E0,-1.618258447E0,-1.218379648E0,3.949136762E0
1.497415667E1,3.321040735E0,-6.312121922E-1,-1.183868212E0,3.581799037E0
1.498412267E1,3.165690448E0,-6.489122987E-2,-1.522268801E0,3.513276133E0
1.499408767E1,3.142761177E0,-6.832880795E-2,-1.937228154E0,3.692488261E0
1.500405367E1,3.558634742E0,-2.743922889E-1,-2.268023270E0,4.228841674E0
1.501401967E1,3.952915125E0,-9.394417334E-1,-2.656173724E0,4.854209267E0
1.502398567E1,4.412488149E0,-2.213899688E0,-2.934371381E0,5.742990413E0
1.503395167E1,4.372416887E0,-3.224806091E0,-2.954471769E0,6.184359886E0
1.504391667E1,3.389846091E0,-3.369624665E0,-7.783123505E-1,4.842643599E0
1.505388267E1,2.416727319E0,-2.871797403E0,2.125299168E0,4.313315176E0
1.506384867E1,1.622831847E0,-2.852682855E0,3.319188337E0,4.667803969E0
1.507381467E1,7.986764485E-1,-3.269915605E0,3.603050777E0,4.930741023E0
1.508377967E1,2.671434957E-1,-4.151550595E0,3.511892685E0,5.444274811E0
1.509374567E1,-5.313554898E-1,-5.051154079E0,2.916107018E0,5.856635239E0
1.510371167E1,-2.652342628E0,-6.251720184E0,1.897634318E0,7.051236961E0
1.511367767E1,-5.313780016E0,-7.140764766E0,5.784358084E-1,8.919717904E0
1.512364267E1,-7.985330747E0,-8.162513076E0,3.605389517E-2,1.141899412E1
1.513360867E1,-8.121784880E0,-7.808913234E0,1.165824873E0,1.132703241E1
1.514357467E1,-5.893194648E0,-5.394284481E0,2.309640827E0,8.316398798E0
1.515354067E1,-3.523395035E0,-2.693056206E0,2.781833897E0,5.235022840E0
1.516350667E1,-2.615963299E0,-1.114340724E0,3.282305855E0,4.342643315E0
1.517347167E1,-1.941816756E0,-7.128282130E-1,3.411238130E0,3.989401203E0
1.518343767E1,-1.134713301E0,-3.457873768E-1,3.093864713E0,3.313478843E0
1.519340367E1,-7.050759745E-1,3.077921695E-1,2.594716564E0,2.706366974E0
1.520336967E1,-6.401973161E-1,1.255931636E0,1.953465287E0,2.408992218E0
1.521333467E1,-5.068120944E-1,2.284513587E0,1.383074663E0,2.718226693E0
1.522330092E1,-3.069498780E-1,3.260401601E0,8.740856498E-1,3.389463460E0
1.523326692E1,-1.931911281E-1,4.114286875E0,4.612798262E-1,4.144569746E0
1.524323292E1,-6.283157739E-1,4.727921167E0,2.045794028E-1,4.773873899E0
1.525319792E1,-1.323716653E0,5.115599166E0,2.035379224E-3,5.284087882E0
1.526316392E1,-1.561517943E0,5.279970245E0,-2.483254015E-1,5.511632207E0
1.527312992E1,-1.354303730E0,5.239967104E0,-5.508527380E-1,5.440113288E0
1.528309592E1,-1.312653721E0,5.039163778E0,-7.072756970E-1,5.255137514E0
1.529306092E1,-1.379404950E0,4.629087435E0,-7.914796954E-1,4.894655106E0
1.530302692E1,-1.486673875E0,4.003133644E0,-7.868756709E-1,4.342171289E0
1.531299292E1,-1.702089978E0,3.206691417E0,-6.001050780E-1,3.679688334E0
1.532295892E1,-1.536039871E0,2.385606099E0,-2.778270165E-1,2.850916132E0
1.533292492E1,-1.342901952E0,1.642331434E0,-3.844310403E-2,2.121819046E0
1.534288992E1,-7.801349276E-1,1.168625105E0,-5.671141371E-3,1.405107577E0
1.535285592E1,-2.981837323E-1,8.192416906E-1,-2.091647711E-1,8.965603088E-1
1.536282192E1,1.049317932E-1,5.722658265E-1,-4.637404076E-1,7.440121121E-1
1.537278792E1,6.049960546E-1,4.789179522E-1,-6.903966127E-1,1.035388871E0
1.538275292E1,9.926516882E-1,4.441521621E-1,-8.470002506E-1,1.378418638E0
1.539271892E1,1.531424079E0,4.280512691E-1,-1.063623730E0,1.913055942E0
1.540268492E1,2.160295923E0,3.536583138E-1,-1.266050828E0,2.528801569E0
1.541265092E1,2.773633177E0,1.625596118E-1,-1.204336975E0,3.028183313E0
1.542261592E1,3.653630362E0,-2.738748103E-1,-9.276052147E-1,3.779480608E0
1.543258192E1,4.357364400E0,-8.164666021E-1,-6.577361856E-1,4.481725016E0
1.544254792E1,4.710721875E0,-1.178392879E0,-5.590148664E-1,4.887945169E0
1.545251392E1,4.898370427E0,-1.420441879E0,-6.063849145E-1,5.136087094E0
1.546247892E1,4.874772526E0,-1.626252176E0,-8.130110438E-1,5.202796390E0
1.547244492E1,4.747948465E0,-1.805397415E0,-9.829532039E-1,5.173844939E0
1.548241092E1,4.640082539E0,-1.778421285E0,-1.065838071E0,5.082239569E0
1.549237692E1,4.463797174E0,-1.475741336E0,-1.036160016E0,4.814241921E0
1.550234292E1,4.569941679E0,-1.382486433E0,-7.164166492E-1,4.827927972E0
1.551230792E1,4.840119003E0,-1.757998130E0,-1.963173419E-1,5.153236836E0
1.552227392E1,4.995076357E0,-2.407068304E0,3.639441508E-1,5.556727542E0
1.553223992E1,4.770381016E0,-2.934788287E0,8.001686579E-1,5.657719259E0
1.554220592E1,4.316191523E0,-3.115913978E0,1.046669582E0,5.425306111E0
1.555217092E1,3.680727528E0,-2.908034352E0,1.143565547E0,4.828266883E0
1.556213692E1,2.520599012E0,-2.285075505E0,1.160809570E0,3.594783485E0
1.557210292E1,1.171908609E0,-1.358068460E0,1.178108850E0,2.146080193E0
1.558206892E1,-1.100337812E-1,-6.471487784E-1,1.388888695E0,1.536203366E0
1.559203392E1,-1.013804283E0,-6.269905025E-1,1.873016955E0,2.220159618E0
1.560199992E1,-1.675872232E0,-1.420478132E0,2.548927018E0,3.365016316E0
1.561196592E1,-2.772172250E0,-2.335991305E0,3.089582212E0,4.763120049E0
1.562193192E1,-4.036911255E0,-2.855496535E0,3.129616343E0,5.851923734E0
1.563189692E1,-5.284296016E0,-2.901192525E0,2.534867388E0,6.539591357E0
1.564186292E1,-6.291963646E0,-2.853497372E0,1.822955434E0,7.145237595E0
1.565182892E1,-6.754712877E0,-2.854645765E0,1.388891473E0,7.463522494E0
1.566179492E1,-6.740062678E0,-2.592002286E0,1.006469536E0,7.291083712E0
1.567175992E1,-6.109421175E0,-2.182875531E0,7.618237140E-1,6.532254438E0
1.568172592E1,-5.628149718E0,-1.806005525E0,5.007303324E-1,5.931985845E0
1.569169192E1,-5.311891950E0,-1.022490907E0,7.475431323E-2,5.409923470E0
1.570165792E1,-4.662326809E0,6.184892356E-2,-4.684193496E-1,4.686206702E0
1.571162392E1,-4.059027178E0,1.074573226E0,-1.587560565E0,4.488959545E0
1.572158892E1,-3.320966476E0,1.920677025E0,-2.778542499E0,4.736888956E0
1.573155492E1,-2.368961122E0,2.459405562E0,-3.318321195E0,4.761502711E0
1.574152092E1,-1.861360823E0,2.758589460E0,-3.300333406E0,4.686862545E0
1.575148692E1,-1.751127944E0,3.223225588E0,-2.535772537E0,4.459346884E0
1.576145192E1,-1.845462829E0,3.958031731E0,-1.909352138E0,4.766274627E0
1.577141792E1,-1.152712200E0,4.247839034E0,-1.225668714E0,4.568932662E0
1.578138392E1,-1.015048863E0,4.510664361E0,-3.856728427E-1,4.639521604E0
1.579134992E1,-8.127430952E-1,4.511694641E0,1.008527756E-1,4.585423770E0
1.580131492E1,-4.737694788E-1,4.587373399E0,-1.146685767E-1,4.613198576E0
1.581128092E1,-4.826318112E-1,4.441863683E0,-5.269276126E-1,4.498970899E0
1.582124692E1,-7.581248385E-1,4.216262316E0,-7.719880021E-1,4.352882569E0
1.583121292E1,-6.793809700E-1,4.025780495E0,-8.453389835E-1,4.169300312E0
1.584117792E1,-4.792562136E-1,3.759643305E0,-5.947064169E-1,3.836441062E0
1.585114392E1,-4.805420163E-1,3.375015213E0,-1.257839875E-1,3.411373614E0
1.586110992E1,-6.635929030E-1,2.894113886E0,1.457253318E-1,2.972791045E0
1.587107592E1,-4.602644572E-1,2.309925587E0,2.572669637E-1,2.369342921E0
1.588104192E1,-1.722580960E-1,1.717823666E0,2.820193970E-1,1.749321565E0
1.589100692E1,1.353896472E-1,1.212435368E0,1.858164004E-1,1.234041172E0
1.590097292E1,3.314801171E-1,4.955334002E-1,2.614934043E-1,6.510078488E-1
1.591093892E1,7.541072166E-1,1.821407676E-3,9.224921901E-2,7.597308274E-1
1.592090492E1,1.213156038E0,-3.996589440E-1,-4.270630165E-1,1.346795331E0
1.593086992E1,1.962771716E0,-7.312820256E-1,-1.148285565E0,2.388682890E0
1.594083592E1,2.928481188E0,-1.134322414E0,-1.889580363E0,3.665133471E0
1.595080192E1,3.396652250E0,-1.587485136E0,-2.254280559E0,4.374829871E0
1.596076792E1,3.493254392E0,-1.859154376E0,-1.999064798E0,4.433457039E0
1.597073292E1,3.382392938E0,-1.709209548E0,-1.525309353E0,4.085161917E0
1.598069892E1,3.442351457E0,-9.826199126E-1,-1.316792380E0,3.814350222E0
1.599066492E1,3.500396474E0,-3.215635318E-1,-1.232724037E0,3.725021763E0
1.600063092E1,3.460305040E0,3.736826885E-1,-1.402372813E0,3.752332505E0
1.601059592E1,3.736172581E0,3.602925646E-1,-1.760405429E0,4.145820011E0
1.602056192E1,4.541839961E0,-5.632038116E-1,-2.020758553E0,5.002896550E0
1.603052792E1,5.193245512E0,-1.855214522E0,-2.293976721E0,5.972767288E0
1.604049392E1,4.978645681E0,-3.013760197E0,-2.394141864E0,6.292978517E0
1.605045892E1,3.915503762E0,-3.333873035E0,-8.560879201E-1,5.213325776E0
1.606042492E1,3.088064860E0,-2.657422689E0,1.146674657E0,4.232363724E0
1.607039092E1,2.175665914E0,-2.107390316E0,2.031976436E0,3.647402411E0
1.608035692E1,1.072964072E0,-2.571725312E0,2.549593016E0,3.776962738E0
1.609032292E1,2.086479503E-1,-3.288189908E0,2.998550420E0,4.455000725E0
1.610028792E1,-6.090237629E-1,-3.800620008E0,3.262023618E0,5.045435608E0
1.611025392E1,-2.289106575E0,-4.906187569E0,3.334740762E0,6.358551826E0
1.612021992E1,-4.957506827E0,-6.319434450E0,3.326827725E0,8.693670595E0
1.613018592E1,-8.632170793E0,-8.213459866E0,3.200860573E0,1.233777954E1
1.614015092E1,-1.122808194E1,-9.627769185E0,1.752543848E0,1.489413218E1
1.615011692E1,-8.371928181E0,-7.490510123E0,-5.408861224E-1,1.124675425E1
1.616008292E1,-3.688677987E0,-3.826917860E0,2.865633048E-1,5.322946940E0
1.617004892E1,-2.882764733E0,-1.724184852E0,2.356137886E0,4.102990573E0
1.618001392E1,-2.566336518E0,-9.205949879E-1,2.976000633E0,4.036106790E0
1.618997992E1,-1.948053397E0,-2.324484569E-1,2.582068452E0,3.242841626E0
1.619994592E1,-1.325253886E0,4.972834718E-1,2.046718436E0,2.488502576E0
1.620991192E1,-8.713874522E-1,1.184414926E0,1.445021235E0,2.061611306E0
1.621987654E1,-1.151122634E0,1.859478897E0,9.427068186E-1,2.381478791E0
1.622984254E1,-8.863379055E-1,2.700929482E0,3.168261176E-1,2.860243650E0
1.623980854E1,-6.478799728E-1,3.555747387E0,-3.297940360E-1,3.629304623E0
1.624977454E1,-9.242521289E-1,4.161939343E0,-6.453776568E-1,4.311901369E0
1.625973954E1,-1.025905973E0,4.509103739E0,-7.916499225E-1,4.691610512E0
1.626970554E1,-1.249003855E0,4.776675836E0,-1.015286552E0,5.040580270E0
1.627967154E1,-1.602854542E0,4.815145837E0,-1.139181378E0,5.201202392E0
1.628963754E1,-1.336871134E0,4.636149117E0,-1.156171047E0,4.961636278E0
1.629960254E1,-1.520541533E0,4.228402889E0,-1.074393643E0,4.620147103E0
1.630956854E1,-1.882514003E0,3.720394455E0,-8.016444220E-1,4.245918940E0
1.631953454E1,-1.772458295E0,3.119153920E0,-4.576177150E-1,3.616648111E0
1.632950054E1,-1.599357030E0,2.666016927E0,-2.935319068E-1,3.122779234E0
1.633946654E1,-1.074859740E0,2.361630176E0,-2.813884825E-1,2.609942533E0
1.634943154E1,-5.482083347E-1,1.964677323E0,-3.480537575E-1,2.069210183E0
1.635939754E1,-5.023021370E-2,1.720149103E0,-5.212208764E-1,1.798084318E0
1.636936354E1,3.341446933E-1,1.565913003E0,-6.609938888E-1,1.732238185E0
1.637932954E1,9.854689685E-1,1.347507804E0,-7.377426872E-1,1.825154964E0
1.638929454E1,1.781847169E0,1.043773602E0,-8.383002515E-1,2.228719358E0
1.639926054E1,2.538481844E0,7.241244489E-1,-1.043317593E0,2.838442864E0
1.640922654E1,3.128766451E0,2.693970126E-1,-1.216440711E0,3.367711724E0
1.641919254E1,3.837490211E0,-3.695212251E-1,-1.216972369E0,4.042758810E0
1.642915754E1,4.637029708E0,-8.859911656E-1,-1.034869462E0,4.833009380E0
