"Time (s)","Linear Acceleration x (m/s^2)","Linear Acceleration y (m/s^2)","Linear Acceleration z (m/s^2)","Absolute acceleration (m/s^2)"
-2.368416637E-3,-1.176832549E-1,1.062398154E-1,-1.526269466E-1,2.200709696E-1
7.599583361E-3,-3.821418554E-2,9.377647519E-2,-1.049043113E-1,1.458055754E-1
1.756658335E-2,7.714377791E-3,6.256930053E-2,-1.906110442E-1,2.007660309E-1
2.753458335E-2,3.252513707E-2,9.798413157E-2,-3.560790610E-1,3.707439444E-1
3.750158334E-2,3.846912414E-2,1.312156123E-1,-5.616911370E-1,5.780954452E-1
4.746958334E-2,4.149710476E-2,1.593021280E-1,-7.468484831E-1,7.647756758E-1
5.743658333E-2,8.191773713E-2,1.420610279E-1,-8.358173776E-1,8.517526284E-1
6.740358332E-2,9.538621366E-2,9.021669030E-2,-8.048569554E-1,8.154951255E-1
7.737158332E-2,1.204147817E-1,6.117181599E-2,-6.692226022E-1,6.827156085E-1
8.733858337E-2,1.370311068E-1,8.304858863E-2,-5.137042075E-1,5.381139332E-1
9.730658337E-2,3.259705782E-2,7.246688247E-2,-5.055005640E-1,5.117077656E-1
1.072735834E-1,-7.246278942E-2,1.303016925E-1,-6.090535837E-1,6.270372037E-1
1.172415834E-1,-1.746108694E-1,2.298119473E-1,-7.440815806E-1,7.980976667E-1
1.272085833E-1,-1.905167578E-1,3.998191577E-1,-7.625120044E-1,8.818030113E-1
1.371755833E-1,-1.373519728E-1,5.289595932E-1,-7.011255956E-1,8.889549575E-1
1.471435833E-1,-1.418651462E-2,6.026181382E-1,-6.791698855E-1,9.080867861E-1
1.571105833E-1,1.058039054E-1,5.543242300E-1,-5.732428962E-1,8.044111115E-1
1.670785833E-1,2.782507204E-1,4.646688724E-1,-3.866412878E-1,6.654563169E-1
1.770455833E-1,4.286786753E-1,3.010491604E-1,-2.042011428E-1,5.622224740E-1
1.870135834E-1,5.985970080E-1,1.592734766E-1,-6.433048189E-2,6.227558344E-1
1.969805834E-1,8.411137855E-1,1.129261065E-1,1.136558390E-1,8.562373242E-1
2.069475834E-1,9.722263406E-1,1.495384473E-1,2.365660661E-1,1.011706137E0
2.169155834E-1,1.015071813E0,2.166212136E-1,4.081871080E-1,1.115308142E0
2.268825833E-1,1.050207147E0,4.584842724E-1,5.317820442E-1,1.263303219E0
2.368505833E-1,1.028076459E0,6.878857452E-1,4.537948054E-1,1.317595435E0
2.468175833E-1,9.646938112E-1,8.597295660E-1,2.928273904E-1,1.324959228E0
2.567845833E-1,9.115049064E-1,1.012689804E0,-2.257317603E-2,1.362678018E0
2.667525833E-1,1.014040511E0,1.185401351E0,-5.862131900E-1,1.666463449E0
2.767195834E-1,1.174336081E0,1.362732784E0,-1.232475531E0,2.180619592E0
2.866875834E-1,1.731166135E0,1.620816604E0,-2.207406939E0,3.239850004E0
2.966545834E-1,2.773401042E0,1.934494581E0,-3.419807809E0,4.809273134E0
3.066225834E-1,3.333024311E0,1.712995035E0,-3.203201798E0,4.929899067E0
3.165895834E-1,3.765051687E0,1.277154105E0,-3.167047879E0,5.083003943E0
3.265565833E-1,4.069274424E0,9.653355432E-1,-3.036756712E0,5.168438678E0
3.365245833E-1,4.210568297E0,7.565694791E-1,-2.596625095E0,5.004372552E0
3.464915833E-1,4.090813227E0,5.838737190E-1,-1.711132697E0,4.472542508E0
3.564595833E-1,4.067655037E0,5.586763126E-1,-9.257194877E-1,4.208906425E0
3.664265833E-1,4.177287115E0,6.886277568E-1,-5.933701819E-1,4.275046666E0
3.763945833E-1,4.031987314E0,7.022745734E-1,-4.158177245E-1,4.113759310E0
3.863615834E-1,3.999846047E0,6.506471676E-1,-2.960720104E-1,4.063221477E0
3.963285834E-1,4.009022959E0,6.536263239E-1,-6.523691726E-1,4.114009966E0
4.062965834E-1,3.818048218E0,6.331622386E-1,-1.282998982E0,4.077311983E0
4.162635833E-1,3.471949770E0,2.694598702E-1,-1.197397499E0,3.682499776E0
4.262315833E-1,3.139764771E0,-1.839797169E-1,-7.064699507E-1,3.223518442E0
4.361985833E-1,3.200661183E0,-1.885881999E-1,-8.250070453E-2,3.207273590E0
4.461655833E-1,3.189028147E0,-4.033526301E-2,1.148987816E0,3.389941070E0
4.561335833E-1,3.152333361E0,5.935216248E-2,2.015375022E0,3.741986742E0
4.661005833E-1,3.587260956E0,1.463142926E-1,2.231702705E0,4.227333202E0
4.760685833E-1,4.175339407E0,-2.070817736E-1,2.267001176E0,4.755590012E0
4.860355834E-1,4.682456142E0,-9.209616083E-1,2.176700871E0,5.245149424E0
4.960035834E-1,5.205267388E0,-1.449581478E0,1.894021908E0,5.725680224E0
5.059705834E-1,5.231949987E0,-1.866972688E0,1.396237915E0,5.727858937E0
5.159375833E-1,4.696648504E0,-2.298443409E0,1.164636135E0,5.357025910E0
5.259055833E-1,3.959616911E0,-2.402798228E0,9.430857182E-1,4.726670718E0
5.358725833E-1,3.161561437E0,-2.328000938E0,6.280564499E-1,3.976117955E0
5.458405833E-1,2.052894266E0,-2.406809126E0,7.688685125E-1,3.255497477E0
5.558075833E-1,1.682455612E0,-1.916069127E0,2.966789514E-1,2.567098788E0
5.657755833E-1,2.162085755E0,-1.223306219E0,-1.165870482E-1,2.486902785E0
5.757425834E-1,2.751510821E0,-7.014656112E-1,7.353282988E-2,2.840470538E0
5.857095834E-1,2.702909934E0,-4.462403855E-1,6.758129990E-1,2.821626446E0
5.956775834E-1,2.285703496E0,-2.794436437E-1,1.086315604E0,2.546097173E0
6.056445834E-1,1.246553872E0,-3.150094608E-1,1.397049508E0,1.898650796E0
6.156125834E-1,-3.318289036E-1,-4.087387197E-1,1.568144301E0,1.654162722E0
6.255795833E-1,-1.546148829E0,-3.880965136E-1,1.488552586E0,2.181051102E0
6.355475833E-1,-2.454027877E0,-4.861326854E-1,1.470807163E0,2.902042647E0
6.455145833E-1,-2.874361407E0,-6.190045215E-1,1.577269758E0,3.336600063E0
6.554815833E-1,-2.749711048E0,-9.153767864E-1,1.996702523E0,3.519324719E0
6.654495833E-1,-1.951435134E0,-1.198930054E0,2.540934459E0,3.420801117E0
6.754165834E-1,-1.103052675E0,-1.397614495E0,3.001021453E0,3.489438528E0
6.853845834E-1,-3.411487806E-1,-1.456753673E0,3.416678964E0,3.729907358E0
6.953515834E-1,8.969804227E-2,-1.712481065E0,3.951503899E0,4.307553853E0
7.053195834E-1,2.754213989E-1,-1.941099011E0,4.078190843E0,4.524971035E0
7.152865833E-1,2.603209645E-1,-2.005143418E0,3.715891806E0,4.230392304E0
7.252535833E-1,-9.287191093E-2,-2.139419316E0,2.920039271E0,3.621100598E0
7.352215833E-1,-4.402824748E-1,-2.141962563E0,1.881427298E0,2.884721989E0
7.451885833E-1,-8.480421513E-1,-2.341751835E0,1.254476849E0,2.788671604E0
7.551565833E-1,-1.036217830E0,-2.448012847E0,9.765908486E-1,2.832003527E0
7.651235833E-1,-8.518165290E-1,-2.404642002E0,9.330133045E-1,2.716322584E0
7.750905834E-1,-3.847766107E-1,-2.277774964E0,1.122090624E0,2.568150929E0
7.850585834E-1,1.189504927E-1,-2.270603500E0,1.574817435E0,2.765834310E0
7.950255834E-1,5.639814913E-1,-2.271335425E0,1.989628562E0,3.071752195E0
8.049935834E-1,8.051247579E-1,-2.249316711E0,2.097298021E0,3.179042393E0
8.149605833E-1,7.685229421E-1,-2.367407225E0,1.912302351E0,3.138812636E0
8.249285833E-1,5.291537207E-1,-2.386910320E0,1.238020445E0,2.740445066E0
8.348955833E-1,2.549163830E-1,-2.222623441E0,5.944466543E-1,2.314822703E0
8.448625833E-1,1.891398847E-2,-2.115218568E0,1.645055652E-1,2.121690225E0
8.548305833E-1,-1.752802294E-1,-2.028694979E0,-3.616485339E-1,2.068118986E0
8.647975834E-1,6.520756423E-2,-1.320047379E0,-7.171849734E-1,1.503705887E0
8.747655834E-1,3.355623507E-1,-1.076865188E0,-5.136255625E-1,1.239375626E0
8.847320834E-1,5.334391451E-1,-1.192708909E0,-3.529452458E-1,1.353396546E0
8.947000834E-1,4.224484670E-1,-1.507154772E0,-2.069215599E-1,1.578858684E0
9.046670833E-1,4.128958708E-1,-1.619474376E0,2.529993734E-1,1.690322140E0
9.146340833E-1,3.873651731E-1,-1.617762311E0,5.919548634E-1,1.765677556E0
9.246020833E-1,-2.556987405E-2,-1.766388008E0,1.447209263E-1,1.772491060E0
9.345690833E-1,-2.067183691E-1,-1.594072317E0,3.486010569E-1,1.644786227E0
9.445370833E-1,-2.574464732E-1,-1.490717225E0,8.044549593E-1,1.713378042E0
9.545040833E-1,-5.686113167E-1,-1.719280500E0,8.520568496E-1,2.001310856E0
9.644710834E-1,-5.795783544E-1,-2.049054399E0,9.537437305E-1,2.333272831E0
9.744390834E-1,2.779766321E-2,-2.234901717E0,9.740829778E-1,2.438113213E0
9.844060834E-1,8.723671532E-1,-2.110253697E0,1.224856024E0,2.591228935E0
9.943740834E-1,1.559509717E0,-1.843094706E0,1.496079414E0,2.840303200E0
1.004341083E0,1.574968586E0,-1.599934735E0,1.202886573E0,2.547008698E0
1.014309083E0,8.741716039E-1,-1.556728489E0,8.998324022E-1,1.999319368E0
1.024276083E0,3.562761122E-1,-1.291777115E0,4.012891477E-1,1.398804404E0
1.034243083E0,-8.838475764E-2,-1.087717474E0,-5.618267924E-2,1.092747758E0
1.044211083E0,-5.770938724E-1,-9.252046403E-1,-5.347208548E-1,1.214482341E0
1.054178083E0,-1.063357682E0,-7.499042380E-1,-1.000446319E0,1.641334446E0
1.064146083E0,-1.723096685E0,-6.478548297E-1,-1.722677147E0,2.521189128E0
1.074113083E0,-2.429250301E0,-4.632690489E-1,-2.890420784E0,3.803998889E0
1.084081083E0,-3.910215540E0,-1.789546198E-1,-3.115844396E0,5.003028745E0
1.094048083E0,-3.265562938E0,4.149684164E-1,-2.378778305E0,4.061365080E0
1.104015083E0,-1.992095502E0,4.497181267E-1,-1.138786179E0,2.338273903E0
1.113983083E0,-8.082138419E-1,1.333423908E-1,1.871030071E-1,8.402364802E-1
1.123950083E0,1.320185519E0,-2.550649023E-1,1.079649486E0,1.724410312E0
1.133918083E0,5.026342589E-1,-1.706922702E0,1.583156442E0,2.381724297E0
1.143885083E0,9.545889455E-1,-2.077878980E0,1.849784213E-1,2.294131235E0
1.153852083E0,6.880985838E-1,-1.764482985E0,-8.187885314E-2,1.895675081E0
1.163820083E0,-7.382361192E-1,-1.163421960E0,-6.377277446E-1,1.518301650E0
1.173787083E0,-2.407145487E0,-1.314341520E-1,-2.300901286E0,3.332532230E0
1.183755083E0,-2.737631870E0,5.402238156E-1,-3.186475253E0,4.235574880E0
1.193722083E0,-2.114746698E0,4.485252947E-1,-2.648922007E0,3.419081212E0
1.203690083E0,-1.349199988E0,-1.569176334E-1,-1.217573317E0,1.824129528E0
1.213657083E0,-5.318978190E-1,-6.224059930E-1,1.249032506E-1,8.281940184E-1
1.223624083E0,-2.515068716E-1,-7.993664199E-1,9.655828804E-1,1.278511900E0
1.233592083E0,-2.499889344E-1,-5.234918618E-1,1.219922143E0,1.350832422E0
1.243559083E0,-2.423787832E-2,-3.902662691E-1,5.388323244E-1,6.657593480E-1
1.253527083E0,-9.715616584E-2,-5.321912031E-1,-4.142290360E-1,6.813607645E-1
1.263494083E0,-3.997799814E-1,-7.937529467E-1,-9.699583519E-1,1.315555768E0
1.273462083E0,-2.927829516E-1,-6.342347641E-1,-9.289190841E-1,1.162267722E0
1.283429083E0,-2.591544449E-1,-2.738593152E-1,-8.505944610E-1,9.304143635E-1
1.293396083E0,6.066492087E-1,-3.549332991E-1,-4.244283342E-1,8.210604850E-1
1.303364083E0,1.079329351E0,-4.593989231E-1,-1.147849363E-1,1.178632598E0
1.313331083E0,7.352680725E-1,-1.118895413E-1,1.474410510E-1,7.582066152E-1
1.323299083E0,6.253415877E-1,3.287367497E-1,6.211076188E-1,9.406883788E-1
1.333266083E0,1.657685637E-1,2.200988451E-1,1.337410832E0,1.365500074E0
1.343233083E0,-2.421998584E-1,-1.198568112E-1,1.501301855E0,1.525429017E0
1.353201083E0,-1.951408821E-1,-4.110105823E-1,1.340957753E0,1.416042852E0
1.363168083E0,-2.984494883E-1,-7.840910076E-1,1.473467939E0,1.695576177E0
1.373136083E0,1.022303796E-1,-7.968645425E-1,1.104863557E0,1.366077461E0
1.383103083E0,3.716268075E-1,-6.677641605E-1,5.402844805E-1,9.359074622E-1
1.393071083E0,4.942937905E-1,-4.541558710E-1,2.603502005E-1,7.199764811E-1
1.403038083E0,8.768677551E-1,-1.974549908E-1,-7.172019303E-2,9.016813846E-1
1.413005083E0,1.166865678E0,1.526092587E-1,-4.169649482E-1,1.248489032E0
1.422973083E0,1.196332721E0,3.956440265E-1,-5.958935478E-1,1.393856268E0
1.432940083E0,9.579978722E-1,5.469342265E-1,-6.543002155E-1,1.282577773E0
1.442908083E0,1.117031613E0,6.525964831E-1,-9.891930601E-1,1.628540667E0
1.452875083E0,1.323379853E0,5.689052854E-1,-1.145334183E0,1.840320041E0
1.462842083E0,1.780774789E0,7.114377451E-1,-1.009828761E0,2.167269398E0
1.472810083E0,2.199658209E0,7.248410252E-1,-6.016638726E-1,2.392883232E0
1.482777083E0,2.756660464E0,7.577750288E-1,-2.497983152E-1,2.869808200E0
1.492745083E0,2.726295288E0,7.407290795E-1,-1.783383232E-1,2.830754339E0
1.502712083E0,1.869958861E0,3.289266381E-1,-5.119512123E-1,1.966477287E0
1.512680083E0,1.475784606E0,9.561008893E-2,-5.963660029E-1,1.594595215E0
1.522647083E0,7.103671199E-1,-1.257664458E-1,-5.840754479E-1,9.282148312E-1
1.532614083E0,2.246652281E-1,-4.194977427E-1,-5.868397191E-1,7.555353578E-1
1.542582083E0,-1.856251234E-1,-7.198615363E-1,-4.861439413E-1,8.882529198E-1
1.552549083E0,-3.284427810E-1,-8.579811023E-1,-3.028234980E-1,9.673201658E-1
1.562517083E0,-7.777106720E-1,-9.428491983E-1,-5.996728957E-2,1.223680749E0
1.572484083E0,-5.032546484E-1,-9.443984912E-1,9.377939880E-2,1.074219869E0
1.582452083E0,-6.585368156E-2,-6.137105256E-1,5.079949862E-1,7.993974121E-1
1.592419083E0,7.809722489E-1,-1.802252197E-1,1.124268127E0,1.380716338E0
1.602386083E0,1.249145942E0,-2.140361595E-1,1.470123332E0,1.940989354E0
1.612354083E0,2.222374057E0,-6.287573849E-1,1.153592791E0,2.581677483E0
1.622321083E0,3.226994703E0,-7.570172296E-1,8.888808596E-1,3.431716638E0
1.632289083E0,1.806071599E0,-5.631596652E-1,1.767789001E0,2.589231812E0
1.642256083E0,4.528879023E-1,1.077328434E0,2.430219769E0,2.696611232E0
1.652223083E0,-3.896257067E-1,3.142725509E0,9.910270393E-1,3.318232422E0
1.662191083E0,-1.002510971E0,4.677901161E0,-1.466948293E0,5.003970904E0
1.672158083E0,-1.489315063E0,5.044012874E0,-2.248768096E0,5.719884893E0
1.682126083E0,-2.541435565E0,5.109142671E0,-1.437483004E0,5.884606270E0
1.692093083E0,-2.723728361E0,4.382927550E0,5.011745015E-1,5.184585419E0
1.702061083E0,-3.241212208E0,3.112203628E0,1.640919916E0,4.783710502E0
1.712028083E0,-3.216916443E0,2.250174936E0,1.441230485E0,4.181983256E0
1.721995083E0,-2.223886147E0,2.290175154E0,1.415013909E0,3.491824193E0
1.731963083E0,-1.523040633E0,2.304927971E0,1.740916659E0,3.265445841E0
1.741930083E0,-8.058351946E-1,1.242198281E0,1.962294583E0,2.458256894E0
1.751898083E0,-4.449029446E-2,3.370577762E-1,2.376302009E0,2.400499650E0
1.761865083E0,7.482904065E-1,2.989982495E-1,2.797973381E0,2.911699423E0
1.771832083E0,1.331116304E0,8.918439361E-1,2.614362039E0,3.066291750E0
1.781800083E0,1.286973335E0,1.353286607E0,2.525387297E0,3.140902101E0
1.791767083E0,7.625389016E-1,1.256757848E0,3.016931142E0,3.356006463E0
1.801735083E0,4.302141541E-1,8.579198527E-1,3.351508822E0,3.486218879E0
1.811702083E0,2.745121568E-1,3.120819792E-1,3.477689397E0,3.502438526E0
1.821670083E0,2.184654254E-1,-1.735599786E-2,3.376049001E0,3.383154627E0
1.831637083E0,4.860907316E-2,-2.417504999E-1,3.069487671E0,3.079376675E0
1.841604083E0,-1.128372288E-1,-1.884589764E-1,2.574394566E0,2.583748518E0
1.851572083E0,-4.475406235E-1,-9.231847197E-2,2.012873583E0,2.064091900E0
1.861539083E0,-6.721859711E-1,3.050346226E-2,1.625887309E0,1.759623250E0
1.871507083E0,-9.030597728E-1,-1.684115052E-2,1.446490055E0,1.705325206E0
1.881474083E0,-1.015743805E0,-3.815922171E-2,1.432060881E0,1.756129258E0
1.891441542E0,-9.085701889E-1,-1.007124424E-2,1.484698101E0,1.740669317E0
1.901409542E0,-4.962075841E-1,-2.126196715E-1,1.595400512E0,1.684260040E0
1.911376542E0,5.927497923E-2,-4.960125795E-1,1.844266781E0,1.910722889E0
1.921344542E0,2.545135099E-1,-8.452688169E-1,2.084135939E0,2.263377810E0
1.931311542E0,5.559304601E-1,-9.564790580E-1,2.268078234E0,2.523507428E0
1.941278542E0,6.478890359E-1,-7.859903294E-1,2.458076490E0,2.660767000E0
1.951246542E0,7.258107859E-1,-6.236634368E-1,2.633690010E0,2.802156393E0
1.961213542E0,6.871180058E-1,-5.679125744E-1,2.839041300E0,2.975703505E0
1.971181542E0,5.717290521E-1,-6.549442863E-1,3.122217277E0,3.240997817E0
1.981148542E0,6.570989853E-1,-6.219145346E-1,3.198604717E0,3.324098209E0
1.991116542E0,5.766518229E-1,-7.380405298E-1,3.049560360E0,3.190148827E0
2.001083542E0,4.901814437E-1,-1.044392822E0,2.730654972E0,2.964373592E0
2.011050542E0,5.404370928E-1,-1.392882782E0,2.290735610E0,2.734897499E0
2.021018542E0,3.714554840E-1,-1.427813756E0,1.870502068E0,2.382311752E0
2.030985542E0,2.331986547E-2,-1.250392861E0,1.496647471E0,1.950379393E0
2.040953542E0,-3.867465377E-1,-1.181155688E0,1.455478395E0,1.913927638E0
2.050920542E0,-8.610060132E-1,-1.215168357E0,1.734144999E0,2.285874968E0
2.060888542E0,-1.239111536E0,-1.327937173E0,1.945569792E0,2.661589065E0
2.070855542E0,-1.621092592E0,-1.581208150E0,2.087793372E0,3.080104149E0
2.080822542E0,-1.851451254E0,-1.709588447E0,2.195366938E0,3.342184973E0
2.090790542E0,-1.981882755E0,-1.808328331E0,2.043721154E0,3.372640918E0
2.100757542E0,-1.862794853E0,-1.996200832E0,1.727352288E0,3.230877335E0
2.110725542E0,-1.558073641E0,-2.096901288E0,1.351870412E0,2.941452378E0
2.120692542E0,-1.150732625E0,-2.201074697E0,9.175240302E-1,2.647785064E0
2.130659542E0,-7.879240036E-1,-2.281027477E0,4.973653328E-1,2.463997334E0
2.140627542E0,-2.629305768E-1,-2.333119445E0,-3.020262301E-2,2.348082415E0
2.150594542E0,1.363979995E-1,-2.356609756E0,-4.873379427E-1,2.410334464E0
2.160562542E0,3.212974834E-1,-2.350124025E0,-7.849653125E-1,2.498496657E0
2.170529542E0,4.370928186E-1,-2.291460664E0,-1.010132232E0,2.542087574E0
2.180496542E0,5.679365480E-1,-2.241932409E0,-1.206657150E0,2.608607737E0
2.190464542E0,4.170982647E-1,-2.232216675E0,-1.291309045E0,2.612324884E0
2.200431542E0,8.534888327E-2,-2.140828203E0,-1.286179867E0,2.498937470E0
2.210399542E0,-1.617287225E-1,-2.077588812E0,-1.325257394E0,2.469582679E0
2.220366542E0,-3.655398560E-1,-2.047400222E0,-1.296389691E0,2.450733214E0
2.230334542E0,-5.713384581E-1,-2.103359245E0,-1.171815931E0,2.474611146E0
2.240301542E0,-6.455706149E-1,-2.213065290E0,-1.008693817E0,2.516323233E0
2.250268542E0,-6.100756770E-1,-2.318345577E0,-8.636740977E-1,2.548107434E0
2.260236542E0,-6.191335988E-1,-2.377689553E0,-7.547936797E-1,2.570301057E0
2.270203542E0,-6.107907915E-1,-2.374368920E0,-6.818718839E-1,2.544728360E0
2.280171542E0,-5.512094182E-1,-2.394593269E0,-6.580842412E-1,2.543812811E0
2.290138542E0,-4.861866260E-1,-2.342398099E0,-6.626111555E-1,2.482389943E0
2.300105542E0,-4.592490882E-1,-2.138436107E0,-6.591086733E-1,2.284347380E0
2.310073542E0,-7.209429789E-1,-1.867587816E0,-6.636800265E-1,2.109055287E0
2.320040542E0,-4.687952524E-1,-2.042096213E0,-1.029720404E0,2.334577058E0
2.330008542E0,-4.565237010E-1,-2.350071400E0,-1.419579999E0,2.783245740E0
2.339975542E0,-7.041790116E-1,-2.459488592E0,-1.618443219E0,3.027261249E0
2.349942542E0,-8.939293456E-1,-2.401582446E0,-1.746190263E0,3.100949589E0
2.359910542E0,-6.116175878E-1,-2.147517418E0,-1.930813758E0,2.951939854E0
2.369877542E0,-1.105918980E-1,-1.958252110E0,-2.159253949E0,2.917080649E0
2.379845542E0,1.601271701E-1,-1.777867261E0,-2.226675854E0,2.853863709E0
2.389812542E0,-5.200115991E-1,-1.497913686E0,-1.811356897E0,2.407316199E0
2.399780542E0,-2.743262154E-1,-1.254415745E0,-1.304460018E0,1.830417896E0
2.409747542E0,3.213781750E-1,-9.111593360E-1,-9.183905876E-1,1.333017831E0
2.419714542E0,7.527190876E-1,-2.618660912E-1,-3.950244409E-1,8.894965899E-1
2.429682542E0,1.027530037E0,4.332251778E-1,2.676773465E-1,1.146801288E0
2.439649542E0,9.691040736E-1,5.482583284E-1,8.860168934E-1,1.422946182E0
2.449617542E0,3.384076059E-1,-1.903660458E-1,1.255452749E0,1.314123489E0
2.459584542E0,-1.716777599E-1,-2.109353811E0,4.598759097E-1,2.165717572E0
2.469551542E0,-6.531585467E-1,-2.912285570E0,5.340612888E-2,2.985108967E0
2.479519542E0,-8.115496784E-1,-1.542610387E0,1.528456324E-1,1.749748974E0
2.489486542E0,8.936194432E-1,-2.833250803E-1,-7.745625311E-1,1.216049310E0
2.499454542E0,1.506586568E0,-6.515698582E-2,-1.432529828E0,2.079949574E0
2.509421542E0,3.537430984E-1,2.346879405E-1,-3.267605370E-1,5.357098633E-1
2.519389542E0,3.790211964E-1,6.357841301E-1,5.894034308E-1,9.461896911E-1
2.529356542E0,1.429913199E0,9.218047768E-1,2.234987086E-1,1.715904273E0
2.539323542E0,1.603688355E0,1.219169022E0,-1.261425680E-1,2.018440336E0
2.549291542E0,1.355810266E0,1.480174403E0,3.395062977E-1,2.035780505E0
2.559258542E0,1.147919530E0,1.605982218E0,1.073199715E0,2.246921396E0
2.569226542E0,1.395629219E0,1.803195938E0,1.526334370E0,2.743901076E0
2.579193542E0,1.474572478E0,1.952377705E0,1.590301740E0,2.918081959E0
2.589160542E0,1.195444529E0,1.971367415E0,1.335570713E0,2.664418555E0
2.599128542E0,6.350783712E-1,1.798196568E0,1.093063876E0,2.198095556E0
2.609095542E0,8.400636256E-2,1.488986742E0,8.912559986E-1,1.737376137E0
2.619063542E0,-3.384502906E-1,1.185504555E0,6.196317816E-1,1.379823610E0
2.629030542E0,-7.585142630E-1,1.081938671E0,3.917751431E-1,1.378195537E0
2.638997542E0,-1.080696430E0,1.227841320E0,2.808593094E-1,1.659632800E0
2.648965542E0,-1.060856827E0,1.536557934E0,1.257309240E-1,1.871426130E0
2.658932542E0,-1.222638175E0,1.765274405E0,-1.976054835E-1,2.156405750E0
2.668900542E0,-2.229399487E0,2.043335530E0,-4.111972547E-1,3.051970731E0
2.678867542E0,-2.574012743E0,2.175640186E0,-6.820911545E-1,3.438633473E0
2.688834542E0,-1.919754919E0,2.084479755E0,-8.716613942E-1,2.964845424E0
2.698802542E0,-1.266010482E0,1.994000817E0,-8.856064188E-1,2.522522652E0
2.708769542E0,-8.497477841E-1,1.981909945E0,-8.495992649E-1,2.317726739E0
2.718737542E0,-5.141228682E-1,1.819593285E0,-7.479132611E-1,2.033375590E0
2.728704542E0,-4.577562940E-1,1.578325765E0,-4.110943437E-1,1.694004606E0
2.738672542E0,-2.620289361E-1,1.336353948E0,-1.083196700E-1,1.366101822E0
2.748639542E0,3.432315588E-2,1.004372724E0,1.198679209E-4,1.004959035E0
2.758606542E0,9.836010754E-2,6.179969001E-1,1.367874241E-1,6.405510742E-1
2.768574542E0,9.803851068E-2,5.733358669E-1,4.416238260E-1,7.303130627E-1
2.778541542E0,6.548940003E-2,9.513606977E-1,5.589938164E-1,1.105373297E0
2.788509542E0,3.741446185E-1,1.677714105E0,3.254536843E-1,1.749465323E0
2.798476542E0,1.036148833E0,2.442962022E0,-3.801859617E-2,2.653886444E0
2.808443542E0,1.758175301E0,2.955321370E0,-1.529766101E-1,3.442165980E0
2.818411542E0,2.166930758E0,3.077027071E0,6.344573969E-1,3.816571851E0
2.828378542E0,2.480894079E0,2.358686103E0,2.578373011E0,4.285585485E0
2.838346542E0,3.886863515E0,1.050390311E0,4.957011568E0,6.386156236E0
2.848313542E0,5.253249055E0,9.052717745E-2,6.264889283E0,8.176408657E0
2.858280542E0,5.132738525E0,-6.957660377E-1,5.452046785E0,7.520233327E0
2.868248542E0,3.756204557E0,-1.400556668E0,3.510136766E0,5.328385475E0
2.878215542E0,2.623361489E0,-1.896152049E0,1.961060820E0,3.784597420E0
2.888183583E0,1.514297876E0,-2.398839517E0,9.677165294E-1,2.997332876E0
2.898150583E0,6.348643631E-1,-2.335330569E0,2.518530267E-1,2.433156710E0
2.908118583E0,-1.478275520E-1,-1.758153082E0,-2.390868008E-1,1.780482446E0
2.918085583E0,-9.805260247E-1,-8.812987751E-1,-8.760731184E-1,1.582915956E0
2.928052583E0,-1.456464821E0,-2.861527938E-1,-1.500908337E0,2.110900052E0
2.938020583E0,-8.311051065E-1,3.888708311E-1,-2.190772780E0,2.375171909E0
2.947987583E0,3.433046490E-2,5.227761626E-1,-2.301899698E0,2.360765918E0
2.957955583E0,4.078567404E-1,6.168637097E-1,-1.545613809E0,1.713414720E0
2.967922583E0,2.344107825E-1,1.250278548E0,6.704651356E-2,1.273828912E0
2.977889583E0,4.290508506E-1,2.102223131E0,1.964161599E0,2.908841266E0
2.987857583E0,4.267862239E-1,2.349351023E0,3.354369864E0,4.117449926E0
2.997824583E0,2.612749377E-1,1.893181078E0,4.386685263E0,4.784914501E0
3.007792583E0,-1.709161600E-1,7.805834091E-1,4.736829400E0,4.803756401E0
3.017759583E0,-7.795563456E-1,-5.315013778E-1,4.494898514E0,4.592854718E0
3.027726583E0,-1.002767664E0,-1.591771145E0,3.523180150E0,3.994005099E0
3.037694583E0,-1.003338644E0,-2.279085032E0,2.113294249E0,3.266026577E0
3.047661583E0,-1.148882274E0,-2.551956460E0,9.052285051E-1,2.941402880E0
3.057629583E0,-1.236845447E0,-2.480200599E0,-1.437537968E-1,2.775220140E0
3.067596583E0,-1.188017396E0,-2.270047576E0,-9.482979262E-1,2.731990169E0
3.077564583E0,-1.335760748E0,-2.024390259E0,-1.165015619E0,2.690664246E0
3.087531583E0,-1.482140529E0,-2.198705113E0,-1.283201296E0,2.945785173E0
3.097498583E0,-1.281224644E0,-2.446548119E0,-1.540935452E0,3.162533218E0
3.107466583E0,-8.736588031E-1,-2.586773706E0,-1.888655918E0,3.319894439E0
3.117433583E0,-8.183035049E-1,-2.661058488E0,-2.047703692E0,3.456001058E0
3.127401583E0,-1.082897322E0,-2.663959876E0,-1.937025840E0,3.467191650E0
3.137368583E0,-1.024416102E0,-2.559018143E0,-1.433153726E0,3.106755833E0
3.147335583E0,-1.498151083E0,-2.649676883E0,-7.423660076E-1,3.133105734E0
3.157303583E0,-2.207557505E0,-2.732446559E0,7.883859336E-2,3.513657619E0
3.167270583E0,-2.373983881E0,-2.640614283E0,8.955320674E-1,3.662051466E0
3.177238583E0,-2.459059407E0,-2.488857987E0,1.600343163E0,3.847399834E0
3.187205583E0,-2.338836560E0,-2.217840711E0,2.171482816E0,3.886426571E0
3.197172583E0,-1.867121792E0,-1.852828858E0,2.438605846E0,3.586909121E0
3.207140583E0,-1.340875015E0,-1.629917795E0,2.209297344E0,3.055416924E0
3.217107583E0,-1.135034898E0,-1.667924112E0,1.675691553E0,2.622635553E0
3.227075583E0,-1.168725969E0,-1.687104149E0,1.149633349E0,2.352423779E0
3.237042583E0,-9.178979596E-1,-1.672662111E0,5.624939597E-1,1.989154257E0
3.247009583E0,-6.452577889E-1,-1.550548859E0,-1.950046420E-3,1.679453239E0
3.256977583E0,-6.003274915E-1,-1.507781739E0,-4.971068859E-1,1.697325580E0
3.266944583E0,-5.088454637E-1,-1.407607241E0,-6.725976151E-1,1.640935526E0
3.276912583E0,-7.246530372E-1,-1.325320544E0,-3.716577977E-1,1.555546877E0
3.286879583E0,-1.321361979E0,-1.357597759E0,1.358869529E-1,1.899351052E0
3.296847583E0,-1.695870879E0,-1.371182595E0,5.350126308E-1,2.245519598E0
3.306814583E0,-1.648758986E0,-1.259358689E0,7.104267615E-1,2.192965272E0
3.316781583E0,-1.631596238E0,-1.311373181E0,6.149505007E-1,2.181735553E0
3.326749583E0,-1.806131825E0,-1.670409763E0,4.408291894E-1,2.499342178E0
3.336716583E0,-2.429037462E0,-1.729884717E0,4.261743128E-1,3.012365960E0
3.346684583E0,-2.430310694E0,-1.616804829E0,4.549835443E-1,2.954230517E0
3.356651583E0,-1.970319301E0,-1.640714679E0,4.710113472E-1,2.606905157E0
3.366618583E0,-2.292334238E0,-1.880096179E0,7.598754948E-1,3.060550387E0
3.376586583E0,-2.508784421E0,-2.011501826E0,1.178734941E0,3.424843781E0
3.386553583E0,-2.425078313E0,-1.890141111E0,1.450923999E0,3.399826274E0
3.396521583E0,-1.901394078E0,-1.887205809E0,1.313220316E0,2.983520203E0
3.406488583E0,-8.797594956E-1,-1.957583481E0,8.833581644E-1,2.320868696E0
3.416455583E0,-2.144632986E-1,-2.037505563E0,4.881647390E-1,2.106116863E0
3.426423583E0,1.695604831E-2,-2.018155957E0,3.649083567E-1,2.050950776E0
3.436390583E0,2.408766335E-1,-1.802426444E0,4.996094942E-1,1.885834639E0
3.446358583E0,3.817202711E-1,-1.575457998E0,7.732942700E-1,1.796040728E0
3.456325583E0,2.145621166E-1,-1.465600510E0,1.127847208E0,1.861736040E0
3.466292583E0,-7.323345244E-3,-1.559160054E0,1.439790900E0,2.122270374E0
3.476260583E0,-8.596547216E-2,-1.764901353E0,1.580385447E0,2.370629665E0
3.486227583E0,-7.732328743E-2,-1.876565630E0,1.668362653E0,2.512152742E0
3.496195583E0,-9.896646380E-2,-1.786515001E0,1.713689100E0,2.477531138E0
3.506162583E0,1.559510887E-2,-1.437236837E0,1.725351371E0,2.245602433E0
3.516129583E0,2.449436644E-1,-7.449300116E-1,1.761917519E0,1.928541279E0
3.526097583E0,6.133890018E-1,2.445609641E-1,1.899297266E0,2.010817306E0
3.536064583E0,1.211053964E0,1.544174225E0,2.147313935E0,2.908965946E0
3.546032583E0,1.580989464E0,3.029824837E0,2.835523031E0,4.440670793E0
3.555999583E0,1.350547479E0,4.631074904E0,4.194851566E0,6.392778185E0
3.565967583E0,2.462800163E0,6.119840328E0,5.999722146E0,8.917090115E0
3.575934583E0,3.811125408E0,6.939500679E0,7.457126030E0,1.087612409E1
3.585901583E0,4.781730754E0,6.784144253E0,8.035396362E0,1.155236586E1
3.595869583E0,5.376348732E0,5.901906415E0,7.827264721E0,1.118050527E1
3.605836583E0,6.170802321E0,4.683353689E0,6.791980691E0,1.030260184E1
3.615804583E0,6.267968427E0,3.149515003E0,4.710644107E0,8.449676967E0
3.625771583E0,6.062697244E0,2.052144653E0,2.895075753E0,7.024888551E0
3.635738583E0,5.804009991E0,1.088162155E0,1.666025521E0,6.135655620E0
3.645706583E0,5.263661191E0,2.262188333E-1,9.585726535E-1,5.355013131E0
3.655673583E0,5.140677874E0,3.142702997E-2,8.372598857E-1,5.208508499E0
3.665641583E0,5.168044598E0,5.583389282E-2,9.652472502E-1,5.257709068E0
3.675608583E0,5.249851238E0,9.117797256E-2,7.874214354E-1,5.309358149E0
3.685575583E0,4.507434067E0,-6.855860353E-2,1.340102890E-1,4.509946885E0
3.695543583E0,3.800821444E0,-7.501685321E-2,-3.126915514E-2,3.801690274E0
3.705510583E0,3.257554591E0,-2.312000763E-1,2.487779760E-1,3.275210813E0
3.715478583E0,2.933476757E0,-1.248795694E-1,6.774233222E-1,3.013267852E0
3.725445583E0,2.784502273E0,-2.187501848E-1,1.248615600E0,3.059468168E0
3.735412583E0,2.510404392E0,-6.657125187E-1,1.536906136E0,3.017844237E0
3.745380583E0,2.220619015E0,-1.061797060E0,1.578115557E0,2.923869101E0
3.755347583E0,1.697526811E0,-1.460342694E0,1.615502070E0,2.761167324E0
3.765315583E0,1.110737232E0,-1.898111451E0,1.770814058E0,2.823534435E0
3.775282583E0,8.120556088E-1,-2.166657109E0,1.541055905E0,2.780052273E0
3.785249583E0,5.843625462E-1,-2.362805466E0,1.099969730E0,2.671004055E0
3.795217583E0,2.294422571E-1,-2.630182266E0,6.647404191E-1,2.722569067E0
3.805184583E0,-3.212583071E-1,-2.893833219E0,2.198430294E-1,2.919898724E0
3.815152583E0,-4.941473177E-1,-2.808626423E0,-1.814127892E-1,2.857529450E0
3.825119583E0,-6.902415884E-1,-2.838710933E0,-5.073412675E-1,2.965148963E0
3.835086583E0,-8.336018676E-1,-3.071496189E0,-9.260834768E-1,3.314605787E0
3.845054583E0,-1.076160453E0,-3.274284060E0,-1.396889879E0,3.718919031E0
3.855021583E0,-1.554735758E0,-3.585383999E0,-1.604825054E0,4.224647341E0
3.864989583E0,-2.376788790E0,-3.549463384E0,-1.655174258E0,4.581202582E0
3.874956583E0,-3.649186478E0,-3.256643595E0,-1.551119547E0,5.131107220E0
3.884923583E0,-4.884700514E0,-3.346149264E0,-1.079050439E0,6.018418717E0
3.894890542E0,-5.932682065E0,-3.597198299E0,-3.417133293E-1,6.946460975E0
3.904857542E0,-6.955485798E0,-3.792438583E0,4.480969861E-1,7.934870131E0
3.914825542E0,-7.986058141E0,-3.584357813E0,1.239172931E0,8.840831133E0
3.924792542E0,-7.641680528E0,-2.685906231E0,1.563816192E0,8.249539057E0
3.934760542E0,-6.505398127E0,-1.540596313E0,1.100229054E0,6.775259830E0
3.944727542E0,-5.661945455E0,-8.924570167E-1,2.859428787E-1,5.738978062E0
3.954694542E0,-4.916993809E0,-7.585598713E-1,-7.443546456E-1,5.030537251E0
3.964662542E0,-5.056520069E0,-8.000189692E-1,-1.786177617E0,5.422071194E0
3.974629542E0,-5.056909493E0,-6.832629365E-1,-2.603656372E0,5.728717864E0
3.984597542E0,-4.270429167E0,-8.186411816E-1,-3.402617287E0,5.521280926E0
3.994564542E0,-3.414122269E0,-9.936752433E-1,-3.384243289E0,4.908841411E0
4.004531542E0,-2.535343059E0,-1.134389073E0,-2.676519111E0,3.857273330E0
4.014499542E0,-1.818006058E0,-1.405070134E0,-1.916002761E0,2.991727710E0
4.024466542E0,-1.405639653E0,-1.532682107E0,-1.305362828E0,2.455383755E0
4.034434542E0,-1.079849900E0,-1.562269603E0,-7.698052365E-1,2.049234545E0
4.044401542E0,-8.060208437E-1,-1.514833481E0,-2.594304335E-1,1.735423357E0
4.054368542E0,-7.170886405E-1,-1.417940440E0,1.594076702E-1,1.596928933E0
4.064336542E0,-7.084889942E-1,-1.315953305E0,5.491892052E-1,1.592262082E0
4.074303542E0,-5.907115991E-1,-1.281134890E0,8.623447332E-1,1.653446473E0
4.084271542E0,-2.668682380E-1,-1.271395183E0,9.692847526E-1,1.620856964E0
4.094238542E0,2.259878683E-1,-1.163691224E0,1.018106664E0,1.562622463E0
4.104205542E0,9.973130885E-1,-8.959998447E-1,1.108289149E0,1.739469446E0
4.114173542E0,1.415581381E0,-8.317927390E-1,9.709903854E-1,1.907504164E0
4.124140542E0,1.802428052E0,-7.945851517E-1,8.987404346E-1,2.165143602E0
4.134108542E0,2.260593213E0,-6.963981217E-1,1.037997723E0,2.583155297E0
4.144075542E0,2.522331542E0,-6.795885462E-1,1.172637757E0,2.863402925E0
4.154042542E0,2.715279134E0,-7.728715163E-1,1.399663506E0,3.151052060E0
4.164010542E0,2.954190518E0,-7.750221223E-1,1.694457023E0,3.492718928E0
4.173977542E0,2.644179915E0,-9.728837138E-1,2.061044407E0,3.490858661E0
4.183945542E0,2.247304100E0,-1.349918611E0,2.379457167E0,3.540405680E0
4.193912542E0,1.860652141E0,-1.728278487E0,2.500337825E0,3.563798838E0
4.203879542E0,1.696713025E0,-1.977609610E0,2.399523641E0,3.542243436E0
4.213847542E0,1.757721996E0,-2.135228909E0,2.332316329E0,3.617801621E0
4.223814542E0,1.964738280E0,-2.174148561E0,2.425460136E0,3.803942080E0
4.233782542E0,2.220322123E0,-2.191410711E0,2.592226235E0,4.056075454E0
4.243749542E0,2.298201919E0,-2.172956899E0,2.871985683E0,4.272209675E0
4.253716542E0,2.337472404E0,-1.774853314E0,3.463388277E0,4.539707026E0
4.263684542E0,2.307891340E0,-8.445735830E-1,4.261940179E0,4.919735874E0
4.273651542E0,2.096809048E0,5.750561178E-2,4.755971430E0,5.197997626E0
4.283619542E0,2.235314384E0,1.005319973E0,4.990210889E0,5.559631585E0
4.293586542E0,2.208241483E0,2.083100982E0,5.059206280E0,5.900102400E0
4.303554542E0,2.365263782E0,3.169805426E0,4.988438598E0,6.366055202E0
4.313521542E0,2.325089171E0,4.100651168E0,4.877203799E0,6.782956328E0
4.323488542E0,1.988550043E0,4.574656289E0,4.584786006E0,6.775106948E0
4.333456542E0,1.788205723E0,4.564714268E0,3.903462298E0,6.266682853E0
4.343423542E0,1.624790518E0,3.785889702E0,2.758556131E0,4.958077953E0
4.353391542E0,1.856490093E0,3.183201982E0,1.329404532E0,3.917479640E0
4.363358542E0,1.703240418E0,2.910472056E0,-2.160019934E-2,3.372290331E0
4.373325542E0,7.614157976E-1,2.727105712E0,-1.159307275E0,3.059551101E0
4.383293542E0,4.370662138E-1,2.164252149E0,-2.337535554E0,3.215445025E0
4.393260542E0,7.949992807E-1,4.893827140E-2,-4.480882738E0,4.551123918E0
4.403228542E0,1.233814981E0,-1.000084376E-1,-6.847236879E0,6.958229227E0
4.413195542E0,1.484230470E0,2.710531780E0,-9.305429143E0,9.805148350E0
4.423162542E0,9.638231608E-1,4.862013609E0,-1.042482771E1,1.154318692E1
4.433130542E0,-8.015743285E-2,5.208978031E0,-9.031801670E0,1.042656793E1
4.443097542E0,-1.358813542E0,4.479512735E0,-6.664002682E0,8.143791521E0
4.453065542E0,-2.076718453E0,2.435976353E0,-5.142112196E0,6.057066796E0
4.463032542E0,-1.792797103E0,4.961824411E-1,-3.813567497E0,4.243066759E0
4.472999542E0,-1.475859012E0,-4.330635023E-1,-2.247761498E0,2.723625446E0
4.482967542E0,-1.301200487E0,-8.936825931E-1,-5.595130491E-1,1.674767488E0
4.492934542E0,-1.128403717E0,-1.218078516E0,8.273932940E-1,1.855152253E0
4.502902542E0,-1.281320685E0,-1.665824962E0,2.054661879E0,2.939113972E0
4.512869542E0,-1.235959886E0,-2.087254259E0,3.426731497E0,4.198418266E0
4.522836542E0,-1.128452541E0,-2.400765590E0,4.339591203E0,5.086170698E0
4.532804542E0,-8.521721859E-1,-2.677656394E0,4.636917441E0,5.421904145E0
4.542771542E0,-4.315378176E-1,-2.835836442E0,4.397139500E0,5.250050380E0
4.552739542E0,-6.294703066E-2,-2.844670415E0,3.373386764E0,4.413145177E0
4.562706542E0,2.309847526E-1,-2.692888976E0,1.974238982E0,3.347032201E0
4.572673542E0,2.273726352E-1,-2.564518034E0,8.734547353E-1,2.718708192E0
4.582641542E0,9.765858784E-2,-2.495647189E0,1.283329350E-1,2.500852142E0
4.592608542E0,-1.437501423E-1,-2.314956531E0,-2.940319169E-1,2.337978317E0
4.602576542E0,-3.913485888E-1,-2.170099949E0,-5.508834359E-1,2.272874846E0
4.612543542E0,-6.570463604E-1,-2.079846421E0,-8.026794523E-1,2.324169822E0
4.622510542E0,-9.117513666E-1,-2.066743981E0,-1.223118231E0,2.568801169E0
4.632478542E0,-1.016127967E0,-1.881346314E0,-1.711903652E0,2.739086365E0
4.642445542E0,-9.377809779E-1,-1.520677189E0,-2.060862266E0,2.727461376E0
4.652413542E0,-6.941175614E-1,-1.337304413E0,-2.112581181E0,2.594837476E0
4.662380542E0,-3.724617898E-1,-1.300676869E0,-1.644817085E0,2.129767909E0
4.672347542E0,-2.142462207E-1,-1.313006893E0,-6.925421754E-1,1.499834394E0
4.682315542E0,-9.740379542E-2,-1.281974550E0,3.415709496E-1,1.330269506E0
4.692282542E0,-2.002992958E-2,-1.168073128E0,1.350687228E0,1.785819704E0
4.702250542E0,-3.970902622E-2,-1.028652703E0,2.169730405E0,2.401548088E0
4.712217542E0,-3.037336171E-3,-8.403431225E-1,2.600642717E0,2.733043785E0
4.722185542E0,-7.554310262E-3,-4.834594846E-1,2.792362393E0,2.833915644E0
4.732152542E0,-1.437888801E-2,-3.091411221E-1,2.833167772E0,2.850020107E0
4.742119542E0,-7.993231505E-2,-2.981407553E-1,2.764166242E0,2.781347173E0
4.752087542E0,-2.846366107E-1,-2.784309608E-1,2.810289372E0,2.838356594E0
4.762054542E0,-5.863412440E-1,-3.111052018E-1,3.045916375E0,3.117401011E0
4.772022542E0,-4.505900927E-1,-3.068566149E-1,3.121839547E0,3.169081029E0
4.781989542E0,1.644231194E-1,-5.663613081E-3,3.055713969E0,3.060139687E0
4.791956542E0,6.970025776E-1,6.946281695E-1,3.068050717E0,3.221995669E0
4.801924542E0,6.610056563E-1,1.282363390E0,3.228170578E0,3.535883146E0
4.811891542E0,4.284235905E-1,1.487198371E0,3.619257797E0,3.936284132E0
4.821859542E0,1.072870517E-1,1.327472904E0,4.233510140E0,4.438051704E0
4.831826542E0,-1.932800058E-1,1.415930167E0,4.665961439E0,4.879898723E0
4.841793542E0,-4.362220220E-1,1.698305075E0,4.697861216E0,5.014422179E0
4.851761542E0,-8.022227117E-1,2.044692376E0,4.314061967E0,4.841018369E0
4.861728542E0,-1.216466658E0,2.195014935E0,3.272590122E0,4.124042653E0
4.871696542E0,-1.548175767E0,1.779749773E0,1.602740521E0,2.851865115E0
4.881663542E0,-1.815791133E0,1.642869378E0,-2.910141689E-1,2.465929130E0
4.891630833E0,-2.027976941E0,2.278796180E0,-2.245181122E0,3.787669570E0
4.901598833E0,-2.183124037E0,3.069601107E0,-4.351719498E0,5.755514235E0
4.911565833E0,-2.418449909E0,3.966639417E0,-6.592207645E0,8.064758512E0
4.921533833E0,-2.713216821E0,3.655333071E0,-7.892762307E0,9.111459938E0
4.931500833E0,-2.908457983E0,2.365303397E0,-8.235814941E0,9.048891409E0
4.941467833E0,-3.100141114E0,1.652920157E0,-7.709897654E0,8.472634880E0
4.951435833E0,-2.964866072E0,1.115894914E0,-6.529146008E0,7.257093074E0
4.961402833E0,-2.521911128E0,2.802973920E-1,-5.064950584E0,5.665008984E0
4.971370833E0,-2.078547463E0,-3.052287501E-1,-3.730669767E0,4.281520881E0
4.981337833E0,-1.578610817E0,-5.215710515E-1,-2.616917272E0,3.100371668E0
4.991304833E0,-1.132294161E0,-8.858718824E-1,-1.796185419E0,2.300682750E0
5.001272833E0,-5.874652981E-1,-1.005137540E0,-1.276881040E0,1.727958953E0
5.011239833E0,-4.233939618E-2,-1.044610339E0,-7.486026478E-1,1.285849645E0
5.021207833E0,3.316387229E-1,-1.207956401E0,-3.880586529E-1,1.311385690E0
5.031174833E0,4.141784576E-1,-1.069321257E0,7.758202672E-2,1.149352303E0
5.041142833E0,3.894456124E-1,-1.259392603E0,4.701804578E-1,1.399573963E0
5.051109833E0,2.129673616E-1,-1.704576799E0,5.483089069E-1,1.803213747E0
5.061076833E0,-8.807953298E-3,-2.175234389E0,2.486838359E-1,2.189421357E0
5.071044833E0,-1.377697563E-1,-2.469156379E0,-2.403626633E-1,2.484650466E0
5.081011833E0,-2.155896916E-1,-2.595893024E0,-6.287896907E-1,2.679648481E0
5.090979833E0,-2.941084423E-1,-2.793461085E0,-8.170618486E-1,2.925323003E0
5.100946833E0,-4.173032096E-1,-3.083856034E0,-9.213902092E-1,3.245499950E0
5.110913833E0,-4.834386539E-1,-3.233756424E0,-9.092858881E-1,3.393772881E0
5.120881833E0,-4.315511200E-1,-3.142662651E0,-9.059582376E-1,3.298988517E0
5.130848833E0,-2.409958436E-1,-3.012162153E0,-9.201277953E-1,3.158771121E0
5.140816833E0,5.088100880E-3,-2.853371657E0,-8.539221114E-1,2.978412106E0
5.150783833E0,2.272157836E-1,-2.522504620E0,-5.749555457E-1,2.597158149E0
5.160750833E0,3.207289148E-1,-2.392085983E0,-7.650116891E-2,2.414703878E0
5.170718833E0,5.378008025E-1,-2.523523790E0,2.590877867E-1,2.593169586E0
5.180685833E0,8.918011053E-1,-2.551428457E0,3.558793786E-1,2.726122982E0
5.190653833E0,1.264314497E0,-2.545651408E0,3.462604165E-1,2.863342193E0
5.200620833E0,1.620577745E0,-2.576140544E0,2.212106931E-1,3.051508890E0
5.210587833E0,1.819158837E0,-2.466878303E0,2.230066654E-1,3.073200190E0
5.220555833E0,1.895746106E0,-2.169990022E0,3.304963231E-1,2.900334086E0
5.230522833E0,1.788222242E0,-1.437801093E0,5.992144740E-1,2.371511913E0
5.240490833E0,1.567967568E0,-6.772449821E-1,1.127351364E0,2.046485807E0
5.250457833E0,1.633662206E0,7.461164117E-2,1.748408697E0,2.394024242E0
5.260424833E0,1.886188978E0,7.858400559E-1,2.463748873E0,3.200829887E0
5.270392833E0,2.213686849E0,1.568568224E0,3.199298197E0,4.194797336E0
5.280359833E0,2.662310377E0,2.597207478E0,3.961043047E0,5.433529722E0
5.290327833E0,3.016531777E0,3.530637104E0,4.638893216E0,6.563855010E0
5.300294833E0,3.343897794E0,4.000116481E0,4.951595292E0,7.190332416E0
5.310261833E0,3.856472027E0,4.311475452E0,5.095242670E0,7.708611738E0
5.320229833E0,4.025121514E0,4.639737554E0,5.222169349E0,8.062246615E0
5.330196833E0,4.070918368E0,4.716794500E0,5.075025337E0,8.035944804E0
5.340164833E0,3.797971804E0,4.294840123E0,4.360235383E0,7.202908725E0
5.350131833E0,3.185701666E0,3.630999298E0,3.346489572E0,5.876380133E0
5.360098833E0,2.380716219E0,2.732588062E0,2.222497433E0,4.251392956E0
5.370066833E0,1.616625612E0,2.085804734E0,1.516995197E0,3.043901146E0
5.380033833E0,1.154472650E0,1.597053519E0,6.931236809E-1,2.088972829E0
5.390001833E0,1.158435382E0,1.266471827E0,-2.184157240E-1,1.730210638E0
5.399968833E0,6.843308573E-1,9.798974490E-1,-1.226528912E0,1.712565592E0
5.409935833E0,3.219681591E-1,1.014655638E0,-2.337776459E0,2.568732826E0
5.419903833E0,6.447337322E-2,1.153282596E0,-3.272159767E0,3.470050014E0
5.429870833E0,-1.357034234E-1,1.363880008E0,-4.007314988E0,4.235228153E0
5.439838833E0,-3.173188186E-1,1.835492449E0,-4.759935842E0,5.111429642E0
5.449805833E0,-5.733341128E-1,2.173283173E0,-5.465621681E0,5.909728599E0
5.459773833E0,-9.333650145E-1,2.529997242E0,-6.024509663E0,6.600513084E0
5.469740833E0,-1.260389846E0,2.435086407E0,-6.310097616E0,6.880084323E0
5.479707833E0,-1.596024556E0,2.010512477E0,-5.830268667E0,6.370360079E0
5.489675833E0,-1.845426868E0,1.358273113E0,-4.288050921E0,4.861881002E0
5.499642833E0,-1.746224469E0,7.260037440E-1,-2.419024690E0,3.070514906E0
5.509610833E0,-1.724575738E0,4.977068102E-1,-8.207222056E-1,1.973691588E0
5.519577833E0,-1.823321762E0,1.714479643E-1,4.504192078E-1,1.885941175E0
5.529544833E0,-1.969596878E0,-4.992276710E-1,1.408065662E0,2.472081924E0
5.539512833E0,-1.824579790E0,-1.026547120E0,1.949819548E0,2.860889140E0
5.549479833E0,-1.508080532E0,-1.376752068E0,2.068550770E0,2.906657090E0
5.559447833E0,-1.287822643E0,-1.904745702E0,1.869872907E0,2.963607268E0
5.569414833E0,-1.025434980E0,-2.233613575E0,1.511384794E0,2.885278235E0
5.579381833E0,-7.806352300E-1,-2.424150360E0,1.020456660E0,2.743579436E0
5.589349833E0,-6.266485865E-1,-2.491339545E0,4.442427939E-1,2.607069781E0
5.599316833E0,-5.355838307E-1,-2.452349727E0,-6.121157706E-2,2.510899456E0
5.609284833E0,-4.818815403E-1,-2.473323689E0,-3.857302916E-1,2.549181780E0
5.619251833E0,-3.757840316E-1,-2.453117466E0,-5.706227589E-1,2.546489598E0
5.629218833E0,-1.501445843E-1,-2.291551881E0,-6.569136286E-1,2.388574666E0
5.639186833E0,-4.172777742E-2,-1.956062620E0,-6.236926728E-1,2.053512779E0
5.649153833E0,-1.456981422E-1,-1.555837081E0,-6.734711891E-1,1.701593493E0
5.659121833E0,1.733393924E-1,-1.373099898E0,-4.073913020E-1,1.442711872E0
5.669088833E0,2.184891066E-1,-9.956141800E-1,-6.084963441E-2,1.021120837E0
5.679055833E0,1.127359989E-1,-6.784769905E-1,1.114701498E-1,6.967539209E-1
5.689023833E0,1.169218744E-1,-4.815573853E-1,2.358591378E-1,5.488148804E-1
5.698990833E0,2.283256582E-1,-4.495614213E-1,4.684192765E-1,6.882257597E-1
5.708958833E0,4.328537335E-1,-5.627202469E-1,7.191490531E-1,1.010540346E0
5.718925833E0,5.744836754E-1,-7.528962582E-1,9.325203842E-1,1.329089363E0
5.728892833E0,5.860844781E-1,-8.835943919E-1,1.124934125E0,1.545868963E0
5.738860833E0,6.478276402E-1,-9.996481740E-1,1.291177483E0,1.756734589E0
5.748827833E0,7.014389332E-1,-1.039029756E0,1.430183340E0,1.901847470E0
5.758795833E0,7.503649986E-1,-9.979647607E-1,1.592488014E0,2.023610478E0
5.768762833E0,7.110208386E-1,-9.298943996E-1,1.762422134E0,2.115747150E0
5.778729833E0,6.004302563E-1,-8.255900127E-1,1.921862256E0,2.176159436E0
5.788697833E0,3.057457171E-1,-6.584993935E-1,2.099443949E0,2.221433499E0
5.798664833E0,-9.480039574E-2,-5.221230286E-1,2.289664400E0,2.350353725E0
5.808632833E0,-4.797603167E-1,-3.945151484E-1,2.446195532E0,2.523823438E0
5.818599833E0,-7.502123132E-1,-4.056289512E-1,2.331649747E0,2.482729124E0
5.828566833E0,-7.382880132E-1,-3.790855157E-1,2.018692732E0,2.182634959E0
5.838534833E0,-5.843983604E-1,-3.892146474E-1,1.833776291E0,1.963605095E0
5.848501833E0,-5.284204799E-1,-2.531856072E-1,1.757563097E0,1.852662732E0
5.858469833E0,-5.918055401E-1,6.698394835E-2,2.170954227E0,2.251169230E0
5.868436833E0,-6.606375010E-1,3.245561367E-1,2.781315833E0,2.877063843E0
5.878403833E0,-7.525260564E-1,2.694326806E-1,3.475362790E0,3.566095337E0
5.888371542E0,-6.821031412E-1,6.365869528E-1,4.232128735E0,4.333753716E0
5.898338542E0,-3.168734801E-1,9.247441721E-1,4.523317151E0,4.627737961E0
5.908306542E0,9.380103350E-2,1.232020032E0,4.324771435E0,4.497812798E0
5.918273542E0,2.840458227E-1,1.492279601E0,3.526694911E0,3.839942374E0
5.928241542E0,1.605997713E-1,1.652002144E0,2.294967239E0,2.832274351E0
5.938208542E0,-1.919466944E-1,1.663656229E0,1.099548438E0,2.003397702E0
5.948175542E0,-4.523655266E-1,1.895514702E0,-7.099455357E-2,1.950038662E0
5.958143542E0,-6.749801362E-1,2.310787466E0,-1.282800177E0,2.727803730E0
5.968110542E0,-8.446732049E-1,2.740795798E0,-3.396221310E0,4.445194441E0
5.978078542E0,-1.108613815E0,3.019016844E0,-5.808467324E0,6.639411114E0
5.988045542E0,-1.575650664E0,3.202160994E0,-7.914251994E0,8.681698835E0
5.998012542E0,-2.002344502E0,3.462022952E0,-9.338102800E0,1.015850138E1
6.007980542E0,-2.562528226E0,3.401420655E0,-9.232117338E0,1.016701549E1
6.017947542E0,-2.908042246E0,2.623633384E0,-7.239066401E0,8.230689169E0
6.027915542E0,-2.777259620E0,1.935285124E0,-5.062601173E0,6.090027105E0
6.037882542E0,-2.554433341E0,1.654026450E0,-3.339689845E0,4.518236542E0
6.047849542E0,-2.296725790E0,1.456846059E0,-2.076966083E0,3.422153986E0
6.057817542E0,-1.607077694E0,1.063543038E0,-7.829971397E-1,2.080121878E0
6.067784542E0,-9.906745984E-1,5.370281661E-1,-1.612819952E-1,1.138352886E0
6.077752542E0,-5.112040843E-1,-1.020771825E-1,1.875207907E-1,5.539976660E-1
6.087719542E0,-1.070237808E-2,-5.683908767E-1,5.781434476E-1,8.108221603E-1
6.097686542E0,3.084534165E-1,-9.666581833E-1,6.756726658E-1,1.219059106E0
6.107654542E0,4.856690743E-1,-1.266906275E0,6.186178744E-1,1.491178740E0
6.117621542E0,5.875282288E-1,-1.491520633E0,3.107333189E-1,1.632904900E0
6.127589542E0,6.486483700E-1,-1.673557320E0,-1.295684516E-2,1.794911332E0
6.137556542E0,6.481927257E-1,-1.707888077E0,-3.910670453E-1,1.868145853E0
6.147523542E0,5.725791641E-1,-1.862172709E0,-7.135240316E-1,2.074765202E0
6.157491542E0,9.179943656E-1,-2.175647203E0,-6.579649580E-1,2.451340917E0
6.167458542E0,1.031609932E0,-2.184682905E0,-5.392670649E-1,2.475452972E0
6.177426542E0,1.167035101E0,-2.123187153E0,-4.004541653E-1,2.455658395E0
6.187393542E0,1.287256486E0,-2.085590726E0,-2.769229639E-1,2.466455811E0
6.197360542E0,1.390796788E0,-1.942755527E0,-1.422393680E-1,2.393500946E0
6.207328542E0,1.498637571E0,-1.790386443E0,-3.466112494E-2,2.335080208E0
6.217295542E0,1.643643403E0,-1.625636464E0,9.478395045E-2,2.313707316E0
6.227263542E0,1.751983977E0,-1.436110078E0,1.779898292E-1,2.272342490E0
6.237230542E0,1.877758024E0,-1.251035178E0,2.406263727E-1,2.269133152E0
6.247197542E0,2.004629593E0,-1.088545732E0,2.190431303E-1,2.291604571E0
6.257165542E0,1.856624871E0,-1.034669487E0,1.967599761E-1,2.134551791E0
6.267132542E0,2.054880419E0,-9.863837653E-1,1.187820929E-1,2.282453867E0
6.277100542E0,2.143777539E0,-6.093342501E-1,1.761128730E-1,2.235639977E0
6.287067542E0,2.040332985E0,-5.163413018E-1,3.567433047E-1,2.134673936E0
6.297034542E0,2.164709840E0,-4.281606120E-1,5.892402935E-1,2.283964606E0
6.307002542E0,2.125023471E0,-3.435110557E-1,8.591594625E-1,2.317731559E0
6.316969542E0,2.024766819E0,-2.442545700E-1,1.130283158E0,2.331712029E0
6.326937542E0,2.106528728E0,-7.891402245E-3,1.353418170E0,2.503850295E0
6.336904542E0,2.216604609E0,1.974376684E-1,1.594098337E0,2.737419795E0
6.346871542E0,2.378223697E0,2.939734447E-1,1.928347403E0,3.075856311E0
6.356839542E0,2.445970707E0,2.519179308E-1,2.292584499E0,3.361871358E0
6.366806542E0,2.366582767E0,-9.465355754E-2,2.561267567E0,3.488519004E0
6.376774542E0,2.061311040E0,-5.148216105E-1,2.616193972E0,3.370239664E0
6.386741542E0,1.692803284E0,-8.775793612E-2,2.856812743E0,3.321846393E0
6.396708542E0,1.545883366E0,7.167750835E-1,3.290135862E0,3.705201194E0
6.406676542E0,1.366589315E0,9.996031505E-1,3.782911130E0,4.144537300E0
6.416643542E0,9.992248356E-1,1.215695776E0,4.245975527E0,4.528208770E0
6.426611542E0,6.245587186E-1,1.316708765E0,4.771139692E0,4.988744283E0
6.436578542E0,1.862203699E-1,1.495907798E0,4.785697505E0,5.017501248E0
6.446546542E0,-1.459484030E-1,1.743124568E0,4.221364596E0,4.569431392E0
6.456513542E0,-1.917065200E-1,1.802217699E0,3.188135862E0,3.667281050E0
6.466480542E0,-3.168151541E-1,1.851287532E0,2.051298561E0,2.781270061E0
6.476448542E0,-5.373547330E-1,2.073958860E0,7.566957790E-1,2.272145234E0
6.486415542E0,-6.976247945E-1,2.445478663E0,-5.459632963E-1,2.600984846E0
6.496383542E0,-8.903906107E-1,2.948835638E0,-1.848199033E0,3.592250928E0
6.506350542E0,-1.212939618E0,3.218271242E0,-3.136317253E0,4.654565309E0
6.516317542E0,-1.434737883E0,3.383222365E0,-4.327026122E0,5.676955295E0
6.526285542E0,-1.614337597E0,3.503886677E0,-5.637871299E0,6.831464009E0
6.536252542E0,-1.822439417E0,3.398037456E0,-6.494673164E0,7.553060538E0
6.546220542E0,-2.068204907E0,3.336487910E0,-7.126864765E0,8.136450361E0
6.556187542E0,-2.302494068E0,3.401629400E0,-7.880634012E0,8.886897881E0
6.566154542E0,-2.159939243E0,3.061154804E0,-7.340057756E0,8.240901293E0
6.576122542E0,-1.560917581E0,1.948447207E0,-5.187560264E0,5.757055819E0
6.586089542E0,-1.403945568E0,1.313819656E0,-3.036065571E0,3.593727785E0
6.596057542E0,-1.122743539E0,6.539011431E-1,-1.385080258E0,1.899101650E0
6.606024542E0,-8.819178490E-1,-2.427705467E-2,-7.500106573E-2,8.854341464E-1
6.615991542E0,-9.350576372E-1,-8.473399007E-1,1.015198259E0,1.619550925E0
6.625959542E0,-7.617914081E-1,-1.577018035E0,1.753446073E0,2.478282704E0
6.635926542E0,-4.463343430E-1,-2.203332015E0,2.007247977E0,3.013790098E0
6.645894542E0,-2.844467224E-1,-2.781736248E0,1.836212241E0,3.345241678E0
6.655861542E0,-2.151947853E-1,-3.251333739E0,1.414680617E0,3.552295191E0
6.665828542E0,-8.338012576E-2,-3.506861156E0,9.159183848E-1,3.625456371E0
6.675796542E0,-1.657489025E-1,-3.152039831E0,4.878285241E-1,3.193869825E0
6.685763542E0,-1.960216921E-1,-3.295067988E0,-1.084646809E-1,3.302674997E0
6.695731542E0,-4.235245740E-1,-3.178598469E0,-2.015003139E-1,3.213014732E0
6.705698542E0,6.366309531E-2,-3.122324281E0,3.996145052E-1,3.148436700E0
6.715665542E0,1.900418177E-2,-2.779933552E0,5.827481300E-1,2.840420232E0
6.725633542E0,-1.281659239E-1,-2.517971274E0,2.520886695E-1,2.533802387E0
6.735600542E0,-1.879316307E-1,-2.101286992E0,-6.475908279E-2,2.110667918E0
6.745568542E0,-3.864748614E-1,-1.700171506E0,-4.103599334E-1,1.791184313E0
6.755535542E0,-3.823930664E-1,-1.340894603E0,-3.493126631E-1,1.437442914E0
6.765502542E0,-4.873972920E-1,-1.079605340E0,-2.454953492E-1,1.209699044E0
6.775470542E0,-6.349343835E-1,-8.195556861E-1,-5.241268694E-2,1.038056012E0
6.785437542E0,-7.150929858E-1,-7.898839903E-1,2.431137782E-1,1.092876482E0
6.795405542E0,-7.123237444E-1,-7.623921365E-1,5.104964250E-1,1.161573711E0
6.805372542E0,-6.533025344E-1,-6.826384538E-1,7.919913268E-1,1.232902965E0
6.815340542E0,-6.453925672E-1,-6.689670789E-1,1.074354540E0,1.420663998E0
6.825307542E0,-6.849428415E-1,-6.145072818E-1,1.389602494E0,1.666661630E0
6.835274542E0,-6.780687086E-1,-5.151525629E-1,1.792944015E0,1.984894853E0
6.845242542E0,-6.604646426E-1,-4.540134913E-1,2.174819237E0,2.317796477E0
6.855209542E0,-6.365189058E-1,-4.373319697E-1,2.466438593E0,2.584518311E0
6.865177542E0,-6.047913290E-1,-4.711832553E-1,2.665803503E0,2.773859140E0
6.875144542E0,-4.875496850E-1,-5.687440485E-1,2.733967420E0,2.834740260E0
6.885111542E0,-1.878697233E-1,-7.151448798E-1,2.607632478E0,2.710438041E0
6.895080542E0,2.143578295E-1,-9.772854978E-1,2.279415400E0,2.489331394E0
6.905047542E0,5.053518254E-1,-1.041633521E0,1.898030759E0,2.223263732E0
6.915015542E0,5.836658505E-1,-4.801791966E-1,1.911481694E0,2.055480516E0
6.924982542E0,4.405959586E-1,3.871511650E-1,2.368388972E0,2.439933841E0
6.934949542E0,1.211172516E-1,5.722196335E-1,3.092215798E0,3.147046749E0
6.944917542E0,4.218576059E-2,7.921994877E-1,3.900557109E0,3.980415233E0
6.954884542E0,1.883910026E-1,6.860877264E-1,4.133777398E0,4.194558751E0
6.964852542E0,4.013818261E-1,5.579588592E-1,3.928133748E0,3.987813962E0
6.974819542E0,7.317610587E-1,6.740874857E-1,3.168968689E0,3.321480203E0
6.984786542E0,7.754561318E-1,8.054405075E-1,2.073637263E0,2.355851889E0
6.994754542E0,6.211590012E-1,8.840802956E-1,1.038018773E0,1.498305525E0
7.004721542E0,3.120615140E-1,1.056320558E0,1.214513469E-1,1.108127221E0
7.014689542E0,6.463987269E-2,1.585821018E0,-6.005938321E-1,1.696973649E0
7.024656542E0,-1.302482636E-1,2.269818950E0,-1.218116523E0,2.579312028E0
7.034623542E0,-6.482683741E-1,3.532930967E0,-3.362402185E0,4.920122107E0
7.044591542E0,-1.235844989E0,4.707035497E0,-6.167667044E0,7.856437664E0
7.054558542E0,-1.635779629E0,5.260682035E0,-8.104647861E0,9.799789151E0
7.064526542E0,-1.782354122E0,5.060031906E0,-8.821836927E0,1.032499472E1
7.074493542E0,-1.817657125E0,4.267678637E0,-8.019587830E0,9.264488509E0
7.084460542E0,-1.652652647E0,3.531807132E0,-5.895730001E0,7.068561001E0
7.094428542E0,-1.494784110E0,3.552794543E0,-3.860229447E0,5.455098531E0
7.104395542E0,-1.260313832E0,3.203453228E0,-2.339695516E0,4.162292475E0
7.114363542E0,-7.483693439E-1,2.395518883E0,-1.060369170E0,2.724509162E0
7.124330542E0,-6.831784442E-2,1.521135026E0,-2.622464526E-1,1.545086501E0
7.134297542E0,5.090539900E-1,8.010761458E-1,-1.941567957E-2,9.493344641E-1
7.144265542E0,7.669926526E-1,1.679788113E-1,-1.288445663E-1,7.956730060E-1
7.154232542E0,7.317883214E-1,-4.042168486E-1,-4.287283766E-1,9.395283013E-1
7.164200542E0,6.507312213E-1,-9.128678924E-1,-6.353970444E-1,1.288607122E0
7.174167542E0,4.605958481E-1,-1.508616722E0,-6.374552643E-1,1.701300139E0
7.184134542E0,2.262905348E-1,-1.997631646E0,-6.482726133E-1,2.112343954E0
7.194102542E0,1.732607473E-1,-2.369833235E0,-7.081124336E-1,2.479425753E0
7.204069542E0,2.020511216E-1,-2.575848768E0,-7.109272832E-1,2.679783412E0
7.214037542E0,1.075417710E-1,-2.410220538E0,-5.593586826E-1,2.476612689E0
7.224004542E0,6.741086818E-2,-2.877242330E0,-5.467807370E-1,2.929511363E0
7.233971542E0,2.043566787E-1,-2.764610923E0,-2.012120461E-1,2.779446257E0
7.243939542E0,2.887374093E-1,-2.692104864E0,2.869871914E-1,2.722711799E0
7.253906542E0,5.667464934E-1,-2.386244615E0,3.775763494E-1,2.481517449E0
7.263874542E0,8.722907739E-1,-2.081550300E0,3.232253104E-1,2.279959966E0
7.273841542E0,1.142031018E0,-1.825425882E0,4.412577903E-1,2.197981559E0
7.283809542E0,1.351173716E0,-1.622650875E0,6.097166580E-1,2.197821803E0
7.293776542E0,1.608637877E0,-1.534118183E0,7.081077558E-1,2.332948995E0
7.303743542E0,1.811822627E0,-1.521277113E0,7.912551624E-1,2.494608190E0
7.313711542E0,2.071641755E0,-1.439226059E0,8.819565868E-1,2.672249732E0
7.323678542E0,2.239882960E0,-1.482159240E0,8.160181206E-1,2.807090533E0
7.333646542E0,2.518466825E0,-1.579724711E0,7.775270694E-1,3.072906386E0
7.343613542E0,2.410080205E0,-1.465171909E0,1.030409206E0,3.002825078E0
7.353580542E0,2.332814805E0,-1.394120638E0,1.242978884E0,2.988409907E0
7.363548542E0,2.372092599E0,-1.222264538E0,1.320578452E0,2.977361474E0
7.373515542E0,2.376414568E0,-9.546912718E-1,1.468819987E0,2.952323454E0
7.383483542E0,2.331833788E0,-6.369389552E-1,1.776361896E0,2.999766930E0
7.393450542E0,2.241459661E0,-4.191985846E-1,2.103160440E0,3.102120678E0
7.403417542E0,2.037932118E0,-3.504692423E-1,2.435308017E0,3.194795947E0
7.413385542E0,1.705328604E0,-5.061466813E-1,2.502870255E0,3.070617140E0
7.423352542E0,1.365168003E0,-6.129548460E-1,2.157372900E0,2.625577108E0
7.433320542E0,1.282843154E0,-3.501312733E-2,2.011355646E0,2.385888516E0
7.443287542E0,1.221976197E0,7.551415890E-1,2.421859421E0,2.815824515E0
7.453254542E0,1.056375448E0,1.175574521E0,2.939718660E0,3.337641434E0
7.463222542E0,9.386411034E-1,1.378034948E0,3.276925832E0,3.676720053E0
7.473189542E0,7.078149565E-1,1.236705406E0,3.492277030E0,3.771795478E0
7.483157542E0,4.524497996E-1,1.011143215E0,3.171160811E0,3.359074621E0
7.493124542E0,4.709489281E-1,1.161558160E0,2.400516499E0,2.708041675E0
7.503091542E0,3.790689243E-1,1.608797652E0,1.872398320E0,2.497558528E0
7.513059542E0,9.659790292E-2,1.915934349E0,1.459256866E0,2.410304168E0
7.523026542E0,-2.563126250E-1,2.237148217E0,5.998348635E-1,2.330306883E0
7.532994542E0,-5.352074893E-1,2.776058017E0,-5.347465825E-1,2.877307609E0
7.542961542E0,-7.757102665E-1,3.367795072E0,-1.567443804E0,3.794818855E0
7.552928542E0,-1.180114811E0,3.813109660E0,-2.543680896E0,4.733158433E0
7.562896542E0,-1.472592318E0,4.143851566E0,-3.395815514E0,5.556221463E0
7.572863542E0,-1.719773712E0,4.211431931E0,-4.324441652E0,6.276509869E0
7.582831542E0,-1.839520303E0,4.126375993E0,-5.313226869E0,6.974323877E0
7.592798542E0,-1.879246725E0,3.964225101E0,-5.881576815E0,7.337546916E0
7.602765542E0,-2.015607449E0,3.867441988E0,-6.211217691E0,7.589400906E0
7.612733542E0,-1.905559488E0,3.484115487E0,-5.931411465E0,7.138057134E0
7.622700542E0,-1.481333029E0,2.780342272E0,-4.177689988E0,5.232374636E0
7.632668542E0,-1.496002085E0,1.959514816E0,-2.256187921E0,3.341871405E0
7.642635542E0,-1.407020180E0,9.923297989E-1,-9.034339947E-1,1.944380930E0
7.652602542E0,-1.290414421E0,2.036269462E-1,1.272120237E-1,1.312560936E0
7.662570542E0,-1.169796814E0,-4.371892977E-1,8.072467124E-1,1.487012550E0
7.672537542E0,-1.103581190E0,-1.160479349E0,1.279058543E0,2.049535196E0
7.682505542E0,-9.684124211E-1,-1.819082238E0,1.252498151E0,2.411562652E0
7.692472542E0,-8.073419490E-1,-2.403585702E0,9.484493691E-1,2.707135286E0
7.702439542E0,-7.263835938E-1,-2.909146492E0,7.209640288E-1,3.083918866E0
7.712407542E0,-5.907615928E-1,-3.153303414E0,5.109659564E-1,3.248600913E0
7.722374542E0,-6.169417700E-1,-3.051694009E0,2.737724841E-1,3.125444743E0
7.732342542E0,-6.200770470E-1,-2.496557600E0,-1.198433626E-1,2.575200541E0
7.742309542E0,-7.829005145E-1,-3.372192762E0,-2.403965771E-1,3.470217249E0
7.752277542E0,-2.590548961E-1,-3.044117187E0,4.076848322E-1,3.082201455E0
7.762244542E0,-4.121237460E-1,-2.809698803E0,5.800987566E-1,2.898407824E0
7.772211542E0,-5.706007587E-1,-2.542072327E0,8.024367929E-2,2.606560184E0
7.782179542E0,-7.443923602E-1,-2.065700837E0,-3.082570231E-1,2.217264605E0
7.792146542E0,-8.958782226E-1,-1.750652273E0,-2.934232217E-1,1.988335575E0
7.802114542E0,-1.103537409E0,-1.422469109E0,-1.829593778E-1,1.809609712E0
7.812081542E0,-1.322981950E0,-1.053999798E0,-7.359130204E-2,1.693107349E0
7.822048542E0,-1.489557722E0,-8.168525183E-1,-5.797572792E-2,1.699820999E0
7.832016542E0,-1.731761381E0,-6.830290478E-1,-1.093616438E-1,1.864801901E0
7.841983542E0,-1.878319941E0,-6.346860230E-1,-1.424264789E-1,1.987761920E0
7.851951542E0,-1.803577176E0,-6.503279096E-1,-5.796344876E-3,1.917250797E0
7.861918542E0,-1.553019015E0,-6.003102422E-1,2.242144078E-1,1.680033497E0
7.871885542E0,-1.371184350E0,-6.286230451E-1,3.621028626E-1,1.551267848E0
7.881853542E0,-1.238281816E0,-5.597416753E-1,4.292803538E-1,1.425108494E0
7.891820083E0,-1.048012687E0,-5.153928834E-1,5.934637374E-1,1.310022757E0
7.901788083E0,-9.477675106E-1,-5.320171022E-1,8.692119956E-1,1.391702175E0
7.911755083E0,-9.174136640E-1,-6.197592509E-1,1.185421232E0,1.622027391E0
7.921722083E0,-9.672143266E-1,-8.235931885E-1,1.412552231E0,1.899766591E0
7.931690083E0,-8.591125385E-1,-1.135268494E0,1.610918437E0,2.149876071E0
7.941657083E0,-6.772484905E-1,-1.467181013E0,1.685945231E0,2.335315174E0
7.951625083E0,-4.267064825E-1,-1.757515735E0,1.590139772E0,2.408211883E0
7.961592083E0,-1.998413126E-1,-1.764959825E0,1.600810940E0,2.391153571E0
7.971559083E0,-3.629846958E-1,-9.798980337E-1,2.072365494E0,2.320917229E0
7.981527083E0,-6.405151123E-1,-7.693532467E-2,2.861109862E0,2.932938508E0
7.991494083E0,-8.512098073E-1,1.049002182E-1,3.864098550E0,3.958133373E0
8.001462083E0,-7.333766444E-1,3.740580797E-1,4.863691760E0,4.932875256E0
8.011429083E0,-3.824896916E-1,3.310763669E-1,5.373926815E0,5.397684627E0
8.021396083E0,-1.726905707E-2,7.105437058E-1,5.233504761E0,5.281547374E0
8.031364083E0,5.102256259E-1,1.228104152E0,4.642699168E0,4.829412549E0
8.041331083E0,9.463285840E-1,1.342648768E0,3.699034576E0,4.047357199E0
8.051299083E0,1.138971755E0,1.270851976E0,2.449800341E0,2.985605987E0
8.061266083E0,1.205925882E0,1.351985017E0,1.253653561E0,2.203126862E0
8.071234083E0,1.080535924E0,1.790678803E0,-2.020797729E-2,2.091529780E0
8.081201083E0,8.340029135E-1,2.317885986E0,-1.102948594E0,2.699009430E0
8.091168083E0,6.353679545E-1,3.212025831E0,-1.940955754E0,3.806325212E0
8.101136083E0,8.748435952E-2,4.487129318E0,-4.564159368E0,6.401057238E0
8.111103083E0,-6.491327387E-1,5.635126031E0,-7.586727811E0,9.472827327E0
8.121071083E0,-1.205893430E0,6.075350034E0,-9.874433978E0,1.165626455E1
8.131038083E0,-1.411040141E0,5.530719903E0,-1.098087687E1,1.237576477E1
8.141005083E0,-1.428415873E0,4.368046094E0,-9.973523233E0,1.098140994E1
8.150973083E0,-1.457992406E0,3.541183142E0,-7.084145592E0,8.053001842E0
8.160940083E0,-1.784741833E0,3.362456564E0,-4.336174675E0,5.770080447E0
8.170908083E0,-1.850492896E0,2.895130132E0,-2.370816151E0,4.174550474E0
8.180875083E0,-1.357805774E0,2.203638409E0,-7.546387285E-1,2.696133967E0
8.190842083E0,-7.090666991E-1,1.464794179E0,5.331836218E-1,1.712507619E0
8.200810083E0,-2.068638917E-1,5.761752748E-1,1.480473488E0,1.602052548E0
8.210777083E0,1.453192426E-1,-2.178684247E-1,1.906819709E0,1.924719651E0
8.220745083E0,3.608898577E-1,-9.708190620E-1,1.774075634E0,2.054282234E0
8.230712083E0,4.602619721E-1,-1.697213400E0,1.171787864E0,2.113163791E0
8.240679083E0,4.984871212E-1,-2.127798852E0,4.891277754E-1,2.239478365E0
8.250647083E0,4.725615902E-1,-2.401476611E0,-1.029928565E-2,2.447551929E0
8.260614083E0,4.446134343E-1,-2.366498567E0,-1.940065223E-1,2.415705923E0
8.270582083E0,5.534351608E-1,-2.262629213E0,-3.872119761E-1,2.361295100E0
8.280549083E0,3.232155894E-1,-2.982533727E0,-3.787586564E-1,3.023811150E0
8.290516083E0,4.520596442E-1,-2.900477995E0,1.921371675E-1,2.941776201E0
8.300484083E0,5.093972216E-1,-2.807527147E0,5.259897923E-1,2.901440930E0
8.310451083E0,5.239723568E-1,-2.699600410E0,1.096048880E-1,2.752163265E0
8.320419083E0,7.510177671E-1,-2.597238468E0,-3.288474083E-2,2.703841111E0
8.330386083E0,9.653446063E-1,-2.418301975E0,2.029159248E-2,2.603936712E0
8.340354083E0,1.147874214E0,-2.274815395E0,2.775673270E-3,2.548020408E0
8.350321083E0,1.283186532E0,-2.208585738E0,-1.207742393E-1,2.557147836E0
8.360288083E0,1.382059001E0,-2.101041409E0,-2.673855704E-1,2.529022959E0
8.370256083E0,1.618151151E0,-2.134209740E0,-3.462323499E-1,2.700581641E0
8.380223083E0,1.752210849E0,-2.062291911E0,-3.791328782E-1,2.732587148E0
8.390191083E0,1.827553976E0,-1.940436521E0,-2.643917960E-1,2.678647131E0
8.400158083E0,1.801055126E0,-1.834606596E0,-6.759732127E-2,2.571799045E0
8.410125083E0,1.888301723E0,-1.683487646E0,3.338116944E-2,2.530005604E0
8.420093083E0,2.075871046E0,-1.241025329E0,2.904002112E-1,2.435922156E0
8.430060083E0,1.977838528E0,-9.395189166E-1,7.282555068E-1,2.307573861E0
8.440028083E0,2.026478153E0,-5.209553397E-1,1.098267898E0,2.363091312E0
8.449995083E0,2.160951980E0,5.490067720E-2,1.501055102E0,2.631709324E0
8.459962083E0,2.162864897E0,5.403903151E-1,1.891738570E0,2.923812763E0
8.469930083E0,2.196133069E0,8.628642583E-1,2.178502983E0,3.211449895E0
8.479897083E0,2.093319283E0,9.951914263E-1,2.322728065E0,3.281380390E0
8.489865083E0,1.845454642E0,9.879759622E-1,2.293323587E0,3.105017297E0
8.499832083E0,1.581055245E0,1.366190827E0,2.244419814E0,3.066534423E0
8.509799083E0,1.440132524E0,2.114612212E0,2.535856737E0,3.602240398E0
8.519767083E0,1.332552234E0,2.744930949E0,3.127283889E0,4.369238595E0
8.529734083E0,1.180059189E0,3.015333683E0,3.814557431E0,5.003561262E0
8.539702083E0,1.026697247E0,2.558767882E0,4.468485471E0,5.250596415E0
8.549669083E0,6.687478083E-1,1.992345763E0,4.444274490E0,4.916120524E0
8.559637083E0,3.833475512E-1,1.900587747E0,3.570616271E0,4.063064076E0
8.569604083E0,3.592747837E-1,1.778052911E0,2.598632444E0,3.169138858E0
8.579571083E0,3.462393665E-1,1.405039728E0,1.609915055E0,2.164681229E0
8.589539083E0,3.124453837E-1,1.117946118E0,5.231819594E-1,1.273241926E0
8.599506083E0,3.862425077E-1,9.696057647E-1,-6.619901812E-1,1.235940781E0
8.609474083E0,5.386072066E-1,1.022896119E0,-1.892592849E0,2.217728992E0
8.619441083E0,5.972484939E-1,1.102375567E0,-3.044139991E0,3.292222037E0
8.629408083E0,6.962319877E-1,1.246284315E0,-4.035438926E0,4.280505916E0
8.639376083E0,8.122537563E-1,1.545864655E0,-4.598021763E0,4.918460921E0
8.649343083E0,7.479232013E-1,1.932438115E0,-5.134690325E0,5.537034488E0
8.659311083E0,6.222827630E-1,2.481797474E0,-5.693639703E0,6.242122043E0
8.669278083E0,4.425615732E-1,3.248318914E0,-6.108961583E0,6.933025901E0
8.679245083E0,2.167742644E-1,3.942590988E0,-6.554292544E0,7.651781854E0
8.689213083E0,-4.138031394E-1,4.148925195E0,-6.309121715E0,7.562395793E0
8.699180083E0,-1.491368459E0,3.329202864E0,-4.671604294E0,5.927196493E0
8.709148083E0,-2.049810298E0,2.599829954E0,-2.424107090E0,4.103307597E0
8.719115083E0,-2.077593197E0,2.449618492E0,-7.097525775E-1,3.289494334E0
8.729083083E0,-2.430913834E0,1.783088533E0,4.619323754E-1,3.049939065E0
8.739050083E0,-2.591795587E0,8.495782149E-1,1.382341422E0,3.057786015E0
8.749017083E0,-2.411409715E0,9.309527457E-2,1.781399857E0,2.999491456E0
8.758985083E0,-2.411408692E0,-6.614434665E-1,1.569699075E0,2.952347291E0
8.768952083E0,-2.379191849E0,-1.317553688E0,1.038587707E0,2.911213836E0
8.778920083E0,-2.051120659E0,-1.713510759E0,6.951497412E-1,2.761602477E0
8.788887083E0,-1.473452151E0,-1.763948257E0,4.978711170E-1,2.351690954E0
8.798854083E0,-1.212966953E0,-1.620401452E0,2.460771471E-1,2.039005556E0
8.808822083E0,-1.207774626E0,-6.482287592E-1,1.076519179E-1,1.374957820E0
8.818789083E0,-8.928701225E-1,-2.056297345E0,-9.602221531E-1,2.438770676E0
8.828757083E0,-6.304122200E-1,-2.152769387E0,-4.463466221E-1,2.287151265E0
8.838724083E0,-4.632637864E-1,-1.836536762E0,-1.089219332E-1,1.897193875E0
8.848691083E0,-4.717486811E-1,-1.702196397E0,-3.177523166E-1,1.794710541E0
8.858659083E0,-3.855893737E-1,-1.429310351E0,-4.241570234E-1,1.539972865E0
8.868626083E0,-2.843538248E-1,-1.194740524E0,-1.766408765E-1,1.240751392E0
8.878594083E0,-2.258431497E-1,-9.725480837E-1,1.632273638E-1,1.011680817E0
8.888561083E0,-1.689930108E-1,-7.339530337E-1,5.191257459E-1,9.147334220E-1
8.898528667E0,2.155999973E-2,-6.885207528E-1,7.054414254E-1,9.859884712E-1
8.908496667E0,1.257830373E-1,-7.287870187E-1,5.833223265E-1,9.419218798E-1
8.918463667E0,1.457068399E-1,-8.217723656E-1,4.574779665E-1,9.517491234E-1
8.928431667E0,1.666009149E-1,-1.010143926E0,5.221756536E-1,1.149266736E0
8.938398667E0,2.563608646E-1,-1.220312737E0,6.078689378E-1,1.387223383E0
8.948365667E0,3.851894972E-1,-1.477020122E0,4.503373468E-1,1.591465713E0
8.958333667E0,3.935863913E-1,-1.718117781E0,2.475442135E-1,1.779920530E0
8.968300667E0,4.219805436E-1,-1.716485823E0,2.643046725E-1,1.787245959E0
8.978268667E0,4.244646601E-1,-1.588441740E0,4.156329525E-1,1.695897450E0
8.988235667E0,4.558476166E-1,-1.503292832E0,5.720985961E-1,1.671820323E0
8.998203667E0,5.479503264E-1,-1.350479944E0,7.903301328E-1,1.657910540E0
9.008170667E0,5.922100943E-1,-1.137602702E0,1.118605683E0,1.701802391E0
9.018137667E0,5.760368420E-1,-9.220567918E-1,1.445284359E0,1.808550262E0
9.028105667E0,5.084349161E-1,-6.709814447E-1,1.776186479E0,1.965594203E0
9.038072667E0,5.008472036E-1,-7.088094217E-1,1.928571351E0,2.114863157E0
9.048040667E0,5.215517557E-1,-8.406524402E-1,2.079523070E0,2.302852353E0
9.058007667E0,6.136972962E-1,-1.054972774E0,2.026211082E0,2.365401292E0
9.067974667E0,4.785649996E-1,-1.272779219E0,1.707061281E0,2.182441205E0
9.077942667E0,4.149795261E-1,-1.282872682E0,1.387016855E0,1.934369686E0
9.087909667E0,5.946976461E-2,-7.255400598E-1,1.478366151E0,1.647880915E0
9.097877667E0,-3.335391410E-1,4.183799744E-2,2.128060223E0,2.154446353E0
9.107844667E0,-8.586769941E-1,4.102985376E-1,2.774000967E0,2.932703946E0
9.117811667E0,-1.182711705E0,6.571837699E-1,3.165821718E0,3.442836713E0
9.127779667E0,-9.983907303E-1,1.206571780E0,3.387892537E0,3.732347164E0
9.137746667E0,-5.750893007E-1,2.047403145E0,3.458491234E0,4.060018344E0
9.147714667E0,3.006207056E-2,2.656174309E0,3.410801343E0,4.323162209E0
9.157681667E0,6.830491477E-1,2.889692806E0,3.161915778E0,4.337579053E0
9.167649667E0,1.332409708E0,2.823956069E0,2.484343352E0,3.990238765E0
9.177616667E0,1.627540025E0,2.718494518E0,1.614728483E0,3.556184339E0
9.187583667E0,1.819716076E0,2.704840100E0,5.726751316E-1,3.309906852E0
9.197551667E0,1.883669997E0,2.857860564E0,-5.173008299E-1,3.461672979E0
9.207518667E0,1.669279497E0,2.939927405E0,-1.717459384E0,3.792009220E0
9.217486667E0,1.250321379E0,2.995390584E0,-3.169079787E0,4.536379062E0
9.227453667E0,9.455541933E-1,2.957754981E0,-4.622299987E0,5.568486727E0
9.237420667E0,6.439307633E-1,2.618633430E0,-5.791758905E0,6.388768198E0
9.247388667E0,2.182146529E-1,2.110888120E0,-6.492472857E0,6.830495596E0
9.257355667E0,-2.272403419E-1,1.529349779E0,-6.545432258E0,6.725565580E0
9.267323667E0,-4.860662464E-1,1.067585219E0,-5.653728948E0,5.774136265E0
9.277290667E0,-5.102628288E-1,1.108298212E0,-3.925550448E0,4.110795470E0
9.287257667E0,-4.847471876E-1,1.093390735E0,-1.930538355E0,2.271004508E0
9.297225667E0,-2.917549380E-1,8.259309053E-1,4.968729973E-2,8.773549065E-1
9.307192667E0,-6.648021072E-2,4.237366086E-1,1.572922060E0,1.630354606E0
9.317160667E0,1.637820453E-1,-2.482406169E-1,2.382248043E0,2.400740240E0
9.327127667E0,3.992713467E-1,-9.291178894E-1,2.333337838E0,2.543057830E0
9.337095667E0,5.567272163E-1,-1.647885119E0,1.961570697E0,2.621684604E0
9.347062667E0,7.863033016E-1,-2.268890997E0,1.683347313E0,2.932541119E0
9.357029667E0,9.452839789E-1,-2.783771664E0,1.494486340E0,3.297944193E0
9.366997667E0,9.612603993E-1,-3.073940325E0,1.389532912E0,3.507696166E0
9.376964667E0,9.128581714E-1,-3.078884731E0,1.339987700E0,3.479713819E0
9.386932667E0,7.284428369E-1,-2.861938412E0,1.305137710E0,3.228731157E0
9.396899667E0,5.083808293E-1,-2.324975735E0,1.359356602E0,2.740768798E0
9.406866667E0,4.437672691E-1,-2.564219241E0,1.029602875E0,2.798612475E0
9.416834667E0,4.581706423E-1,-1.954150581E0,1.362952055E0,2.426162223E0
9.426801667E0,6.095902850E-1,-2.341416351E0,1.285501006E0,2.739770735E0
9.436769667E0,7.679044528E-1,-2.109031044E0,1.430706081E0,2.661692898E0
9.446736667E0,1.044549674E0,-1.962241373E0,1.351085715E0,2.601328091E0
9.456703667E0,1.341243390E0,-1.928926862E0,1.406892126E0,2.738437168E0
9.466671667E0,1.604511497E0,-1.842406197E0,1.604242086E0,2.922757330E0
9.476638667E0,1.927933128E0,-1.859402883E0,1.745347095E0,3.196958196E0
9.486606667E0,2.318536196E0,-1.988884211E0,1.700585489E0,3.496178128E0
9.496573667E0,2.635282792E0,-2.108762072E0,1.668445099E0,3.765010215E0
9.506541667E0,2.911189510E0,-2.198871174E0,1.644914734E0,4.001974923E0
9.516508667E0,3.207373202E0,-2.390734107E0,1.609138545E0,4.311864942E0
9.526475667E0,3.372000389E0,-2.464570992E0,1.594742700E0,4.470760682E0
9.536443667E0,3.334032664E0,-2.535373757E0,1.399593047E0,4.416192318E0
9.546410667E0,3.334302220E0,-2.468449450E0,1.139262142E0,4.302177613E0
9.556378667E0,3.263548572E0,-2.198918536E0,9.494708776E-1,4.048146114E0
9.566345667E0,3.129835322E0,-1.894884372E0,7.570670772E-1,3.736255677E0
9.576312667E0,2.895154690E0,-1.489900954E0,7.837315500E-1,3.349023839E0
9.586280667E0,2.935159878E0,-1.275017533E0,8.380054057E-1,3.308033597E0
9.596247667E0,2.948103274E0,-1.008207328E0,9.061658138E-1,3.244831493E0
9.606215667E0,2.993503688E0,-8.501155740E-1,9.303773797E-1,3.247978277E0
9.616182667E0,3.195770572E0,-5.318510413E-1,9.761850518E-1,3.383600498E0
9.626149667E0,3.337469072E0,-3.824757314E-1,1.068436573E0,3.525130381E0
9.636117667E0,3.167590793E0,-5.227293849E-1,1.316659648E0,3.469938050E0
9.646084667E0,2.729184982E0,-9.587913394E-1,1.688426204E0,3.349405103E0
9.656052667E0,2.419831606E0,-1.411710817E0,1.870953473E0,3.368824621E0
9.666019667E0,2.410112072E0,-1.559705014E0,2.025745059E0,3.513539949E0
9.675987667E0,2.418183568E0,-1.307418124E0,2.472584016E0,3.697380916E0
9.685954667E0,2.465281429E0,-6.710235447E-1,3.296074294E0,4.170370592E0
9.695921667E0,2.671872913E0,-2.120878673E-1,3.950349659E0,4.773798127E0
9.705889667E0,3.048577150E0,1.513411438E-1,4.573990291E0,5.498919346E0
9.715856667E0,3.272190757E0,3.727073729E-1,4.987983685E0,5.977133458E0
9.725824667E0,3.319071393E0,6.498694879E-1,5.002767200E0,6.038728750E0
9.735791667E0,3.244209491E0,8.366137683E-1,4.277469215E0,5.433374707E0
9.745758667E0,3.131716371E0,6.679917634E-1,2.939590605E0,4.346844068E0
9.755726667E0,2.786763392E0,3.598470068E-1,1.454458641E0,3.164014856E0
9.765693667E0,2.356405981E0,2.242500758E-1,-2.994593024E-2,2.367241855E0
9.775661667E0,1.831806656E0,1.128728968E-1,-1.293914564E0,2.245544659E0
9.785628667E0,1.311719190E0,9.717721581E-2,-2.307803047E0,2.656314279E0
9.795596667E0,6.734246307E-1,2.445504391E-1,-3.099904886E0,3.181621592E0
9.805563667E0,1.232177176E-1,3.011035395E-1,-3.818456939E0,3.832291657E0
9.815530667E0,-3.296345897E-1,5.160448480E-1,-4.625538760E0,4.665894348E0
9.825498667E0,-7.747277880E-1,1.067992769E0,-5.333971036E0,5.494730086E0
9.835465667E0,-1.201627740E0,1.962133784E0,-5.738597775E0,6.182667922E0
9.845433667E0,-1.532228363E0,2.878459135E0,-5.536288791E0,6.425242744E0
9.855400667E0,-1.883896869E0,3.458475446E0,-4.293005852E0,5.825806302E0
9.865367667E0,-2.237843597E0,3.683293871E0,-2.051986778E0,4.773389513E0
9.875335667E0,-2.302568912E0,3.843818652E0,1.747054482E-1,4.484115010E0
9.885302667E0,-2.217611500E0,3.903154442E0,1.854721602E0,4.857201621E0
9.895270667E0,-1.994972040E0,3.586517774E0,2.853593266E0,4.998601576E0
9.905237667E0,-1.935628648E0,2.834587476E0,3.063034683E0,4.600404971E0
9.915205667E0,-1.881371603E0,1.549354273E0,2.675834402E0,3.619412593E0
9.925172667E0,-1.637280317E0,3.808618999E-1,1.837563533E0,2.490458263E0
9.935139667E0,-1.237373743E0,-5.147257161E-1,8.556154650E-1,1.590004455E0
9.945107667E0,-9.218278733E-1,-1.144030547E0,1.235113209E-1,1.474390574E0
9.955074667E0,-7.175430422E-1,-1.501386055E0,-3.255051398E-1,1.695577099E0
9.965042667E0,-5.768924358E-1,-1.517436662E0,-2.786087161E-1,1.647131361E0
9.975009667E0,-3.651843452E-1,-1.685354077E0,-5.446833408E-1,1.808440741E0
9.984976667E0,-1.117531550E-1,-2.022009857E0,-4.106791914E-1,2.066317988E0
9.994944667E0,1.431976535E-1,-2.007055019E0,5.660093057E-1,2.090249255E0
1.000491167E1,2.246717332E-1,-1.808155546E0,1.229301662E0,2.197973258E0
1.001487967E1,2.293487017E-1,-1.701165533E0,1.425755829E0,2.231444528E0
1.002484667E1,2.488975516E-1,-1.577338462E0,1.717001547E0,2.344790167E0
1.003481467E1,2.847835220E-1,-1.431766766E0,2.043301908E0,2.511202982E0
1.004478167E1,1.995939023E-1,-1.274228159E0,2.272304016E0,2.612826184E0
1.005474867E1,1.860100894E-1,-1.216690972E0,2.422072259E0,2.716867811E0
1.006471667E1,3.380407662E-1,-1.289951906E0,2.361842430E0,2.712295548E0
1.007468367E1,5.183430961E-1,-1.459022977E0,2.234603509E0,2.718617379E0
1.008465167E1,6.843435019E-1,-1.671532429E0,1.949617234E0,2.657697133E0
1.009461867E1,9.242553449E-1,-1.958095697E0,1.679765308E0,2.740437592E0
1.010458567E1,1.181898504E0,-2.196983693E0,1.525097684E0,2.923960390E0
1.011455367E1,1.499376074E0,-2.398582240E0,1.357374980E0,3.137481826E0
1.012452067E1,1.813407808E0,-2.497142322E0,1.202194555E0,3.312014402E0
1.013448867E1,2.114474802E0,-2.555402225E0,1.088549241E0,3.490848560E0
1.014445567E1,2.430279119E0,-2.589713686E0,1.131440322E0,3.727335613E0
1.015442367E1,2.733023972E0,-2.608823556E0,1.121539232E0,3.941221971E0
1.016439067E1,2.834481349E0,-2.364868948E0,1.462130188E0,3.970480368E0
1.017435767E1,2.679386585E0,-2.021904607E0,1.655191215E0,3.742575139E0
1.018432567E1,2.599478536E0,-1.836842571E0,1.697762454E0,3.607447386E0
1.019429267E1,2.587711015E0,-1.584043465E0,1.765826383E0,3.510496376E0
1.020426067E1,2.502305706E0,-1.416869815E0,1.832807407E0,3.410020075E0
1.021422767E1,2.433841242E0,-1.153884274E0,1.713455796E0,3.192328754E0
1.022419467E1,2.427768617E0,-9.407111639E-1,1.447970570E0,2.979197329E0
1.023416267E1,2.363393696E0,-7.374496686E-1,1.387619703E0,2.838124419E0
1.024412967E1,2.136701238E0,-5.895338237E-1,1.331392293E0,2.585661956E0
1.025409767E1,1.809159513E0,-2.001133543E-1,1.330404114E0,2.254568385E0
1.026406467E1,1.472897104E0,6.610750920E-1,1.830028811E0,2.440379398E0
1.027403267E1,1.074589671E0,1.419092926E0,2.736993939E0,3.264920139E0
1.028399967E1,5.218440434E-1,1.671951674E0,3.393547964E0,3.818888763E0
1.029396667E1,1.915258411E-1,1.523897835E0,3.372463489E0,3.705732956E0
1.030393467E1,4.001887017E-1,1.698124981E0,2.933897756E0,3.413434560E0
1.031390167E1,1.054587589E0,2.227333081E0,2.451532871E0,3.476087032E0
1.032386967E1,1.560428315E0,2.846239223E0,2.066606571E0,3.847970499E0
1.033383667E1,1.821240299E0,2.980575494E0,1.443603285E0,3.779515438E0
1.034380367E1,1.808647005E0,2.955610222E0,8.088558662E-1,3.558241642E0
1.035377167E1,1.653664946E0,2.653565866E0,1.448331928E-1,3.130015369E0
1.036373867E1,1.497953447E0,2.228594325E0,-7.062384009E-1,2.776557198E0
1.037370667E1,1.161621529E0,1.652627211E0,-1.687084268E0,2.631880431E0
1.038367367E1,7.684328219E-1,9.798495018E-1,-2.523902104E0,2.814369535E0
1.039364167E1,3.718976066E-1,2.586556774E-1,-3.194311107E0,3.226272468E0
1.040360867E1,-9.438626669E-2,-3.751041466E-1,-3.733534902E0,3.753517651E0
1.041357567E1,-6.012259892E-1,-6.621118033E-1,-3.925237037E0,4.025835382E0
1.042354367E1,-9.250526858E-1,-6.131279236E-1,-3.627706146E0,3.793665800E0
1.043351067E1,-9.749499737E-1,-4.568786269E-1,-2.720241666E0,2.925573491E0
1.044347867E1,-7.731406344E-1,-1.806316012E-1,-1.350317391E0,1.566439042E0
1.045344567E1,-3.810563929E-1,-2.350288332E-2,1.454787254E-2,3.820575881E-1
1.046341367E1,6.923220277E-2,-5.185544729E-2,1.271912076E0,1.274849958E0
1.047338067E1,6.352677479E-1,-1.241521758E-1,2.184128589E0,2.278024707E0
1.048334767E1,1.227885320E0,-2.616424352E-1,2.802275763E0,3.070652793E0
1.049331567E1,1.710412320E0,-4.560535848E-1,2.944369535E0,3.435521377E0
1.050328267E1,1.961716732E0,-7.467426485E-1,2.648577606E0,3.379485235E0
1.051325067E1,1.899875556E0,-1.143238249E0,2.072130436E0,3.034838606E0
1.052321767E1,1.626281704E0,-1.500556335E0,1.339940338E0,2.586871006E0
1.053318467E1,1.346680423E0,-1.733840944E0,8.382492346E-1,2.349981778E0
1.054315267E1,1.046215034E0,-1.855250190E0,5.967633212E-1,2.211932555E0
1.055311967E1,8.436052841E-1,-1.916424345E0,6.410185575E-1,2.189807512E0
1.056308767E1,7.325382999E-1,-1.837765846E0,8.314085770E-1,2.145981335E0
1.057305467E1,7.309192789E-1,-1.744782254E0,9.519565290E-1,2.117717955E0
1.058302267E1,9.460666287E-1,-1.579514796E0,9.843717384E-1,2.087797111E0
1.059298967E1,1.218602061E0,-1.474808705E0,9.886963391E-1,2.153502299E0
1.060295667E1,1.535198895E0,-1.460419292E0,9.557753456E-1,2.324471266E0
1.061292467E1,1.831063183E0,-1.416522490E0,1.057018715E0,2.544919824E0
1.062289167E1,2.143388991E0,-1.426554558E0,9.244155586E-1,2.735638573E0
1.063285967E1,2.441109916E0,-1.400554329E0,1.030040832E0,2.996924118E0
1.064282667E1,2.676658567E0,-1.378467641E0,1.097458643E0,3.204542026E0
1.065279467E1,2.904047428E0,-1.417992480E0,1.137249531E0,3.426007973E0
1.066276167E1,2.957329596E0,-1.452134373E0,1.121877201E0,3.480388057E0
1.067272867E1,2.936764646E0,-1.520910493E0,1.208557495E0,3.521131428E0
1.068269667E1,2.924950055E0,-1.626038752E0,1.194552829E0,3.553349308E0
1.069266367E1,2.818495354E0,-1.716545464E0,1.205933849E0,3.513505492E0
1.070263167E1,2.728643238E0,-1.819554108E0,1.096482158E0,3.458112808E0
1.071259867E1,2.710209013E0,-1.921897339E0,9.864124167E-1,3.465823385E0
1.072256567E1,2.575523371E0,-1.998184208E0,9.624873644E-1,3.398888449E0
1.073253367E1,2.488879914E0,-2.080860913E0,9.670616412E-1,3.385219872E0
1.074250067E1,2.439895303E0,-2.143258891E0,1.042421726E0,3.410761032E0
1.075246867E1,2.402596646E0,-2.152003402E0,1.179478122E0,3.434349709E0
1.076243567E1,2.386255140E0,-2.080574985E0,1.371200722E0,3.450101053E0
1.077240367E1,2.500595980E0,-1.907011498E0,1.511677154E0,3.489246470E0
1.078237067E1,2.540397392E0,-1.812202989E0,1.664190080E0,3.536555840E0
1.079233767E1,2.589006758E0,-1.542380299E0,2.042228944E0,3.640410971E0
1.080230567E1,2.553750386E0,-1.278108956E0,2.381261618E0,3.718280574E0
1.081227267E1,2.452811657E0,-1.196425107E0,2.651314688E0,3.804889963E0
1.082224067E1,2.289684865E0,-1.276813213E0,2.883682453E0,3.897246881E0
1.083220767E1,2.081133394E0,-1.323010894E0,2.904005036E0,3.809818798E0
1.084217567E1,2.045553817E0,-8.522346050E-1,3.118110192E0,3.825337294E0
1.085214267E1,2.135985831E0,-2.371899641E-1,3.564334608E0,4.162111933E0
1.086210967E1,2.420937607E0,3.335152406E-1,4.013768560E0,4.699203056E0
1.087207767E1,2.762488676E0,7.785275280E-1,4.448751703E0,5.294227093E0
1.088204467E1,2.947828455E0,1.138762205E0,4.856998453E0,5.794558303E0
1.089201267E1,3.008652070E0,1.455539206E0,4.843772635E0,5.884956669E0
1.090197904E1,2.842329774E0,1.815173959E0,4.221713675E0,5.403384254E0
1.091194704E1,2.490458662E0,1.989264865E0,3.180277205E0,4.502635023E0
1.092191404E1,2.002490974E0,1.970316378E0,1.935282201E0,3.411368336E0
1.093188104E1,1.434675464E0,2.037649990E0,7.466812527E-1,2.601508036E0
1.094184904E1,8.006938840E-1,2.154298434E0,-3.501166552E-1,2.324799800E0
1.095181604E1,1.530114650E-1,2.286658346E0,-1.468561540E0,2.721927974E0
1.096178404E1,-3.104950083E-1,2.360544348E0,-2.557627675E0,3.494286206E0
1.097175104E1,-7.255239069E-1,2.370271776E0,-3.635910959E0,4.400502441E0
1.098171804E1,-9.334880253E-1,2.381821781E0,-4.738663087E0,5.385109353E0
1.099168604E1,-9.429745480E-1,2.396504724E0,-5.757193674E0,6.306957658E0
1.100165304E1,-8.842029409E-1,2.417475178E0,-6.335056456E0,6.838050992E0
1.101162104E1,-8.307561008E-1,2.428184354E0,-6.309600602E0,6.811555969E0
1.102158804E1,-5.732194342E-1,2.465427609E0,-5.281706868E0,5.856905434E0
1.103155604E1,-7.283263312E-1,2.341099432E0,-3.433220737E0,4.218792532E0
1.104152304E1,-8.216712087E-1,2.039540979E0,-1.815782654E0,2.851655244E0
1.105149004E1,-5.853751743E-1,1.560957488E0,-8.382094735E-1,1.865970926E0
1.106145804E1,-4.613149825E-1,7.885829848E-1,-1.934001660E-1,9.338513058E-1
1.107142504E1,-3.374063068E-1,8.467060626E-2,3.442922437E-1,4.894377146E-1
1.108139304E1,-3.493015168E-1,-5.244490510E-1,8.460757327E-1,1.054941943E0
1.109136004E1,-3.745115313E-1,-1.147511394E0,1.217665703E0,1.714570223E0
1.110132804E1,-4.316304959E-1,-1.745381593E0,1.275886429E0,2.204665047E0
1.111129504E1,-4.520018664E-1,-2.144941134E0,1.120228286E0,2.461704607E0
1.112126204E1,-3.944696498E-1,-2.418506627E0,9.524272299E-1,2.629048923E0
1.113123004E1,-3.306001843E-1,-2.470607657E0,8.403185642E-1,2.630462691E0
1.114119704E1,-3.343252626E-1,-1.903269864E0,7.602520555E-1,2.076581986E0
1.115116504E1,-1.167111371E-1,-2.651698850E0,4.034444314E-1,2.684752445E0
1.116113204E1,4.186167866E-2,-2.630264711E0,1.000453920E0,2.814418750E0
1.117110004E1,1.510454026E-1,-2.240613862E0,1.432980064E0,2.663943891E0
1.118106704E1,2.886621264E-1,-2.140823525E0,1.129733520E0,2.437775423E0
1.119103404E1,3.289486748E-1,-1.803052681E0,6.614978456E-1,1.948534219E0
1.120100204E1,4.243839685E-1,-1.597555211E0,7.059992498E-1,1.797420191E0
1.121096904E1,3.976007606E-1,-1.461604523E0,4.602185565E-1,1.583090416E0
1.122093704E1,3.352101656E-1,-1.282563365E0,2.540404701E-1,1.349767091E0
1.123090404E1,2.378739421E-1,-1.059506705E0,1.327499217E-1,1.093965727E0
1.124087204E1,9.308644893E-2,-8.833698589E-1,5.344004273E-2,8.898669747E-1
1.125083904E1,-7.930989722E-2,-7.813961720E-1,-1.434088111E-2,7.855416592E-1
1.126080604E1,-2.637428281E-1,-7.601181543E-1,-3.758590221E-3,8.045831311E-1
1.127077404E1,-4.033100186E-1,-8.799644405E-1,-3.189890027E-2,9.685111912E-1
1.128074104E1,-4.229940488E-1,-1.007250724E0,-6.961110234E-2,1.094679721E0
1.129070904E1,-3.847723350E-1,-1.079910564E0,-8.212297440E-2,1.149347972E0
1.130067604E1,-3.655113873E-1,-1.055252856E0,1.066935593E-1,1.121846995E0
1.131064404E1,-3.953820712E-1,-1.111440505E0,2.999148005E-1,1.217200011E0
1.132061104E1,-3.315149812E-1,-1.079336953E0,5.081288874E-1,1.238170185E0
1.133057804E1,-3.232460681E-1,-1.040688027E0,8.279423475E-1,1.368578869E0
1.134054604E1,-3.224298698E-1,-9.847032756E-1,1.126728635E0,1.530724985E0
1.135051304E1,-3.328444187E-1,-8.715684235E-1,1.395590628E0,1.678716809E0
1.136048104E1,-3.842684877E-1,-7.331700915E-1,1.734196454E0,1.921623791E0
1.137044804E1,-3.938941741E-1,-6.257508928E-1,2.090894151E0,2.217781583E0
1.138041604E1,-3.890631680E-1,-6.164193213E-1,2.388035617E0,2.496809371E0
1.139038304E1,-2.876067770E-1,-7.439950418E-1,2.556775736E0,2.678310744E0
1.140035004E1,-1.334614182E-1,-8.646312869E-1,2.580216054E0,2.724502541E0
1.141031804E1,-5.798093331E-3,-1.011233847E0,2.345325215E0,2.554051267E0
1.142028504E1,-1.438908592E-1,-4.096518356E-1,2.698082473E0,2.732794949E0
1.143025304E1,-3.838080195E-1,6.050739688E-1,3.430442140E0,3.504476620E0
1.144022004E1,-6.578331763E-1,1.281442453E0,4.162691295E0,4.404865272E0
1.145018804E1,-6.445219899E-1,1.490034855E0,4.957906777E0,5.216938956E0
1.146015504E1,-3.105933877E-1,1.181952079E0,5.109666581E0,5.253776883E0
1.147012204E1,1.084435761E-1,1.025435565E0,4.469622754E0,4.587025798E0
1.148009004E1,5.104775678E-1,1.066159083E0,3.303047099E0,3.508190798E0
1.149005704E1,7.821680045E-1,9.905235940E-1,2.204350600E0,2.540095538E0
1.150002504E1,7.287328588E-1,7.460023910E-1,1.152811895E0,1.554524497E0
1.150999204E1,5.351215352E-1,4.994405097E-1,-3.577326536E-2,7.328544239E-1
1.151996004E1,2.210419644E-1,4.877794075E-1,-1.393979135E0,1.493307112E0
1.152992704E1,-5.307607183E-2,7.500960267E-1,-2.816111444E0,2.914780401E0
1.153989404E1,-5.000600953E-1,1.179835972E0,-4.240683796E0,4.430064568E0
1.154986204E1,-9.426608448E-1,1.648990243E0,-5.662296288E0,5.972384578E0
1.155982904E1,-1.586704386E0,1.964890162E0,-6.927630247E0,7.373634449E0
1.156979704E1,-2.083496838E0,1.951315266E0,-7.409661257E0,7.940508188E0
1.157976404E1,-2.332291040E0,1.852028375E0,-6.878952761E0,7.495971030E0
1.158973204E1,-2.238675656E0,2.044456149E0,-5.383425617E0,6.178409262E0
1.159969904E1,-1.759713703E0,2.395459242E0,-3.546843832E0,4.627625575E0
1.160966604E1,-1.365420311E0,2.593864625E0,-1.730386409E0,3.403930587E0
1.161963404E1,-8.364309698E-1,2.577094225E0,1.144229937E-1,2.711848822E0
1.162960104E1,-1.889805298E-1,2.231572312E0,1.188195736E0,2.535239186E0
1.163956904E1,2.379910691E-1,1.574952214E0,1.620873322E0,2.272519428E0
1.164953604E1,6.928331474E-1,7.712027210E-1,1.532620711E0,1.850323661E0
1.165950404E1,1.049919611E0,9.588673532E-2,1.133648815E0,1.548123086E0
1.166947104E1,1.265378252E0,-3.408868253E-1,2.506835836E-1,1.334251928E0
1.167943804E1,1.325540400E0,-7.146788567E-1,-5.864003009E-1,1.616071945E0
1.168940604E1,1.402940870E0,-9.224894857E-1,-1.204720552E0,2.066538542E0
1.169937304E1,1.539984549E0,-1.013475670E0,-1.446476607E0,2.343284003E0
1.170934104E1,1.572690218E0,-8.568597525E-1,-1.367467275E0,2.253337504E0
1.171930804E1,1.179226619E0,-7.638328904E-1,-1.104398704E0,1.787096136E0
1.172927604E1,9.424048830E-1,-1.258130774E0,-8.357203138E-1,1.780294484E0
1.173924304E1,6.585625434E-1,-1.281159448E0,-4.604389966E-2,1.441247444E0
1.174921004E1,2.878048332E-1,-1.394452175E0,3.305553800E-1,1.461709735E0
1.175917804E1,2.166306970E-1,-1.515168527E0,4.274905211E-1,1.589154703E0
1.176914504E1,1.594613915E-1,-1.462921901E0,6.225021797E-1,1.597835219E0
1.177911304E1,4.404907087E-1,-1.499524301E0,7.647450560E-1,1.739954079E0
1.178908004E1,3.530579143E-1,-1.502360201E0,1.055161055E0,1.869518899E0
1.179904804E1,3.927132193E-1,-1.364714990E0,1.223212371E0,1.874278310E0
1.180901504E1,6.272533348E-1,-1.233110538E0,1.169572939E0,1.811604042E0
1.181898204E1,4.842203901E-1,-1.119559364E0,1.106597257E0,1.646948707E0
1.182895004E1,4.634212593E-1,-1.115266339E0,1.093284316E0,1.629063800E0
1.183891704E1,3.873141561E-1,-1.151550066E0,8.936861014E-1,1.508228981E0
1.184888504E1,1.957436204E-1,-1.198669853E0,7.960317528E-1,1.452167874E0
1.185885204E1,5.370674886E-2,-1.310383832E0,6.121648872E-1,1.447320300E0
1.186882004E1,-9.345120555E-2,-1.432111752E0,4.841985726E-1,1.514637071E0
1.187878704E1,-1.817853665E-1,-1.607611837E0,5.430461204E-1,1.706564041E0
1.188875404E1,-2.779463362E-1,-1.739242601E0,7.554146540E-1,1.916473400E0
1.189872183E1,-3.478155931E-1,-1.813291156E0,9.713698697E-1,2.086278966E0
1.190868883E1,-3.072135875E-1,-1.844976048E0,1.288493611E0,2.271240320E0
1.191865683E1,-2.716506209E-1,-1.837429631E0,1.731839442E0,2.539529398E0
1.192862383E1,-2.798943179E-1,-1.846605667E0,2.029594281E0,2.758178069E0
1.193859183E1,-2.056576659E-1,-1.899445201E0,2.142926184E0,2.870944056E0
1.194855883E1,-2.899038192E-1,-2.054480031E0,2.153191556E0,2.990178305E0
1.195852583E1,-2.767898301E-1,-2.238510618E0,2.031071872E0,3.035258695E0
1.196849383E1,-9.565025199E-2,-1.563588735E0,1.981421995E0,2.525864569E0
1.197846083E1,8.957366103E-2,-4.570651531E-1,2.354922250E0,2.400539689E0
1.198842883E1,2.796404756E-1,5.794760281E-1,3.114668521E0,3.180432559E0
1.199839583E1,2.886140513E-1,1.269185520E0,3.928677539E0,4.138675773E0
1.200836383E1,-1.222761697E-1,1.426783769E0,4.549226748E0,4.769290030E0
1.201833083E1,-6.234498672E-1,1.465008187E0,4.602509501E0,4.870116265E0
1.202829883E1,-8.327755829E-1,1.961098242E0,4.110290303E0,4.629676863E0
1.203826583E1,-9.172310116E-1,2.452111160E0,3.336178007E0,4.240783603E0
1.204823283E1,-8.831270532E-1,2.856470096E0,2.106238414E0,3.657263329E0
1.205820083E1,-7.815052957E-1,3.165439310E0,6.448981851E-1,3.323650135E0
1.206816783E1,-6.099135264E-1,3.685645037E0,-6.279126084E-1,3.788172130E0
1.207813583E1,-4.621286957E-1,4.260283663E0,-2.086943772E0,4.766436209E0
1.208810283E1,-3.374030542E-1,4.778324166E0,-3.445891653E0,5.900880607E0
1.209807083E1,-3.647989041E-1,4.968997775E0,-4.800241869E0,6.918550364E0
1.210803783E1,-5.346284688E-1,4.807611700E0,-5.832266661E0,7.577221935E0
1.211800483E1,-7.264069826E-1,4.525159024E0,-6.580129636E0,8.018904995E0
1.212797283E1,-9.990856719E-1,4.021835963E0,-7.385756085E0,8.468927302E0
1.213793983E1,-1.116270598E0,3.084232010E0,-6.890796881E0,7.631620326E0
1.214790783E1,-9.917581605E-1,2.417100956E0,-4.875652825E0,5.531541535E0
1.215787483E1,-1.086219856E0,1.538710002E0,-2.325725933E0,2.992741746E0
1.216784283E1,-8.200360349E-1,6.177331907E-1,-5.238339239E-1,1.152586384E0
1.217780983E1,-4.804613248E-1,-1.695096123E-1,3.168419051E-1,5.999711544E-1
1.218777683E1,-4.754004134E-1,-1.064085660E0,7.123089802E-1,1.365894552E0
1.219774483E1,-6.104168986E-1,-1.729674802E0,8.526427406E-1,2.022716825E0
1.220771183E1,-6.526783441E-1,-2.273349499E0,1.052360823E0,2.588739127E0
1.221767983E1,-7.214253742E-1,-2.777895212E0,1.342514867E0,3.168517405E0
1.222764683E1,-8.319191851E-1,-3.224326034E0,1.621165683E0,3.703585570E0
1.223761483E1,-9.194764886E-1,-3.601921679E0,1.706332718E0,4.090335945E0
1.224758183E1,-1.088420164E0,-3.768069727E0,1.687029305E0,4.269552178E0
1.225754883E1,-1.244204168E0,-3.750499429E0,1.529010640E0,4.236999353E0
1.226751683E1,-1.356708836E0,-2.653488098E0,1.300472217E0,3.251597444E0
1.227748383E1,-1.357329518E0,-3.781564516E0,7.464467794E-1,4.086533544E0
1.228745183E1,-1.230094252E0,-3.362413879E0,1.261636180E0,3.796140779E0
1.229741883E1,-1.267970322E0,-3.142177917E0,1.268659270E0,3.618083352E0
1.230738683E1,-1.305620105E0,-2.784082151E0,6.506535995E-1,3.143104737E0
1.231735383E1,-1.407796398E0,-2.414880769E0,5.418988967E-1,2.847313513E0
1.232732183E1,-1.608051840E0,-2.035872436E0,5.400207710E-1,2.649949005E0
1.233728883E1,-1.776074213E0,-1.643292716E0,5.523969877E-1,2.481933317E0
1.234725583E1,-2.085521290E0,-1.349516907E0,5.984245151E-1,2.555133428E0
1.235722383E1,-2.354428891E0,-1.193247730E0,5.042480904E-1,2.687274025E0
1.236719083E1,-2.580055548E0,-1.112300631E0,4.223736227E-1,2.841179121E0
1.237715883E1,-2.783008602E0,-1.132011595E0,3.059310007E-1,3.019963726E0
1.238712583E1,-2.860275172E0,-1.088142275E0,3.434590155E-1,3.079479138E0
1.239709383E1,-2.898151681E0,-1.043536205E0,4.624890304E-1,3.114826974E0
1.240706083E1,-2.979140880E0,-9.205657518E-1,6.633654463E-1,3.187910821E0
1.241702783E1,-2.806267657E0,-6.394351315E-1,9.141227049E-1,3.019873469E0
1.242699583E1,-2.755100427E0,-4.911327857E-1,1.145404058E0,3.023861807E0
1.243696283E1,-2.626025772E0,-3.153309846E-1,1.406745946E0,2.995726814E0
1.244693083E1,-2.499472145E0,-2.202441484E-1,1.699680340E0,3.030640485E0
1.245689783E1,-2.291219613E0,-3.118185622E-1,1.928258525E0,3.010830296E0
1.246686583E1,-1.965415826E0,-6.159883815E-1,2.039119980E0,2.898329062E0
1.247683283E1,-1.608688309E0,-7.231257445E-1,1.843980267E0,2.551676340E0
1.248679983E1,-1.526755808E0,-2.351446080E-1,2.045827321E0,2.563529932E0
1.249676783E1,-1.499729539E0,3.914956462E-1,2.706356868E0,3.118785825E0
1.250673483E1,-1.392314287E0,8.604440957E-1,3.535510758E0,3.895990174E0
1.251670283E1,-1.050348577E0,1.114786867E0,4.305389670E0,4.569722322E0
1.252666983E1,-5.888271512E-1,1.236075076E0,4.544389347E0,4.746164087E0
1.253663783E1,-2.357753764E-1,1.304700923E0,4.366984239E0,4.563812646E0
1.254660483E1,2.563090253E-1,1.463969137E0,3.925698967E0,4.197619841E0
1.255657283E1,7.946427467E-1,1.456554868E0,3.151807696E0,3.561867618E0
1.256653983E1,1.251915330E0,1.502167243E0,2.264882146E0,2.992238218E0
1.257650683E1,1.675492602E0,1.533888972E0,1.252092939E0,2.593805615E0
1.258647483E1,1.713034796E0,1.634441201E0,1.811093187E-1,2.374591931E0
1.259644183E1,1.394585199E0,1.694730672E0,-8.992298466E-1,2.371833520E0
1.260640983E1,1.306960141E0,2.178238689E0,-2.139346519E0,3.321095018E0
1.261637683E1,7.911504972E-1,2.802481000E0,-4.045736457E0,4.984756999E0
1.262634483E1,3.003158099E-1,3.182613752E0,-5.436753393E0,6.306941203E0
1.263631183E1,-8.073597830E-2,3.604473404E0,-6.302665805E0,7.261015292E0
1.264627883E1,-6.177759484E-1,3.766621372E0,-6.946799759E0,7.926355441E0
1.265624683E1,-1.234936770E0,3.533053758E0,-6.990069155E0,7.928972472E0
1.266621383E1,-1.579205186E0,2.675376565E0,-5.964062902E0,6.724698884E0
1.267618183E1,-1.356119876E0,1.910649050E0,-4.387603276E0,4.974002756E0
1.268614883E1,-1.071294985E0,1.481834720E0,-3.052864037E0,3.558579198E0
1.269611683E1,-7.591676894E-1,8.336498147E-1,-1.605415623E0,1.961801956E0
1.270608383E1,-2.617633629E-1,2.060851157E-1,-4.961023343E-1,5.975856919E-1
1.271605183E1,5.364973851E-2,-5.470584798E-1,3.723875302E-1,6.639455907E-1
1.272601883E1,2.820152309E-1,-1.185667984E0,8.876330638E-1,1.507724649E0
1.273598583E1,5.572675721E-1,-1.626510623E0,9.404755211E-1,1.959739309E0
1.274595383E1,5.896853762E-1,-2.025417615E0,7.451358336E-1,2.237246693E0
1.275592083E1,6.497253540E-1,-2.162838292E0,6.429914081E-1,2.348073777E0
1.276588883E1,6.538442058E-1,-2.190375754E0,6.070456499E-1,2.365113657E0
1.277585583E1,5.808074756E-1,-2.102737101E0,5.480519217E-1,2.249266892E0
1.278582383E1,3.443027322E-1,-1.416284509E0,3.894415194E-1,1.508665264E0
1.279579083E1,3.064606123E-1,-1.991774490E0,-7.321591079E-2,2.016542659E0
1.280575783E1,5.141707788E-1,-1.783148759E0,4.120374995E-1,1.900990791E0
1.281572583E1,2.337342962E-1,-1.874017999E0,5.286163616E-1,1.961124789E0
1.282569283E1,6.063102163E-2,-1.827659519E0,-1.212864554E-1,1.832682690E0
1.283566083E1,-8.608062577E-2,-1.731504981E0,-3.348981071E-1,1.765694230E0
1.284562783E1,4.336788487E-2,-1.813722680E0,-1.437853718E-1,1.819929935E0
1.285559583E1,2.235301374E-1,-1.877999368E0,2.877414823E-2,1.891474372E0
1.286556283E1,3.079938618E-1,-1.880719492E0,-9.968333244E-2,1.908377005E0
1.287552983E1,5.038987193E-1,-1.922038842E0,-1.544629723E-1,1.992989222E0
1.288549783E1,8.353101316E-1,-1.822898716E0,-1.147539461E-1,2.008449953E0
1.289546467E1,7.581852841E-1,-1.713578002E0,-3.558089197E-2,1.874155942E0
1.290543267E1,1.069366134E0,-1.612211841E0,4.268467426E-5,1.934624241E0
1.291539967E1,1.053265680E0,-1.381477788E0,3.680120587E-1,1.775748391E0
1.292536767E1,1.064867433E0,-1.390492440E0,3.903215253E-1,1.794369742E0
1.293533467E1,1.057372910E0,-1.241656829E0,3.852888268E-1,1.675767475E0
1.294530267E1,9.044600348E-1,-1.247818624E0,4.682210559E-1,1.610692469E0
1.295526967E1,9.439315179E-1,-1.179898537E0,6.002506006E-1,1.625874550E0
1.296523667E1,9.925485579E-1,-1.068658183E0,6.709311587E-1,1.605406980E0
1.297520467E1,1.066059315E0,-1.015476587E0,8.682723480E-1,1.709260668E0
1.298517167E1,1.087397632E0,-8.699908447E-1,1.119252970E0,1.786629478E0
1.299513967E1,1.015949115E0,-6.282663649E-1,1.245280933E0,1.725571161E0
1.300510667E1,9.842855651E-1,-4.706400490E-1,1.388186883E0,1.765611212E0
1.301507467E1,8.713644288E-1,-2.762376702E-1,1.543784215E0,1.794116195E0
1.302504167E1,8.880566215E-1,-1.676344103E-1,1.781540775E0,1.997656975E0
1.303500867E1,9.949049858E-1,-2.243354452E-1,1.953689820E0,2.203875277E0
1.304497667E1,1.086875622E0,-3.648393595E-1,1.858662041E0,2.183811108E0
1.305494367E1,1.237664788E0,-1.722706676E-2,1.818903898E0,2.200118699E0
1.306491167E1,1.348809979E0,8.700218350E-1,2.394537721E0,2.882713522E0
1.307487867E1,1.596841558E0,1.781488150E0,3.203222848E0,3.998029465E0
1.308484667E1,1.988427544E0,2.530793633E0,4.237209966E0,5.320968784E0
1.309481367E1,2.202663970E0,2.889094636E0,5.327885254E0,6.448639985E0
1.310478067E1,1.913199021E0,2.903980477E0,5.673110129E0,6.654142442E0
1.311474867E1,1.366300901E0,2.931015664E0,4.954207243E0,5.916231941E0
1.312471567E1,8.158565913E-1,2.990597622E0,3.535200271E0,4.701801471E0
1.313468367E1,1.988112525E-1,2.999505270E0,2.253207010E0,3.756793794E0
1.314465067E1,-4.498209280E-1,2.989607103E0,9.090888369E-1,3.156981472E0
1.315461867E1,-9.347623529E-1,3.145395640E0,-6.515774596E-1,3.345421882E0
1.316458567E1,-1.207537667E0,3.374824010E0,-2.223238276E0,4.217863528E0
1.317455367E1,-1.102048561E0,3.501420321E0,-3.634402378E0,5.165591538E0
1.318452067E1,-9.140516612E-1,3.317002648E0,-4.987803590E0,6.059387895E0
1.319448767E1,-7.036568552E-1,2.975424682E0,-6.038017901E0,6.768008952E0
1.320445567E1,-5.640197540E-1,2.916577719E0,-7.066764159E0,7.665748466E0
1.321442267E1,-4.355385191E-1,2.821431826E0,-7.771413871E0,8.279193494E0
1.322439067E1,-5.345075410E-1,2.362893759E0,-7.285350037E0,7.677583629E0
1.323435767E1,-7.632542353E-1,2.010041776E0,-5.536904503E0,5.939708447E0
1.324432567E1,-8.899112852E-1,1.630341718E0,-3.112947101E0,3.624968395E0
1.325429267E1,-6.819442432E-1,9.673317826E-1,-1.232850337E0,1.709005173E0
1.326425967E1,-5.354731721E-1,1.769209582E-1,-1.614369464E-1,5.865956283E-1
1.327422767E1,-5.215749983E-1,-7.002765799E-1,5.536535543E-1,1.033905230E0
1.328419467E1,-7.369130404E-1,-1.525045059E0,1.039466543E0,1.987283059E0
1.329416267E1,-8.639658006E-1,-2.049045628E0,1.376131679E0,2.615102921E0
1.330412967E1,-1.059812003E0,-2.645825906E0,1.557173170E0,3.247827657E0
1.331409767E1,-1.129042525E0,-3.150045930E0,1.447019813E0,3.645736239E0
1.332406467E1,-1.218170902E0,-3.423385720E0,1.443165329E0,3.909761668E0
1.333403267E1,-1.144927802E0,-3.461122481E0,1.472675641E0,3.931793743E0
1.334399967E1,-1.202305725E0,-3.185906904E0,1.298902239E0,3.644542342E0
1.335396667E1,-1.296523592E0,-1.955366802E0,9.897061533E-1,2.546360348E0
1.336393467E1,-1.250136607E0,-2.840822362E0,3.007176232E-1,3.118259822E0
1.337390167E1,-1.136585872E0,-2.362460480E0,6.438117725E-1,2.699544510E0
1.338386967E1,-1.042132070E0,-2.109090686E0,7.369737053E-1,2.465245021E0
1.339383667E1,-9.694592920E-1,-1.779574941E0,4.518728256E-2,2.027012624E0
1.340380467E1,-9.458347866E-1,-1.330521058E0,-5.069383943E-1,1.709349661E0
1.341377167E1,-8.489559250E-1,-9.947523004E-1,-6.114585435E-1,1.443655032E0
1.342373867E1,-9.118101311E-1,-6.778975314E-1,-5.961815232E-1,1.283111525E0
1.343370667E1,-1.021597452E0,-4.193459344E-1,-5.796531987E-1,1.247200945E0
1.344367367E1,-1.114647265E0,-3.507569253E-1,-5.994121099E-1,1.313302639E0
1.345364167E1,-1.087388203E0,-4.123228437E-1,-5.349886572E-1,1.280092221E0
1.346360867E1,-1.108169354E0,-5.446640450E-1,-2.918783873E-1,1.268814892E0
1.347357667E1,-1.081933701E0,-7.363310963E-1,-1.415113896E-1,1.316354622E0
1.348354367E1,-1.032713228E0,-1.054606154E0,-2.156225091E-1,1.491705004E0
1.349351167E1,-9.685892263E-1,-1.298178354E0,-1.133278102E-1,1.623661085E0
1.350347867E1,-8.529143438E-1,-1.439586248E0,1.867308319E-1,1.683668568E0
1.351344567E1,-8.670010172E-1,-1.570743388E0,4.835588872E-1,1.858158968E0
1.352341367E1,-8.865434352E-1,-1.638417308E0,7.833491421E-1,2.020892480E0
1.353338067E1,-9.203909931E-1,-1.572795761E0,1.158891245E0,2.159591397E0
1.354334867E1,-9.955603856E-1,-1.447063082E0,1.564043648E0,2.351885324E0
1.355331567E1,-1.153424537E0,-1.293743241E0,1.939848876E0,2.601379134E0
1.356328367E1,-1.260722552E0,-1.154475428E0,2.187118855E0,2.775918542E0
1.357325067E1,-1.132348979E0,-1.065448646E0,2.355578892E0,2.822436349E0
1.358321767E1,-9.068122235E-1,-1.093268529E0,2.404335900E0,2.792557180E0
1.359318567E1,-7.263354273E-1,-6.855240548E-1,2.398886880E0,2.598492764E0
1.360315267E1,-8.258486789E-1,-9.437523007E-2,2.611112741E0,2.740226719E0
1.361312067E1,-8.817388511E-1,7.340799183E-1,3.376681085E0,3.566274229E0
1.362308767E1,-9.579939985E-1,9.286425108E-1,4.018138769E0,4.233859773E0
1.363305567E1,-8.007132529E-1,9.466519350E-1,4.473942093E0,4.642569272E0
1.364302267E1,-2.984310696E-1,7.516987485E-1,3.989213762E0,4.070373269E0
1.365299067E1,2.205730908E-1,7.495960897E-1,3.252532418E0,3.345073081E0
1.366295767E1,7.644746223E-1,1.199707149E0,2.757404814E0,3.102740724E0
1.367292467E1,1.124659379E0,1.585660220E0,2.473452328E0,3.145972579E0
1.368289267E1,1.160878421E0,1.594952030E0,1.810548812E0,2.677610443E0
1.369285967E1,8.909035577E-1,1.519428808E0,6.814345121E-1,1.888577784E0
1.370282767E1,6.682093529E-1,1.794785888E0,-4.544502783E-1,1.968320395E0
1.371279467E1,3.789275678E-1,2.474125927E0,-2.228894287E0,3.351545158E0
1.372276267E1,9.168203909E-2,3.396646403E0,-4.202593864E0,5.404387807E0
1.373272967E1,-1.033302774E-1,4.153407086E0,-5.622224150E0,6.990770484E0
1.374269767E1,-4.872711383E-1,4.389928129E0,-6.860581394E0,8.159441109E0
1.375266467E1,-1.240034080E0,3.982678329E0,-7.640177794E0,8.704695739E0
1.376263167E1,-1.956459792E0,3.081216016E0,-7.362490014E0,8.217535291E0
1.377259967E1,-1.657696893E0,2.343401481E0,-5.928472654E0,6.586826057E0
1.378256667E1,-1.419477819E0,2.130386245E0,-4.187941911E0,4.908392841E0
1.379253467E1,-1.252677222E0,1.799171299E0,-2.546174734E0,3.359943952E0
1.380250167E1,-8.657824574E-1,1.320652712E0,-1.094907503E0,1.921594465E0
1.381246967E1,-4.276361167E-1,6.774934888E-1,-4.871549249E-2,8.026476655E-1
1.382243667E1,-2.044815899E-1,-1.009790754E-1,6.340796667E-1,6.738445800E-1
1.383240367E1,7.629965924E-2,-6.061352384E-1,9.761949921E-1,1.151598119E0
1.384237167E1,1.868925074E-1,-1.140859017E0,9.734924090E-1,1.511348926E0
1.385233867E1,3.871601551E-1,-1.526774080E0,1.008069919E0,1.870063378E0
1.386230667E1,5.318396392E-1,-1.762042649E0,8.758345520E-1,2.038316429E0
1.387227367E1,6.176434359E-1,-1.840727461E0,5.738083220E-1,2.024602922E0
1.388224167E1,5.628055797E-1,-1.701498240E0,2.280747396E-1,1.806616857E0
1.389220867E1,4.279589561E-1,-1.368696944E0,-9.125983357E-2,1.436944171E0
1.390217679E1,3.196994029E-1,-1.854256749E0,-4.705938560E-1,1.939570668E0
1.391214379E1,2.483139264E-1,-1.773996112E0,7.459526896E-2,1.792843124E0
1.392211079E1,1.548280578E-1,-1.693892182E0,-1.705831611E-1,1.709485614E0
1.393207879E1,4.198706489E-2,-1.703107978E0,-3.067127734E-1,1.731014854E0
1.394204579E1,5.616528377E-2,-1.596919034E0,-1.126483637E-1,1.601872215E0
1.395201379E1,2.495823702E-1,-1.564073469E0,1.212694985E-1,1.588497236E0
1.396198079E1,4.245378599E-1,-1.456782909E0,2.536375970E-1,1.538434551E0
1.397194879E1,7.109051368E-1,-1.393160525E0,2.081737411E-1,1.577852550E0
1.398191579E1,9.782217832E-1,-1.483204722E0,7.133778512E-2,1.778174116E0
1.399188279E1,1.123353330E0,-1.543565530E0,1.062865931E-1,1.912018328E0
1.400185079E1,1.324166158E0,-1.552331091E0,1.842492735E-1,2.048681435E0
1.401181779E1,1.470935802E0,-1.579934626E0,6.125543118E-2,2.159536475E0
1.402178579E1,1.405117496E0,-1.546665723E0,-2.460157514E-2,2.089769192E0
1.403175279E1,1.553795964E0,-1.532573934E0,-2.185420239E-1,2.193359382E0
1.404172079E1,1.402380122E0,-1.413145139E0,-2.125872195E-2,1.991005054E0
1.405168779E1,1.239191642E0,-1.299560051E0,6.372061729E-2,1.796806214E0
1.406165579E1,1.259739928E0,-8.994403464E-1,2.037555850E-1,1.561234755E0
1.407162279E1,1.113538194E0,-4.969811708E-1,4.826379508E-1,1.311448430E0
1.408158979E1,1.072024644E0,-8.914723456E-2,7.305750972E-1,1.300355351E0
1.409155779E1,9.640479863E-1,3.406786644E-1,1.006944330E0,1.435056569E0
1.410152479E1,7.381704842E-1,7.187561202E-1,1.442718601E0,1.772834732E0
1.411149279E1,3.730559400E-1,8.356109709E-1,1.865030243E0,2.077439346E0
1.412145979E1,1.114223488E-2,6.843236214E-1,1.962692193E0,2.078601360E0
1.413142779E1,-2.282959105E-1,2.921216315E-1,1.835989462E0,1.873048685E0
1.414139479E1,-2.206682177E-1,-3.426877677E-2,1.759104424E0,1.773222260E0
1.415136179E1,-2.003511898E-2,4.338289028E-1,2.014419587E0,2.060702597E0
1.416132979E1,2.188435940E-1,9.144600892E-1,2.731612746E0,2.888916400E0
1.417129679E1,2.498407075E-1,1.077296859E0,3.469826646E0,3.641797064E0
1.418126479E1,2.323314395E-1,1.124690296E0,4.124693749E0,4.281589037E0
1.419123179E1,1.287082531E-1,1.079488980E0,4.644286103E0,4.769827636E0
1.420119979E1,5.168938637E-2,9.797588700E-1,4.749730697E0,4.850004219E0
1.421116679E1,9.021983318E-2,9.596093649E-1,4.111114175E0,4.222588011E0
1.422113479E1,1.531053219E-1,1.049938906E0,2.847222140E0,3.038500759E0
1.423110179E1,1.042918155E-1,1.161465189E0,1.744595143E0,2.098449518E0
1.424106879E1,1.472540863E-2,1.310760977E0,6.705668771E-1,1.472403176E0
1.425103679E1,-8.268481873E-2,1.396206340E0,-5.719155782E-1,1.511064641E0
1.426100379E1,6.380412284E-2,1.636834466E0,-1.732544031E0,2.384325241E0
1.427097179E1,3.826624403E-1,1.945301405E0,-2.883608778E0,3.499403904E0
1.428093879E1,7.051911646E-1,2.327766611E0,-3.880460229E0,4.579712170E0
1.429090679E1,8.672281815E-1,2.527275948E0,-4.780688195E0,5.476694994E0
1.430087379E1,8.631890711E-1,2.733196757E0,-5.505537114E0,6.206963734E0
1.431084079E1,8.825436473E-1,2.900028344E0,-5.861396905E0,6.598865157E0
1.432080879E1,1.134863720E0,3.124333969E0,-5.702150910E0,6.600295706E0
1.433077579E1,7.457869211E-1,2.998299574E0,-4.657822992E0,5.589392945E0
1.434074379E1,-9.435052559E-2,2.734446307E0,-2.967530356E0,4.036376474E0
1.435071079E1,-4.563869857E-1,2.446856267E0,-1.528672671E0,2.920998940E0
1.436067879E1,-5.866712828E-1,1.859831484E0,-4.863129258E-1,2.009889700E0
1.437064579E1,-8.444301800E-1,9.414654547E-1,1.881294858E-1,1.278597761E0
1.438061379E1,-1.056913611E0,-1.382281780E-1,7.078072089E-1,1.279517275E0
1.439058079E1,-1.137203776E0,-1.123237848E0,8.407325470E-1,1.806025168E0
1.440054779E1,-1.244737726E0,-1.877355005E0,7.744064105E-1,2.381919207E0
1.441051579E1,-1.202888765E0,-2.450013179E0,8.079670894E-1,2.846456881E0
1.442048279E1,-1.122709406E0,-2.866737222E0,8.642056096E-1,3.197735143E0
1.443045079E1,-9.916892365E-1,-3.139194083E0,7.905534965E-1,3.385699612E0
1.444041779E1,-8.245873614E-1,-3.207285494E0,5.521391255E-1,3.357302811E0
1.445038579E1,-6.276322344E-1,-3.079484655E0,3.515480536E-1,3.162393713E0
1.446035279E1,-6.080921553E-1,-2.853352945E0,2.202926803E-1,2.925735457E0
1.447032079E1,-5.126412568E-1,-2.165542629E0,1.920178843E-1,2.233662196E0
1.448028779E1,-4.081172704E-1,-2.663335394E0,-4.881547987E-2,2.694865131E0
1.449025479E1,-4.864392622E-1,-2.216870073E0,4.504706633E-1,2.313884158E0
1.450022279E1,-4.970299950E-1,-1.919481854E0,9.669423580E-1,2.205997944E0
1.451018979E1,-7.001369776E-1,-1.693983983E0,4.078824681E-1,1.877802340E0
1.452015779E1,-9.872503958E-1,-1.301953901E0,-1.269611782E-1,1.638861326E0
1.453012479E1,-1.068126963E0,-1.157586731E0,5.175370574E-3,1.575096516E0
1.454009279E1,-1.196400549E0,-1.129065768E0,1.357273239E-1,1.650631905E0
1.455005979E1,-1.335464148E0,-1.021278779E0,2.312690735E-2,1.681371371E0
1.456002679E1,-1.353064852E0,-9.349107260E-1,-2.344376796E-1,1.661265657E0
1.456999479E1,-1.340675333E0,-9.676101100E-1,-3.753386199E-1,1.695452374E0
1.457996179E1,-1.342116817E0,-1.020583545E0,-3.356740326E-1,1.719169968E0
1.458992979E1,-1.403048313E0,-1.029356707E0,-7.798548460E-2,1.741895960E0
1.459989679E1,-1.468048593E0,-9.635503882E-1,2.505514365E-1,1.773801580E0
1.460986479E1,-1.422671715E0,-9.824678850E-1,6.053347546E-1,1.831848279E0
1.461983179E1,-1.349019455E0,-1.050532984E0,8.803369081E-1,1.923139650E0
1.462979979E1,-1.350978857E0,-9.134426737E-1,1.162651005E0,2.002817703E0
1.463976679E1,-1.394266087E0,-8.526386476E-1,1.449863314E0,2.184736647E0
1.464973379E1,-1.403306321E0,-6.560049713E-1,1.807063286E0,2.380144717E0
1.465970179E1,-1.287168193E0,-6.790172732E-1,2.094061587E0,2.550090262E0
1.466966879E1,-1.046982335E0,-7.894951504E-1,2.152050179E0,2.520078288E0
1.467963679E1,-7.913010630E-1,-1.020372460E0,2.026604015E0,2.403006692E0
1.468960379E1,-5.042502831E-1,-1.258028448E0,1.760510094E0,2.221778503E0
1.469957179E1,-4.306955992E-1,-9.890536040E-1,1.530174821E0,1.872207444E0
1.470953879E1,-7.502853303E-1,-1.943345511E-1,1.878553684E0,2.032155983E0
1.471950679E1,-1.041931656E0,2.522617471E-1,2.725662035E0,2.928906126E0
1.472947379E1,-1.389144657E0,4.871069777E-1,3.650909652E0,3.936513352E0
1.473944079E1,-1.345387896E0,4.974980646E-1,4.346454080E0,4.577033536E0
1.474940879E1,-1.043555501E0,5.357283300E-1,4.248869898E0,4.407823538E0
1.475937579E1,-4.593016766E-1,9.455865723E-1,3.696075300E0,3.842663740E0
1.476934379E1,3.797687994E-1,1.317301088E0,3.058867373E0,3.352040588E0
1.477931079E1,7.670316828E-1,1.372157911E0,2.395526485E0,2.865257768E0
1.478927879E1,8.139264254E-1,1.380059254E0,1.216734826E0,2.011835830E0
1.479924579E1,1.012891094E0,1.750903119E0,-1.778565127E-1,2.030577021E0
1.480921279E1,9.220130838E-1,2.351758906E0,-1.286673372E0,2.834855631E0
1.481918079E1,7.796094091E-1,3.258129957E0,-2.846815758E0,4.396312274E0
1.482914779E1,6.128535430E-1,4.218122315E0,-5.185459360E0,6.712461106E0
1.483911579E1,4.921815569E-1,4.500479096E0,-7.041486061E0,8.371324908E0
1.484908279E1,3.979954842E-1,4.300891407E0,-8.250578576E0,9.312793036E0
1.485905079E1,2.351224251E-1,3.222480653E0,-8.050248874E0,8.674455087E0
1.486901779E1,-1.915327846E-1,2.590880206E0,-6.451388565E0,6.954837127E0
1.487898579E1,-7.187979278E-1,2.548448131E0,-4.135728030E0,4.910753982E0
1.488895279E1,-6.933172238E-1,2.367483239E0,-1.981799140E0,3.164363046E0
1.489891958E1,-3.477534299E-1,1.745865743E0,-7.423823798E-1,1.928758989E0
1.490888758E1,-1.986576900E-1,9.910486740E-1,2.586983621E-2,1.011094259E0
1.491885458E1,9.956784993E-3,3.256419647E-1,5.066261530E-1,6.023386802E-1
1.492882258E1,2.585701985E-1,-1.968576247E-1,1.008776847E0,1.059831213E0
1.493878958E1,5.436783506E-1,-6.016410685E-1,1.162704799E0,1.417547380E0
1.494875758E1,4.997832296E-1,-1.064503736E0,1.126509365E0,1.628488511E0
1.495872458E1,5.221129787E-1,-1.434517297E0,8.627964306E-1,1.753527735E0
1.496869158E1,5.818208347E-1,-1.708993201E0,4.237026948E-1,1.854372459E0
1.497865958E1,4.353457071E-1,-1.775070831E0,-8.448641896E-3,1.827696287E0
1.498862658E1,4.895407716E-1,-1.525856068E0,-4.227688944E-1,1.657293107E0
1.499859458E1,1.095425420E-1,-2.307862104E0,-6.485404158E-1,2.399756598E0
1.500856158E1,1.776624217E-1,-2.292590346E0,2.540147424E-2,2.299604241E0
1.501852958E1,8.014193773E-2,-2.185589224E0,7.100040078E-2,2.188210237E0
1.502849658E1,1.541062556E-1,-2.014062322E0,-5.748339236E-2,2.020767209E0
1.503846458E1,4.192262127E-1,-1.846319153E0,1.761274910E-1,1.901490449E0
1.504843158E1,7.118202992E-1,-1.640972541E0,3.346267962E-1,1.819740122E0
1.505839858E1,1.009694641E0,-1.421433567E0,3.662193024E-1,1.781592891E0
1.506836658E1,1.209878819E0,-1.318633084E0,3.964230949E-1,1.832962421E0
1.507833358E1,1.446521046E0,-1.261173665E0,3.230691898E-1,1.946113011E0
1.508830158E1,1.644676460E0,-1.283145162E0,2.206844437E-1,2.097647203E0
1.509826858E1,1.797914587E0,-1.351131908E0,1.297590709E-1,2.252752030E0
1.510823658E1,1.928782143E0,-1.401250733E0,3.062929434E-1,2.403647133E0
1.511820358E1,2.053283690E0,-1.444297934E0,1.976662946E-1,2.518142649E0
1.512817158E1,2.259298932E0,-1.403052844E0,2.328489912E-1,2.669683052E0
1.513813858E1,2.069191625E0,-1.324135898E0,5.372942144E-1,2.514671933E0
1.514810558E1,1.985098139E0,-1.168365489E0,7.151594979E-1,2.411875960E0
1.515807358E1,1.830053661E0,-9.131772101E-1,9.700600934E-1,2.263626649E0
1.516804058E1,1.698373926E0,-6.735138738E-1,1.288961388E0,2.235959837E0
1.517800858E1,1.534762546E0,-5.427677929E-1,1.632388244E0,2.305381602E0
1.518797558E1,1.413889489E0,-5.096468246E-1,1.861266975E0,2.392308117E0
1.519794358E1,1.288492734E0,-6.393637955E-1,1.976231421E0,2.444277034E0
1.520791058E1,1.283104524E0,-6.248901826E-1,1.905361413E0,2.380598050E0
1.521787758E1,1.404180772E0,5.694778740E-2,2.094165083E0,2.522002000E0
1.522784558E1,1.417630245E0,9.651039934E-1,2.689415145E0,3.189679459E0
1.523781258E1,1.362496849E0,1.842795036E0,3.513866120E0,4.195181321E0
1.524778058E1,1.151685941E0,2.263589326E0,4.457669291E0,5.130402777E0
1.525774758E1,6.263340063E-1,1.832203390E0,4.913041091E0,5.280836706E0
1.526771558E1,7.995701954E-2,1.211923152E0,4.612377262E0,4.769609508E0
1.527768258E1,-3.933538914E-2,1.037760326E0,3.542366034E0,3.691456472E0
1.528765058E1,8.783066086E-2,1.106946335E0,2.296805604E0,2.551148839E0
1.529761758E1,2.306210558E-1,1.372357886E0,1.114025559E0,1.782583851E0
1.530758458E1,3.176027741E-1,1.663228798E0,-8.961910486E-2,1.695651244E0
1.531755258E1,4.513330180E-1,2.215775474E0,-1.232663811E0,2.575426667E0
1.532751958E1,5.409694087E-1,2.797650615E0,-2.423416534E0,3.740647613E0
1.533748758E1,5.644752887E-1,3.344018539E0,-3.695929120E0,5.016072607E0
1.534745458E1,6.686590768E-1,4.003019623E0,-4.992569071E0,6.434051367E0
1.535742258E1,4.615994861E-1,4.579638702E0,-6.329033824E0,7.825780080E0
1.536738958E1,9.716881044E-2,4.843879055E0,-7.151930609E0,8.638444160E0
1.537735758E1,-5.897169512E-1,4.555002043E0,-7.165135961E0,8.510874399E0
1.538732458E1,-1.244614350E0,4.004369745E0,-5.825888518E0,7.178092989E0
1.539729158E1,-1.303114281E0,3.380292326E0,-3.512929396E0,5.046301217E0
1.540725958E1,-1.360273153E0,2.487310814E0,-1.322285255E0,3.128177813E0
1.541722658E1,-1.075613153E0,1.443622581E0,-5.500890917E-1,1.882441983E0
1.542719458E1,-8.644297772E-1,3.232703340E-1,-1.800533116E-1,9.402987523E-1
1.543716158E1,-7.722517115E-1,-7.136614412E-1,3.303747010E-1,1.102194539E0
1.544712958E1,-9.186219911E-1,-1.499611425E0,7.168136752E-1,1.899084683E0
1.545709658E1,-9.882992401E-1,-2.167811349E0,8.676554668E-1,2.535540858E0
1.546706358E1,-9.253740634E-1,-2.732589231E0,8.671859354E-1,3.012535894E0
1.547703158E1,-7.235167770E-1,-3.148802227E0,9.496761149E-1,3.367538673E0
1.548699858E1,-5.283748351E-1,-3.388211794E0,1.075559651E0,3.593881981E0
1.549696658E1,-3.719725606E-1,-3.384874204E0,1.156992069E0,3.596438184E0
1.550693358E1,-3.909271872E-1,-3.069245596E0,1.027259896E0,3.260115870E0
1.551690158E1,-5.073130547E-1,-2.207580017E0,7.872761321E-1,2.398036650E0
1.552686858E1,-6.628771307E-1,-2.135822402E0,4.434259379E-1,2.279861834E0
1.553683658E1,-5.354175505E-1,-1.974518772E0,4.843008989E-1,2.102366213E0
1.554680358E1,-7.101218292E-1,-1.719510003E0,9.680276012E-1,2.097156432E0
1.555677058E1,-5.983625346E-1,-1.383171726E0,9.104231715E-1,1.760702161E0
1.556673858E1,-6.666147441E-1,-1.102025903E0,2.620113945E-1,1.314338723E0
1.557670558E1,-7.122768205E-1,-8.284276664E-1,-1.162444013E-1,1.098700791E0
1.558667358E1,-7.478191209E-1,-6.087021661E-1,-4.404140371E-1,1.060054852E0
1.559664058E1,-8.927592447E-1,-5.040375906E-1,-6.935464346E-1,1.237772038E0
1.560660858E1,-9.852337642E-1,-4.225648266E-1,-9.156470740E-1,1.409842604E0
1.561657558E1,-1.019894012E0,-5.678318828E-1,-9.952838123E-1,1.534016529E0
1.562654358E1,-9.387618484E-1,-8.374540132E-1,-8.963471693E-1,1.544681611E0
1.563651058E1,-8.370669276E-1,-9.868410176E-1,-7.257523137E-1,1.483661908E0
1.564647758E1,-7.266989779E-1,-1.165430771E0,-4.496713489E-1,1.445172865E0
1.565644558E1,-5.586933791E-1,-1.381347395E0,1.065292525E-1,1.493856553E0
1.566641258E1,-4.582153004E-1,-1.541516665E0,5.823049110E-1,1.710354905E0
1.567638058E1,-3.766561073E-1,-1.556643412E0,8.982890296E-1,1.836282036E0
1.568634758E1,-3.966066243E-1,-1.376371415E0,1.336122690E0,1.958805485E0
1.569631558E1,-4.829729231E-1,-1.170925984E0,1.841831415E0,2.235324019E0
1.570628258E1,-6.313962333E-1,-1.044868786E0,2.189327933E0,2.506704766E0
1.571625058E1,-7.664040573E-1,-9.673540020E-1,2.329112640E0,2.635889723E0
1.572621758E1,-7.419945632E-1,-1.006849605E0,2.383718618E0,2.691916883E0
1.573618458E1,-6.881979865E-1,-1.156072887E0,2.319220321E0,2.681213137E0
1.574615258E1,-6.570532309E-1,-1.137164161E0,2.040087694E0,2.426276793E0
1.575611958E1,-8.068035666E-1,-4.348580128E-1,2.085690129E0,2.278187174E0
1.576608758E1,-1.067026956E0,2.958135635E-1,2.606613894E0,2.832046641E0
1.577605458E1,-1.270153526E0,6.406805885E-1,3.299742252E0,3.593335571E0
1.578602258E1,-1.344992770E0,9.005770451E-1,4.150077682E0,4.454569489E0
1.579598958E1,-1.036539573E0,7.430904776E-1,4.268870884E0,4.455317763E0
1.580595658E1,-4.751448170E-1,9.344628292E-1,3.765622083E0,3.908822463E0
1.581592458E1,3.800392332E-1,1.544003486E0,3.111449629E0,3.494208834E0
1.582589158E1,1.089274588E0,1.913418877E0,2.721774806E0,3.500821192E0
1.583585958E1,1.222837419E0,1.899724113E0,2.085696561E0,3.074802953E0
1.584582658E1,1.058273820E0,1.896128075E0,8.585899436E-1,2.335042151E0
1.585579458E1,7.279189995E-1,2.081663736E0,-4.013710088E-1,2.241492509E0
1.586576158E1,4.545872859E-1,2.669887199E0,-1.940695553E0,3.331853311E0
1.587572958E1,4.520207236E-1,3.585433116E0,-3.958964946E0,5.360322454E0
1.588569658E1,4.096130612E-1,4.087771506E0,-5.828621507E0,7.130952770E0
1.589566458E1,2.286938501E-1,4.168716851E0,-7.274539704E0,8.387456645E0
1.590563204E1,-1.151928892E-1,3.833209464E0,-8.206574185E0,9.058400745E0
1.591559904E1,-4.658302025E-1,2.896223561E0,-7.542394806E0,8.092763935E0
1.592556704E1,-4.607003305E-1,2.512754388E0,-5.677503142E0,6.225770742E0
1.593553404E1,-5.539925832E-1,2.423275031E0,-3.458628643E0,4.259258357E0
1.594550204E1,-3.460084015E-1,2.199785678E0,-1.892829076E0,2.922598288E0
1.595546904E1,6.573670071E-2,1.593559808E0,-7.325561339E-1,1.755104745E0
1.596543704E1,4.143929042E-1,8.536519700E-1,5.758864224E-2,9.506627250E-1
1.597540404E1,6.926940568E-1,2.154757440E-1,4.803300548E-1,8.700412715E-1
1.598537204E1,8.947003741E-1,-3.077646875E-1,7.195256138E-1,1.188665206E0
1.599533904E1,1.028387385E0,-8.002645522E-1,8.653697902E-1,1.564247053E0
1.600530604E1,1.083215776E0,-1.202399207E0,8.307876027E-1,1.819155934E0
1.601527404E1,1.122494667E0,-1.478319958E0,4.405654800E-1,1.907753160E0
1.602524104E1,1.092356144E0,-1.584311852E0,-2.766843975E-2,1.924591263E0
1.603520904E1,9.823719907E-1,-1.525785901E0,-3.492226160E-1,1.847981001E0
1.604517604E1,8.280949599E-1,-1.229896324E0,-3.560381305E-1,1.524844051E0
1.605514404E1,8.669504388E-1,-1.530236802E0,-6.394678760E-1,1.871402388E0
1.606511104E1,5.883542576E-1,-1.769225369E0,-2.745413929E-1,1.884593355E0
1.607507904E1,6.028530501E-1,-1.585309972E0,9.270877361E-2,1.698597781E0
1.608504604E1,5.506823282E-1,-1.543002443E0,-3.084990978E-2,1.638615050E0
1.609501304E1,6.239456380E-1,-1.406484575E0,-3.790165186E-3,1.538675205E0
1.610498104E1,8.527398044E-1,-1.260506498E0,2.832975984E-1,1.547998493E0
1.611494804E1,1.066526069E0,-1.166722421E0,4.130718720E-1,1.633813770E0
1.612491604E1,1.248121803E0,-1.089939124E0,3.779546642E-1,1.699595557E0
1.613488304E1,1.505113655E0,-9.564132768E-1,3.408540809E-1,1.815564643E0
1.614485104E1,1.739694299E0,-9.797810894E-1,1.571491832E-1,2.002798817E0
1.615481804E1,1.830225862E0,-9.806382912E-1,-1.544542015E-2,2.076443287E0
1.616478604E1,1.952585866E0,-1.013897254E0,-5.556959867E-2,2.200833293E0
1.617475304E1,1.871575909E0,-1.032482044E0,-7.891694605E-2,2.138935118E0
1.618472104E1,1.896645992E0,-1.013156412E0,-2.684339762E-2,2.150458673E0
1.619468804E1,1.678687082E0,-9.686129075E-1,3.445998073E-1,1.968489347E0
1.620465504E1,1.529899417E0,-7.855207980E-1,5.216932583E-1,1.797164157E0
1.621462304E1,1.369018833E0,-5.843069977E-1,7.380577791E-1,1.661432069E0
1.622459004E1,1.205885537E0,-2.982179385E-1,1.094979424E0,1.655920833E0
1.623455804E1,1.047373806E0,-4.375880778E-2,1.528237638E0,1.853218013E0
1.624452504E1,9.057161629E-1,4.938499868E-2,1.895022951E0,2.100921853E0
1.625449304E1,7.370758854E-1,8.856602132E-2,2.270622942E0,2.388902121E0
1.626446004E1,5.908272278E-1,-1.266986382E-1,2.537413266E0,2.608370265E0
1.627442804E1,2.944165906E-1,-6.109457427E-1,2.498091910E0,2.588512897E0
1.628439504E1,1.255044175E-1,-1.116436366E0,2.116808426E0,2.396468116E0
1.629436304E1,1.875176478E-1,-1.477211911E0,1.821588939E0,2.352765216E0
1.630433004E1,3.709990358E-1,-1.420936553E0,1.762392313E0,2.294063565E0
1.631429704E1,5.912996098E-1,-7.903254551E-1,2.175711522E0,2.389135865E0
1.632426504E1,7.559779602E-1,-3.581635934E-1,2.810418010E0,2.932274412E0
1.633423204E1,7.802269482E-1,-2.420256114E-1,3.416485421E0,3.512791357E0
1.634420004E1,8.288677425E-1,-7.876433372E-2,3.928884530E0,4.016137349E0
1.635416704E1,7.622047332E-1,2.669329959E-1,3.992802783E0,4.073657244E0
1.636413504E1,6.438592811E-1,6.598033226E-1,3.548589225E0,3.666385235E0
1.637410204E1,5.360726579E-1,8.800650126E-1,2.575816609E0,2.774296221E0
1.638407004E1,3.551243569E-1,1.084139856E0,1.322406877E0,1.746491478E0
