"Time (s)","Linear Acceleration x (m/s^2)","Linear Acceleration y (m/s^2)","Linear Acceleration z (m/s^2)","Absolute acceleration (m/s^2)"
3.979791654E-3,-3.540225953E-2,2.503807563E0,-5.921019208E-1,2.573109076E0
1.394479163E-2,-4.697606277E-1,2.285494750E0,-1.306262130E0,2.674038528E0
2.391079167E-2,-1.078256972E0,2.032887433E0,-1.496177355E0,2.744779789E0
3.387579165E-2,-1.431417688E0,2.009559089E0,-1.360213804E0,2.817350869E0
4.384179163E-2,-1.469723967E0,2.009784499E0,-1.035521427E0,2.696595427E0
5.380679166E-2,-1.585308802E0,2.343869843E0,-2.679007101E-1,2.842305513E0
6.377279165E-2,-1.565656603E0,2.942414811E0,7.825398874E-1,3.423660934E0
7.373779168E-2,-1.321386538E0,3.341623519E0,1.809010994E0,4.023062378E0
8.370379166E-2,-7.181944951E-1,2.993535848E0,1.842483965E0,3.587730113E0
9.366979165E-2,-8.178304651E-1,2.247951679E0,1.037977842E0,2.607591115E0
1.036347917E-1,-1.533415640E0,1.257857124E0,1.411102706E-1,1.988336033E0
1.136007917E-1,-3.012858849E0,2.422639585E-1,-4.420658755E-1,3.054739352E0
1.235647083E-1,-4.727477948E0,-6.513453982E-1,-3.778558463E-1,4.787073596E0
1.335307083E-1,-5.021929695E0,-1.264857411E0,3.479900229E-1,5.190446916E0
1.434957083E-1,-4.339302936E0,-1.503302918E0,1.122174824E0,4.727446030E0
1.534617083E-1,-3.061544228E0,-1.304727235E0,2.528519066E0,4.179566352E0
1.634267083E-1,-1.891854053E0,-5.599705207E-1,3.654670581E0,4.153227155E0
1.733927083E-1,-1.091219372E0,-5.788414133E-2,4.935519542E0,5.055043367E0
1.833577083E-1,-1.624906147E-1,1.231878146E-2,6.017463183E0,6.019669270E0
1.933237083E-1,1.004571237E0,-4.105131304E-1,5.581770188E0,5.686285504E0
2.032887083E-1,1.985420321E0,-1.655109500E0,4.621533417E0,5.295266984E0
2.132547083E-1,3.430473130E0,-3.343760676E0,3.040152774E0,5.673747461E0
2.232197083E-1,3.423009744E0,-4.285797404E0,1.408420588E0,5.662923596E0
2.331857083E-1,1.209217061E0,-3.783343532E0,1.916386338E0,4.410037503E0
2.431507083E-1,7.960095334E-1,-3.321774853E0,1.550617272E0,3.751297546E0
2.531167083E-1,1.624759966E0,-2.875015710E0,4.046191370E-1,3.327052288E0
2.630817083E-1,1.729407585E0,-2.248054736E0,7.156822389E-1,2.925201148E0
2.730477083E-1,2.145584913E0,-1.122185568E0,4.816743296E-1,2.468774033E0
2.830127083E-1,1.546443821E0,4.828266697E-1,4.617452645E-1,1.684582671E0
2.929787083E-1,-2.825971019E-1,1.525239186E0,1.229353117E0,1.979273802E0
3.029437083E-1,-1.437254378E0,1.650654068E0,8.827857220E-1,2.360014752E0
3.129097083E-1,-1.551727658E0,1.285003261E0,-3.805327016E-1,2.050340763E0
3.228747083E-1,-1.629371080E0,-8.250621370E-2,-1.841988121E0,2.460605135E0
3.328407083E-1,-1.752626878E0,-1.354167636E0,-3.673894472E0,4.289868477E0
3.428067083E-1,-2.061989902E0,-1.613889700E0,-5.049603982E0,5.688140530E0
3.527717083E-1,-2.978497978E0,-5.694317176E-1,-4.483861894E0,5.413013964E0
3.627377083E-1,-3.411908221E0,4.340313992E-1,-2.562487881E0,4.289037783E0
3.727027084E-1,-2.552795536E0,9.084826268E-1,-2.236104489E0,3.513156560E0
3.826687083E-1,-6.494394252E-1,6.902951635E-1,-3.501299869E0,3.627310264E0
3.926337083E-1,1.377687038E0,8.447762621E-1,-3.346822863E0,3.716569895E0
4.025997084E-1,2.850371743E0,1.151464989E0,-3.020961628E0,4.310069587E0
4.125647083E-1,3.757994390E0,1.162878023E0,-3.064171967E0,4.986377139E0
4.225307083E-1,4.015444372E0,6.430387706E-1,-3.496387623E0,5.363023287E0
4.324957083E-1,3.393930956E0,-2.933665037E-2,-4.785507470E0,5.866916543E0
4.424617083E-1,2.874003557E0,-5.148970395E-2,-6.096439771E0,6.740113168E0
4.524267083E-1,2.196367688E0,2.005536497E-1,-6.693892479E0,7.047868423E0
4.623927083E-1,1.349904285E0,-2.123416364E-2,-7.141178164E0,7.267676247E0
4.723577083E-1,7.429057056E-1,-1.197705647E-1,-7.445742670E0,7.483671411E0
4.823237083E-1,-7.184234867E-1,1.591278809E-1,-7.188796134E0,7.226357578E0
4.922887083E-1,-2.203671738E0,5.275507066E-1,-6.879197760E0,7.242778520E0
5.022547083E-1,-2.420131568E0,-8.097545832E-2,-6.250958877E0,6.703587152E0
5.122197083E-1,-1.814747112E0,-1.454084419E0,-4.810490284E0,5.343078266E0
5.221857083E-1,-1.063684395E0,-2.799824025E0,-4.992853246E0,5.822286715E0
5.321507083E-1,-1.108890242E0,-3.486401456E0,-6.627730064E0,7.570431856E0
5.421167083E-1,-1.201371559E0,-2.939329235E0,-7.648486102E0,8.281442485E0
5.520817083E-1,-1.621030612E0,-2.687294067E0,-8.267393414E0,8.843024568E0
5.620477083E-1,-1.727297909E0,-3.195127086E0,-8.618571923E0,9.352656155E0
5.720127083E-1,-1.699301441E0,-4.273155139E0,-8.472569287E0,9.640119842E0
5.819787083E-1,-1.839955044E0,-5.738041120E0,-7.588550388E0,9.690028248E0
5.919437083E-1,-1.331056078E0,-7.468562599E0,-6.291235083E0,9.855494733E0
6.019097083E-1,-1.350852411E0,-8.598745185E0,-5.478954502E0,1.028504562E1
6.118747083E-1,-1.790575308E0,-9.397653183E0,-5.337780497E0,1.095508767E1
6.218407083E-1,-2.415214645E0,-1.051361651E1,-4.167742120E0,1.156457817E1
6.318057083E-1,-2.248370193E0,-1.177671683E1,-2.200824144E0,1.218974384E1
6.417717083E-1,-7.837403208E-1,-1.263070853E1,-7.482331038E-1,1.267710138E1
6.517377083E-1,1.447277675E0,-1.362389085E1,-4.291742268E-1,1.370726833E1
6.617027083E-1,4.352245747E0,-1.417431966E1,-9.328068978E-1,1.485676646E1
6.716687083E-1,6.482943065E0,-1.465357734E1,-9.446013165E-1,1.605142209E1
6.816337083E-1,7.521216776E0,-1.522259679E1,-5.779189146E-1,1.698911843E1
6.915997083E-1,8.739986433E0,-1.492669493E1,-7.862663180E-1,1.731507434E1
7.015647083E-1,1.026688974E1,-1.437125739E1,-1.409162600E0,1.771800788E1
7.115307083E-1,1.110986177E1,-1.422749190E1,-1.804618858E0,1.814131207E1
7.214957083E-1,1.156158958E1,-1.384707790E1,-1.404007695E0,1.809373255E1
7.314617083E-1,1.201817409E1,-1.324297282E1,-1.135008878E-1,1.788367188E1
7.414267084E-1,1.249158221E1,-1.230895613E1,1.274294232E0,1.758334021E1
7.513927083E-1,1.271036164E1,-1.114440595E1,2.111517280E0,1.703553880E1
7.613577083E-1,1.296790927E1,-9.615150894E0,2.450934993E0,1.632865211E1
7.713237084E-1,1.281410294E1,-7.804374626E0,2.579726057E0,1.522381305E1
7.812887083E-1,1.210355046E1,-6.036435644E0,2.536655467E0,1.376114494E1
7.912547083E-1,1.102608286E1,-4.379780286E0,2.454049512E0,1.211525227E1
8.012197083E-1,1.012298625E1,-2.987201559E0,2.328207199E0,1.080827334E1
8.111857083E-1,9.313093674E0,-1.944462914E0,2.175759469E0,9.759537851E0
8.211507083E-1,8.043490078E0,-9.782912189E-1,2.007208508E0,8.347674666E0
8.311167083E-1,6.686535512E0,-1.600026244E-1,1.585010594E0,6.873690172E0
8.410817083E-1,5.549495312E0,5.374269462E-1,1.368306204E0,5.740904790E0
8.510477083E-1,4.639979044E0,1.111503655E0,1.454648091E0,4.988070465E0
8.610127083E-1,4.111041085E0,1.529807031E0,1.641610472E0,4.683572707E0
8.709787083E-1,3.989761646E0,1.818519736E0,1.650659769E0,4.685070939E0
8.809437083E-1,3.940642696E0,1.870685086E0,1.520489639E0,4.619525548E0
8.909097083E-1,3.905206230E0,1.920882263E0,1.248314030E0,4.527550362E0
9.008747083E-1,3.955158994E0,2.103634649E0,9.136237912E-1,4.572009387E0
9.108407083E-1,4.230374570E0,2.464679165E0,7.023944414E-1,4.946116694E0
9.208057083E-1,4.686248061E0,3.111249070E0,6.325858493E-1,5.660473171E0
9.307717083E-1,5.123853680E0,3.603231456E0,4.770228696E-1,6.282093941E0
9.407367083E-1,5.551188666E0,3.767693167E0,5.570632119E-1,6.732126471E0
9.507027083E-1,5.929109416E0,4.114539474E0,8.841387677E-1,7.270864798E0
9.606677083E-1,6.168730652E0,4.421631147E0,1.291310945E0,7.698801454E0
9.706337083E-1,6.361247304E0,4.457107959E0,1.793915237E0,7.971788413E0
9.805987083E-1,6.521852192E0,4.313520223E0,2.119156229E0,8.101347780E0
9.905647083E-1,6.654771098E0,4.372322162E0,2.694279736E0,8.406088434E0
1.000529708E0,6.649920248E0,4.528497784E0,3.397001914E0,8.733175453E0
1.010495708E0,6.788587552E0,4.431970779E0,4.018101931E0,9.048338470E0
1.020461708E0,7.130712817E0,4.144121708E0,4.361912657E0,9.329903110E0
1.030426708E0,7.428575245E0,4.088633970E0,4.393500193E0,9.550052453E0
1.040392708E0,7.748935420E0,4.161651660E0,4.457821319E0,9.860908457E0
1.050357708E0,8.046203186E0,4.148762643E0,4.443050083E0,1.008435973E1
1.060323708E0,8.366312515E0,4.245498978E0,4.553706885E0,1.042859977E1
1.070288708E0,8.675277051E0,4.633940039E0,4.778874681E0,1.093487428E1
1.080254708E0,8.708083439E0,5.356467614E0,4.998259581E0,1.138002906E1
1.090219708E0,8.813376591E0,6.061301513E0,5.074396176E0,1.183910805E1
1.100185708E0,9.216667825E0,6.088074160E0,4.973820559E0,1.211406223E1
1.110150708E0,9.673591475E0,5.520463302E0,4.840184199E0,1.214418668E1
1.120116708E0,9.743461609E0,5.171735945E0,4.750799860E0,1.201049525E1
1.130082292E0,9.497079822E0,5.352348250E0,4.731655784E0,1.188405332E1
1.140048292E0,9.149979161E0,5.398426648E0,4.610163214E0,1.158096429E1
1.150013292E0,9.026347972E0,5.130073949E0,4.293214889E0,1.123495930E1
1.159979292E0,8.986737764E0,4.848051043E0,4.040772463E0,1.098147971E1
1.169944292E0,9.057749274E0,4.728852044E0,3.893658856E0,1.093459843E1
1.179910292E0,9.384099337E0,4.740628336E0,3.675766458E0,1.113760012E1
1.189875292E0,9.678335322E0,4.831825020E0,3.188186148E0,1.127746596E1
1.199841292E0,9.985210648E0,4.761466643E0,2.429361691E0,1.132597874E1
1.209806292E0,1.025933046E1,3.950333287E0,1.569166102E0,1.110501133E1
1.219772292E0,1.040458582E1,2.626346492E0,7.281982040E-1,1.075562060E1
1.229737292E0,1.026260022E1,1.438759452E0,2.744194785E-1,1.036659530E1
1.239703292E0,1.004145618E1,2.899447131E-1,1.427422285E-2,1.004565150E1
1.249668292E0,9.774127917E0,-6.222139120E-1,1.670914963E-1,9.795337986E0
1.259634292E0,9.373555638E0,-1.317137366E0,2.854420647E-1,9.469945792E0
1.269599292E0,8.760616579E0,-2.104156805E0,4.317651281E-1,9.020105312E0
1.279565292E0,7.878990360E0,-2.719647004E0,4.696086001E-1,8.348383146E0
1.289530292E0,6.874926369E0,-3.062856343E0,3.096477833E-1,7.532700930E0
1.299496292E0,6.110323985E0,-2.978420210E0,1.863647962E-1,6.800130733E0
1.309461292E0,5.676859948E0,-2.833289394E0,3.462899449E-1,6.354068334E0
1.319427292E0,5.229488894E0,-2.730269641E0,6.597322789E-1,5.936090724E0
1.329392292E0,4.784751425E0,-2.532049615E0,9.123983610E-1,5.489771600E0
1.339358292E0,4.272800798E0,-2.375329033E0,1.132955335E0,5.018227024E0
1.349323292E0,3.779280009E0,-2.440647694E0,1.139428495E0,4.640906792E0
1.359289292E0,3.253940427E0,-2.767231060E0,1.147434211E0,4.422929042E0
1.369254292E0,2.644458243E0,-3.135037882E0,1.298878558E0,4.302174732E0
1.379220292E0,2.010437048E0,-3.497230207E0,1.453254991E0,4.287706416E0
1.389185292E0,1.362881303E0,-3.920612474E0,1.490673663E0,4.410301077E0
1.399151292E0,8.424878812E-1,-4.356622973E0,1.532641761E0,4.694564978E0
1.409116292E0,5.258816189E-1,-4.747757261E0,1.703507928E0,5.071458345E0
1.419082292E0,3.061075866E-1,-5.133097544E0,2.114017550E0,5.559807771E0
1.429047292E0,-1.473439872E-2,-5.564937809E0,2.461983307E0,6.085237195E0
1.439013292E0,-5.791023910E-1,-6.068162051E0,2.570478685E0,6.615535574E0
1.448978292E0,-1.362630458E0,-6.411130486E0,2.478286221E0,7.007229014E0
1.458944292E0,-2.013723183E0,-6.593542564E0,2.360685850E0,7.287161470E0
1.468909292E0,-2.419575498E0,-6.857428576E0,2.243434120E0,7.609971676E0
1.478875292E0,-2.768250815E0,-7.235221857E0,1.970359647E0,7.993370067E0
1.488841292E0,-3.271799578E0,-7.543059050E0,1.571819422E0,8.370963421E0
1.498806292E0,-3.808213786E0,-7.692636089E0,1.108082449E0,8.654882377E0
1.508772292E0,-4.319475027E0,-7.748769359E0,5.088543807E-1,8.885956554E0
1.518737292E0,-4.757166016E0,-7.717184454E0,-1.201298761E-1,9.066421322E0
1.528703292E0,-5.093013711E0,-7.717304907E0,-4.880589044E-1,9.259254029E0
1.538668292E0,-5.425668826E0,-7.789702792E0,-6.261280382E-1,9.513642211E0
1.548634292E0,-5.629876401E0,-7.778341067E0,-6.515333131E-1,9.624063264E0
1.558599292E0,-5.717182347E0,-7.786562837E0,-5.200107220E-1,9.674044964E0
1.568565292E0,-5.766884850E0,-7.938100448E0,-3.633415952E-1,9.818473237E0
1.578530292E0,-5.846393534E0,-8.146739627E0,-7.432512760E-2,1.002772198E1
1.588496292E0,-5.992306123E0,-8.240034292E0,3.161212358E-1,1.019342094E1
1.598461292E0,-6.204181736E0,-8.373223339E0,5.401119876E-1,1.043525089E1
1.608427292E0,-6.386888514E0,-8.628552536E0,6.831854609E-1,1.075690504E1
1.618392292E0,-6.673006225E0,-8.985248478E0,7.176121125E-1,1.121510898E1
1.628358292E0,-7.044648235E0,-9.220648609E0,8.402904975E-1,1.163415307E1
1.638323292E0,-7.427877672E0,-9.308644527E0,1.143143524E0,1.196373716E1
1.648289292E0,-7.641044351E0,-9.329033183E0,1.532119020E0,1.215581374E1
1.658254292E0,-7.576783451E0,-9.307294405E0,1.827621512E0,1.213975193E1
1.668220292E0,-7.173667633E0,-9.276608802E0,1.991912192E0,1.189473381E1
1.678185292E0,-6.609265727E0,-9.173925848E0,1.868634759E0,1.146015291E1
1.688151292E0,-6.011557496E0,-9.075005577E0,1.345465372E0,1.096835570E1
1.698116292E0,-5.568620970E0,-8.867679682E0,7.299807277E-1,1.049657822E1
1.708082292E0,-5.230258387E0,-8.544839119E0,3.517918825E-2,1.001853861E1
1.718047292E0,-4.837772223E0,-8.096659979E0,-6.499838009E-1,9.454227723E0
1.728013292E0,-4.312403989E0,-7.502403944E0,-1.285442826E0,8.748443082E0
1.737978292E0,-3.708859068E0,-7.097266159E0,-1.682433101E0,8.182750372E0
1.747944292E0,-3.013471929E0,-6.934625856E0,-1.863312039E0,7.787296102E0
1.757909292E0,-2.151352022E0,-7.054173349E0,-1.925264751E0,7.622094300E0
1.767875292E0,-1.233880032E0,-7.451971124E0,-1.890884292E0,7.786512504E0
1.777840292E0,-3.140785110E-1,-7.823969815E0,-1.673915169E0,8.007193077E0
1.787806292E0,5.100824422E-1,-7.928901608E0,-1.358359359E0,8.060571007E0
1.797771292E0,1.112915173E0,-7.816778909E0,-1.098476351E0,7.971653717E0
1.807737292E0,1.590178363E0,-7.498737155E0,-7.309557509E-1,7.700261194E0
1.817702292E0,1.972092177E0,-7.099489270E0,-2.444314483E-1,7.372356624E0
1.827668292E0,2.175217432E0,-6.527518144E0,3.190986380E-1,6.887807193E0
1.837633292E0,2.193727963E0,-5.680621462E0,7.581955898E-1,6.136510663E0
1.847599292E0,2.153152379E0,-4.548863636E0,1.068386872E0,5.144868906E0
1.857564292E0,2.272523287E0,-3.319526306E0,1.307657275E0,4.230080914E0
1.867530292E0,2.347403900E0,-2.436559321E0,1.498740043E0,3.700452420E0
1.877495292E0,2.519401503E0,-1.570402495E0,1.487492339E0,3.320569437E0
1.887461292E0,2.659067511E0,-8.604680693E-1,1.230242479E0,3.053611285E0
1.897426292E0,2.680068371E0,-7.288028061E-2,1.030294893E0,2.872209180E0
1.907392292E0,2.567469124E0,5.880117935E-1,1.019593904E0,2.824398573E0
1.917357292E0,2.401896442E0,1.046196104E0,9.961774130E-1,2.802856087E0
1.927323292E0,2.254115667E0,1.374024927E0,9.235807224E-1,2.796780880E0
1.937288292E0,2.078116230E0,1.551413662E0,8.629902658E-1,2.733167323E0
1.947254292E0,1.820476214E0,1.677812338E0,7.433638349E-1,2.584913476E0
1.957219292E0,1.286103854E0,1.622584217E0,5.353000215E-1,2.138548287E0
1.967185292E0,8.055328935E-1,1.678771282E0,2.126968548E-2,1.862151621E0
1.977150292E0,5.426204431E-1,1.702581144E0,-6.476620178E-1,1.900706602E0
1.987116292E0,5.374047267E-1,1.770182558E0,-1.085119264E0,2.144722347E0
1.997081292E0,7.814400262E-1,2.068977032E0,-1.348683679E0,2.590417368E0
2.007047292E0,1.187237377E0,2.456061539E0,-1.412151843E0,3.071798122E0
2.017012292E0,1.757719218E0,2.603084514E0,-1.125450726E0,3.336504934E0
2.026978292E0,2.226372968E0,2.402058409E0,-7.241064687E-1,3.354243786E0
2.036943292E0,2.445012056E0,2.106644211E0,-4.460456367E-1,3.258065453E0
2.046909292E0,2.505079333E0,1.828828962E0,-5.646036351E-1,3.152588635E0
2.056874292E0,2.654595560E0,1.782376342E0,-9.240397288E-1,3.328301734E0
2.066840292E0,3.418558259E0,2.290469561E0,-1.369790666E0,4.336947988E0
2.076805292E0,4.735838005E0,2.727030283E0,-1.511811348E0,5.670134859E0
2.086771292E0,6.240711631E0,3.067103761E0,-1.135083722E0,7.045709489E0
2.096736292E0,7.681820494E0,3.205937710E0,-6.407604030E-1,8.348591294E0
2.106702292E0,9.210891945E0,3.457327638E0,-4.107484809E-1,9.846946691E0
2.116668292E0,1.032614308E1,3.173067588E0,-2.158470422E-2,1.080268739E1
2.126632917E0,1.075993398E1,2.858269284E0,6.686887515E-1,1.115316220E1
2.136597917E0,1.069273894E1,2.772933850E0,1.252257246E0,1.111719283E1
2.146563917E0,1.034902441E1,2.751285703E0,1.677496004E0,1.083909000E1
2.156528917E0,1.004495750E1,2.820352430E0,2.036636667E0,1.063030799E1
2.166494917E0,9.961368041E0,2.813798870E0,2.180254809E0,1.057827152E1
2.176460917E0,1.016969264E1,2.880474086E0,2.199008291E0,1.079608340E1
2.186425917E0,1.045580860E1,2.930709270E0,2.141455902E0,1.106791867E1
2.196391917E0,1.067499031E1,2.914501373E0,2.024333248E0,1.124934049E1
2.206356917E0,1.065706040E1,2.682598461E0,1.787223391E0,1.113388694E1
2.216322917E0,1.041207142E1,2.421872284E0,1.409108513E0,1.078249894E1
2.226287917E0,9.925089576E0,2.496852885E0,1.059370173E0,1.028902049E1
2.236253917E0,9.344482697E0,2.691816012E0,8.903362316E-1,9.765138448E0
2.246218917E0,8.877840389E0,2.673886694E0,6.215657482E-1,9.292581127E0
2.256184917E0,8.629247185E0,2.578232678E0,7.177632630E-2,9.006461156E0
2.266149917E0,8.429732001E0,2.249729671E0,-6.332680732E-1,8.747725056E0
2.276115917E0,8.532809057E0,1.681947489E0,-1.259907743E0,8.787783867E0
2.286080917E0,8.898198640E0,1.029832086E0,-1.327976057E0,9.055496318E0
2.296046917E0,9.223822478E0,7.388483226E-2,-1.143285904E0,9.294700788E0
2.306011917E0,9.319164838E0,-9.025686067E-1,-7.375759685E-1,9.391777343E0
2.315977917E0,9.303925824E0,-2.050624961E0,-3.653664860E-1,9.534232593E0
2.325942917E0,9.223198580E0,-3.040571435E0,-2.335260987E-2,9.711488663E0
2.335908917E0,8.815971000E0,-3.627261758E0,4.513234797E-1,9.543692442E0
2.345873917E0,7.974702263E0,-3.934844597E0,9.628767890E-1,8.944607868E0
2.355839917E0,7.122219737E0,-3.813607843E0,1.430953126E0,8.204708746E0
2.365804917E0,6.266998374E0,-3.432214431E0,1.826867513E0,7.375148096E0
2.375770917E0,5.336678882E0,-2.923900187E0,2.169593873E0,6.460377029E0
2.385735917E0,4.183817285E0,-2.540283079E0,2.487036287E0,5.490238127E0
2.395701917E0,3.019046080E0,-2.359945008E0,2.676235228E0,4.673993440E0
2.405666917E0,1.962556538E0,-2.319929588E0,2.722648087E0,4.080013979E0
2.415632917E0,9.748121256E-1,-2.270198434E0,2.581768782E0,3.573456261E0
2.425597917E0,5.431127787E-2,-2.374541997E0,2.377618217E0,3.360724297E0
2.435563917E0,-7.669898021E-1,-2.578947793E0,2.251609551E0,3.508417114E0
2.445528917E0,-1.501104804E0,-2.703423904E0,2.215250687E0,3.803833861E0
2.455494917E0,-2.155148619E0,-2.803490814E0,2.139137188E0,4.132811903E0
2.465459917E0,-2.552830034E0,-2.734313575E0,2.065381287E0,4.273079893E0
2.475425917E0,-2.504991040E0,-2.623670222E0,2.068706306E0,4.175903653E0
2.485390917E0,-2.178186648E0,-2.721273115E0,2.083207693E0,4.060736231E0
2.495356917E0,-1.843130667E0,-3.041980322E0,2.158117250E0,4.160317896E0
2.505321917E0,-1.803433335E0,-3.332091096E0,2.311610169E0,4.438326761E0
2.515287917E0,-2.056783249E0,-3.481587735E0,2.340693051E0,4.672328590E0
2.525252917E0,-2.486184055E0,-3.615243683E0,2.198322997E0,4.907516892E0
2.535218917E0,-2.953534461E0,-3.861440113E0,1.929083275E0,5.230243574E0
2.545183917E0,-3.454637334E0,-4.129281182E0,1.747135173E0,5.660208786E0
2.555149917E0,-3.887455253E0,-4.431498031E0,1.622742969E0,6.114227497E0
2.565114917E0,-4.227338696E0,-4.817714227E0,1.482324132E0,6.578605297E0
2.575080917E0,-4.497046781E0,-5.165735532E0,1.196911303E0,6.952758445E0
2.585045917E0,-4.837533072E0,-5.408883224E0,8.620120266E-1,7.307585695E0
2.595011917E0,-5.400190169E0,-5.631303706E0,5.596156678E-1,7.822199498E0
2.604976917E0,-6.143530907E0,-5.846999305E0,2.795036325E-1,8.485781942E0
2.614942917E0,-6.790612442E0,-6.065095772E0,3.354664564E-2,9.104884922E0
2.624907917E0,-7.182020965E0,-6.308866192E0,-7.903564453E-2,9.559783701E0
2.634873917E0,-7.304431840E0,-6.664245341E0,6.107738346E-2,9.887902757E0
2.644838917E0,-7.329411730E0,-7.077563966E0,3.545704794E-1,1.019499427E1
2.654804917E0,-7.194742752E0,-7.307242012E0,7.626219320E-1,1.028307840E1
2.664769917E0,-6.931725637E0,-7.431015288E0,1.312833523E0,1.024657701E1
2.674735917E0,-6.489733436E0,-7.513711290E0,1.848184707E0,1.009892490E1
2.684700917E0,-6.057581515E0,-7.392432436E0,2.323044984E0,9.835592973E0
2.694666917E0,-5.687343421E0,-7.206412625E0,2.694216294E0,9.567500173E0
2.704631917E0,-5.357877377E0,-7.122239617E0,2.893848130E0,9.370565839E0
2.714597917E0,-5.045606241E0,-7.237991098E0,2.713110402E0,9.230797665E0
2.724562917E0,-4.879055904E0,-7.502417393E0,2.258503418E0,9.229967006E0
2.734528917E0,-4.822458365E0,-7.733285932E0,1.692650233E0,9.269567455E0
2.744493917E0,-4.727052271E0,-7.833897218E0,1.088188468E0,9.214072006E0
2.754459917E0,-4.579923461E0,-7.924174134E0,4.887015134E-1,9.165536743E0
2.764424917E0,-4.435646338E0,-7.874297385E0,9.977688789E-2,9.038222899E0
2.774390917E0,-4.295744103E0,-7.495415352E0,-2.017008734E-1,8.641490146E0
2.784355917E0,-4.137250060E0,-6.800538676E0,-4.069244018E-1,7.970555301E0
2.794321917E0,-3.830349006E0,-5.934543234E0,-3.401825282E-1,7.071499208E0
2.804286917E0,-3.252148840E0,-5.292368097E0,-1.127965906E-1,6.212757457E0
2.814252917E0,-2.442316489E0,-5.062416986E0,9.961872071E-2,5.621645618E0
2.824217917E0,-1.600373569E0,-5.090377786E0,2.952390745E-1,5.344184472E0
2.834183917E0,-8.394555151E-1,-5.184134381E0,4.043270686E-1,5.267201840E0
2.844148917E0,-1.535227400E-1,-5.401647295E0,4.495582053E-1,5.422496225E0
2.854114917E0,4.517225522E-1,-5.735878819E0,4.915493998E-1,5.774597813E0
2.864079917E0,1.000593084E0,-6.078833220E0,5.419442126E-1,6.184424255E0
2.874045917E0,1.551011374E0,-6.271160422E0,6.925395441E-1,6.497130162E0
2.884010917E0,2.045830829E0,-5.917303888E0,1.029172228E0,6.345006269E0
2.893976917E0,2.524908410E0,-4.836163069E0,1.414526836E0,5.636002296E0
2.903941917E0,2.847054909E0,-3.678281053E0,1.729168141E0,4.962408249E0
2.913907917E0,3.026210089E0,-2.526615797E0,1.843140607E0,4.351884900E0
2.923872917E0,3.079470037E0,-1.354988732E0,1.771080398E0,3.802085737E0
2.933838917E0,2.980256821E0,-3.455511492E-1,1.582014773E0,3.391770490E0
2.943803917E0,2.749492947E0,4.817585295E-1,1.304224083E0,3.081039306E0
2.953769917E0,2.372721174E0,1.013824748E0,9.935302323E-1,2.764913871E0
2.963734917E0,1.825875533E0,1.286667525E0,5.865260160E-1,2.309404155E0
2.973700917E0,1.210870653E0,1.527749396E0,1.881692469E-1,1.958477373E0
2.983665917E0,5.855951393E-1,1.824244745E0,-5.468023717E-3,1.915938531E0
2.993631917E0,-1.917769790E-2,2.004312090E0,-3.693539947E-2,2.004744114E0
3.003596917E0,-4.795020890E-1,2.109724524E0,-1.942211151E-2,2.163616657E0
3.013562917E0,-5.714717746E-1,2.263851281E0,-1.153304815E-2,2.334895206E0
3.023527917E0,-2.384172946E-1,2.526140419E0,-2.604665601E-1,2.550700110E0
3.033493917E0,1.761152118E-1,2.730629829E0,-7.092438698E-1,2.826726499E0
3.043458917E0,3.806169015E-1,2.833209872E0,-1.161174875E0,3.085494206E0
3.053424917E0,3.720331889E-1,2.783039593E0,-1.456479731E0,3.163076236E0
3.063389917E0,1.263507289E-1,2.610007033E0,-1.611901062E0,3.070232280E0
3.073355917E0,-1.221459961E-1,2.411746076E0,-1.614013953E0,2.904561899E0
3.083320917E0,-1.729547918E-1,2.187183759E0,-1.439072278E0,2.623855022E0
3.093286917E0,1.077121443E-1,2.051583320E0,-1.072098538E0,2.317324168E0
3.103251917E0,7.222480774E-1,2.066600139E0,-7.272111940E-1,2.306797464E0
3.113217917E0,1.507408687E0,2.153421351E0,-6.180739371E-1,2.700281440E0
3.123182917E0,2.399343547E0,2.425652509E0,-4.944390938E-1,3.447478727E0
3.133149542E0,3.416316729E0,2.801118599E0,-4.812701409E-1,4.443996663E0
3.143114542E0,4.442117744E0,3.032752538E0,-5.710826424E-1,5.408893916E0
3.153080542E0,5.291413831E0,2.965007867E0,-7.130512843E-1,6.107272232E0
3.163045542E0,5.896188422E0,2.762801794E0,-9.565223274E-1,6.581264820E0
3.173011542E0,6.231180085E0,2.519381037E0,-1.292434342E0,6.844360641E0
3.182976542E0,6.469120831E0,2.204648223E0,-1.846133504E0,7.079421377E0
3.192942542E0,6.699082468E0,1.872208285E0,-2.230930580E0,7.304787541E0
3.202907542E0,6.982337966E0,1.652806721E0,-2.242193487E0,7.517462681E0
3.212873542E0,7.272145854E0,1.550535411E0,-1.990354494E0,7.697387634E0
3.222838542E0,7.576059566E0,1.531018574E0,-1.613402627E0,7.895806764E0
3.232804542E0,8.003479920E0,1.753120968E0,-1.175628608E0,8.277150873E0
3.242769542E0,8.392603351E0,2.093996683E0,-6.774586979E-1,8.676379625E0
3.252735542E0,8.678398880E0,2.391299533E0,-3.096357965E-1,9.007152430E0
3.262700542E0,8.797470410E0,2.443892899E0,-7.002391577E-2,9.130881746E0
3.272666542E0,8.746351127E0,2.249761831E0,1.813777059E-2,9.031080517E0
3.282631542E0,8.590139837E0,2.085192531E0,4.647162348E-2,8.839722277E0
3.292597542E0,8.368673036E0,1.990790988E0,-6.404835373E-2,8.602443800E0
3.302562542E0,8.226077573E0,1.861610792E0,-3.386366706E-1,8.440889868E0
3.312528542E0,8.107686074E0,1.640715263E0,-6.454390526E-1,8.297174918E0
3.322493542E0,8.030486455E0,1.588883205E0,-8.568905966E-1,8.230888411E0
3.332459542E0,7.986496682E0,1.848964434E0,-9.211835101E-1,8.249325899E0
3.342424542E0,8.091688092E0,2.158768045E0,-1.102257015E0,8.446932353E0
3.352389542E0,8.363719275E0,2.120393938E0,-1.433050815E0,8.746513889E0
3.362355542E0,8.650218809E0,1.581816260E0,-1.617242786E0,8.941135406E0
3.372320542E0,8.718528906E0,5.939999270E-1,-1.675203603E0,8.897858692E0
3.382286542E0,8.243147349E0,-6.191289210E-1,-1.396404268E0,8.383480406E0
3.392251542E0,7.722538165E0,-1.635749223E0,-1.116453616E0,7.972436259E0
3.402217542E0,7.507288123E0,-2.253243263E0,-6.333513960E-1,7.863689602E0
3.412182542E0,7.555893103E0,-2.562362165E0,-3.157057911E-2,7.978609977E0
3.422148542E0,7.535129056E0,-2.765330130E0,5.630947611E-1,8.046259773E0
3.432113542E0,6.941919672E0,-3.127546429E0,8.350151396E-1,7.659572161E0
3.442079542E0,6.043444701E0,-3.066818417E0,1.634126036E0,6.971295931E0
3.452044542E0,5.095370724E0,-2.616412073E0,3.001841525E0,6.466797313E0
3.462010542E0,4.162370868E0,-2.475694150E0,3.116670023E0,5.759168759E0
3.471975542E0,3.189567845E0,-2.364649678E0,2.993475037E0,4.972504795E0
3.481941542E0,2.091165462E0,-2.397326843E0,3.139441420E0,4.469478874E0
3.491906542E0,8.389970934E-1,-2.608470384E0,3.397419405E0,4.364686986E0
3.501872542E0,-2.779316086E-1,-2.538906645E0,3.624628757E0,4.434098167E0
3.511837542E0,-1.163384246E0,-2.209924750E0,3.845473414E0,4.585291276E0
3.521803542E0,-1.908083877E0,-1.970370757E0,3.961221094E0,4.818134241E0
3.531768542E0,-2.402848953E0,-1.904467374E0,4.042236899E0,5.073495660E0
3.541734542E0,-2.782673557E0,-1.899805974E0,4.198784988E0,5.383523961E0
3.551699542E0,-3.305556139E0,-1.721738377E0,5.271119315E0,6.455678373E0
3.561665542E0,-3.470319566E0,-3.082650923E0,5.444543054E0,7.154642106E0
3.571630542E0,-3.610434641E0,-2.592495207E0,4.729507517E0,6.490339825E0
3.581596542E0,-4.261823235E0,-1.716817945E0,4.443176383E0,6.391589592E0
3.591561542E0,-4.390908707E0,-1.627190069E0,3.939047576E0,6.119143943E0
3.601527542E0,-4.212404323E0,-1.762287648E0,3.648680694E0,5.844901944E0
3.611492542E0,-3.847929245E0,-1.885423577E0,3.329978204E0,5.426797986E0
3.621458542E0,-3.710909101E0,-2.079038921E0,3.044848381E0,5.231094614E0
3.631423542E0,-3.942710271E0,-2.163344661E0,2.857650064E0,5.328338230E0
3.641389542E0,-4.134967892E0,-2.208276128E0,2.756580649E0,5.438122819E0
3.651354542E0,-4.277439979E0,-2.086847000E0,3.171566607E0,5.719288235E0
3.661320542E0,-4.529498827E0,-2.024827046E0,3.138113225E0,5.870608044E0
3.671285542E0,-4.425604330E0,-2.565172337E0,2.328063650E0,5.620139070E0
3.681251542E0,-4.104660603E0,-3.156813790E0,1.776277696E0,5.474383475E0
3.691216542E0,-3.958152768E0,-2.785981911E0,1.423159665E0,5.045200886E0
3.701182542E0,-3.747333747E0,-2.464132451E0,6.356934983E-1,4.529742285E0
3.711147542E0,-3.218815618E0,-2.580292945E0,2.173871988E-1,4.131094632E0
3.721113542E0,-2.508617483E0,-2.884978488E0,1.427185473E-1,3.825785035E0
3.731078542E0,-2.141003619E0,-3.615668483E0,-5.132188886E-2,4.202331379E0
3.741044542E0,-2.363963215E0,-4.590162813E0,-2.875909165E-1,5.171133847E0
3.751009542E0,-2.818172588E0,-5.076591806E0,-3.109800714E-1,5.814687412E0
3.760975542E0,-3.322532360E0,-5.127223431E0,-4.173011631E-2,6.109777639E0
3.770940542E0,-3.517410702E0,-5.098911213E0,2.958138558E-1,6.201498161E0
3.780906542E0,-3.466204296E0,-5.170684615E0,6.491075957E-1,6.258745264E0
3.790871542E0,-3.367604452E0,-5.483063926E0,9.720443460E-1,6.507658563E0
3.800837542E0,-3.267228225E0,-6.040282527E0,1.244941502E0,6.979231521E0
3.810802542E0,-3.274617351E0,-6.574159044E0,1.218874907E0,7.445021288E0
3.820768542E0,-3.506067688E0,-7.006490475E0,1.036582989E0,7.903032564E0
3.830733542E0,-3.781140593E0,-7.494842910E0,8.788952771E-1,8.440506580E0
3.840699542E0,-4.089901062E0,-7.917459776E0,7.373976284E-1,8.941879851E0
3.850664542E0,-4.564826535E0,-7.990095643E0,5.557933429E-1,9.218903185E0
3.860630542E0,-5.053655518E0,-7.381978784E0,5.057844463E-1,8.960405279E0
3.870595542E0,-5.221049607E0,-6.171563044E0,4.937675411E-1,8.098849041E0
3.880561542E0,-4.767737197E0,-5.047893087E0,5.424239767E-1,6.964679919E0
3.890526542E0,-4.041365663E0,-4.448584765E0,6.148917362E-1,6.041575513E0
3.900492542E0,-3.379927459E0,-4.178945093E0,5.546771094E-1,5.403254428E0
3.910457542E0,-2.924826971E0,-4.279693203E0,3.058678508E-1,5.192681568E0
3.920423542E0,-2.409069221E0,-4.623459490E0,-2.708819130E-1,5.220475953E0
3.930388542E0,-1.793194275E0,-5.090929763E0,-7.641483477E-1,5.451333255E0
3.940354542E0,-1.183826112E0,-5.453495725E0,-1.005085792E0,5.670296054E0
3.950319542E0,-4.652641189E-1,-5.744341494E0,-1.255580511E0,5.898339794E0
3.960285542E0,8.911390543E-2,-5.795933817E0,-1.322770866E0,5.945629728E0
3.970250542E0,3.575379413E-1,-5.294318143E0,-1.239389571E0,5.449194848E0
3.980215542E0,4.154651374E-1,-4.457811379E0,-1.083165125E0,4.606293549E0
3.990181542E0,4.060008341E-1,-3.521674492E0,-7.786085120E-1,3.629498466E0
4.000146542E0,4.912894911E-1,-2.593506775E0,-4.388197938E-1,2.675856044E0
4.010112542E0,7.042310518E-1,-1.772711479E0,-1.573140746E-1,1.913947512E0
4.020077542E0,9.701478016E-1,-1.040730711E0,7.981361657E-2,1.425018380E0
4.030043542E0,1.192498702E0,-3.888813561E-1,1.561254819E-1,1.263984584E0
4.040008542E0,1.251799994E0,2.603870380E-1,1.933183050E-1,1.293126676E0
4.049974542E0,1.190353943E0,8.735102838E-1,1.273590812E-1,1.481952449E0
4.059939542E0,1.006826216E0,1.340603412E0,1.237036943E-2,1.676624455E0
4.069905542E0,7.133217180E-1,1.701847318E0,-2.625867605E-2,1.845481424E0
4.079870542E0,3.385485238E-1,1.968598466E0,5.516964912E-2,1.998258920E0
4.089836542E0,4.560711265E-2,2.290409920E0,1.858727530E-1,2.298392109E0
4.099801542E0,5.353944540E-2,2.739664947E0,2.682956895E-1,2.753291316E0
4.109767542E0,2.916883528E-1,3.080626616E0,1.813958323E-1,3.099717228E0
4.119732542E0,6.299287283E-1,3.235262666E0,-5.718723089E-2,3.296514083E0
4.129697792E0,9.220772570E-1,3.364728792E0,-2.846599996E-1,3.500379640E0
4.139662792E0,1.108148523E0,3.408220966E0,-3.145360556E-1,3.597623693E0
4.149628792E0,1.165276989E0,3.303554052E0,-1.006419834E-1,3.504492637E0
4.159593792E0,1.236342879E0,3.217567238E0,2.949452519E-1,3.459519525E0
4.169559792E0,1.354074520E0,2.975690145E0,6.671392393E-1,3.336663665E0
4.179524792E0,1.511746736E0,2.898578820E0,9.283122893E-1,3.398367413E0
4.189490792E0,1.773070790E0,3.092200010E0,1.125522647E0,3.737951600E0
4.199455792E0,2.181545582E0,3.157668945E0,1.426682028E0,4.094561747E0
4.209421792E0,2.945881625E0,3.313767384E0,1.494085514E0,4.678842201E0
4.219386792E0,3.621362794E0,3.024524336E0,1.312281253E0,4.897356229E0
4.229352792E0,4.117723283E0,2.494289466E0,1.044974620E0,4.926367519E0
4.239317792E0,4.518016942E0,1.841040287E0,8.378159559E-1,4.950135554E0
4.249283792E0,4.905802238E0,1.401937780E0,7.026982042E-1,5.150350464E0
4.259248792E0,5.273828330E0,1.350778152E0,5.644887373E-1,5.473254462E0
4.269214792E0,5.567069703E0,1.460138041E0,4.130802043E-1,5.770173605E0
4.279179792E0,5.863911792E0,1.515762604E0,4.524139854E-1,6.073522552E0
4.289145792E0,6.250719725E0,1.536080509E0,6.871007565E-1,6.473264081E0
4.299110792E0,6.787354374E0,1.460868943E0,9.998841092E-1,7.014419840E0
4.309075792E0,7.368379329E0,1.416307313E0,1.335315482E0,7.621155279E0
4.319041792E0,7.840112808E0,1.519749820E0,1.517160381E0,8.128885777E0
4.329007792E0,8.193522030E0,1.403911216E0,1.532824194E0,8.453065714E0
4.338972792E0,8.532535408E0,9.523494619E-1,1.476761091E0,8.711598780E0
4.348937792E0,8.680883362E0,3.334386420E-1,1.623311611E0,8.837650019E0
4.358903792E0,8.524037064E0,-1.448793858E-1,1.706808973E0,8.694446203E0
4.368868792E0,8.222498492E0,-1.765052211E-1,1.616249051E0,8.381700098E0
4.378834792E0,8.005362723E0,-2.070966840E-2,1.465505493E0,8.138425374E0
4.388799792E0,7.976017302E0,3.757795000E-1,1.361602517E0,8.100124916E0
4.398765792E0,8.059869883E0,1.146502165E0,1.193542137E0,8.228032121E0
4.408730792E0,8.174806847E0,1.858749164E0,1.066542368E0,8.451031183E0
4.418696792E0,8.356323717E0,2.291954169E0,8.592913172E-1,8.707444030E0
4.428661792E0,8.370897317E0,2.252953241E0,4.023819923E-1,8.678112206E0
4.438627792E0,8.188347244E0,1.829240021E0,-1.288492441E-1,8.391171061E0
4.448592792E0,7.882901562E0,1.175377470E0,-5.497481990E-1,7.988984436E0
4.458558792E0,7.616691867E0,1.441245103E-1,-1.080385358E0,7.694283553E0
4.468523792E0,7.374628834E0,-9.700349504E-1,-1.475774958E0,7.583141167E0
4.478489792E0,7.219021561E0,-1.615620768E0,-1.649610925E0,7.579295414E0
4.488454792E0,6.881232591E0,-1.967723138E0,-1.475853603E0,7.307628902E0
4.498420792E0,6.280639343E0,-2.031277109E0,-1.200619607E0,6.709247700E0
4.508385792E0,5.713107423E0,-1.867898887E0,-3.899826792E-1,6.023348667E0
4.518351792E0,5.151998084E0,-1.739242017E0,6.247282147E-1,5.473420538E0
4.528316792E0,4.453282710E0,-1.493944303E0,1.369819025E0,4.892851995E0
4.538282792E0,3.576131365E0,-1.089639747E0,2.153964265E0,4.314579050E0
4.548247792E0,2.183174323E0,-1.199935775E0,2.498145120E0,3.528005815E0
4.558213792E0,7.146174610E-1,-1.379048270E0,2.330705714E0,2.800828694E0
4.568178792E0,-6.438702446E-1,-7.729580551E-1,3.189743847E0,3.344622378E0
4.578144792E0,-1.778786736E0,-3.829569572E-1,3.405553174E0,3.861156654E0
4.588109792E0,-2.028199720E0,-6.167584598E-2,2.782214550E0,3.443561502E0
4.598075792E0,-1.895712923E0,4.340797484E-2,2.041015647E0,2.785921142E0
4.608040792E0,-1.769659817E0,-2.814703435E-1,1.260568770E0,2.190879971E0
4.618006792E0,-2.060103298E0,-5.811629498E-1,9.637646887E-1,2.347470628E0
4.627971792E0,-2.916056147E0,-1.017038963E0,1.120974391E0,3.285473374E0
4.637936792E0,-3.622307997E0,-7.440272015E-1,9.351504618E-1,3.814341108E0
4.647902792E0,-3.884293664E0,-5.131031138E-1,4.944443563E-1,3.949112216E0
4.657867792E0,-3.700333242E0,-3.289012027E-1,9.219670370E-1,3.827618754E0
4.667833792E0,-3.065962384E0,-6.026298326E-1,1.028160367E0,3.289437915E0
4.677798792E0,-2.261747453E0,-1.039278848E0,9.926391166E-1,2.679726568E0
4.687764792E0,-1.813112816E0,-1.305897263E0,1.598484041E0,2.747343621E0
4.697729792E0,-1.934762968E0,-1.720273064E0,1.975632374E0,3.256650186E0
4.707695792E0,-2.554600571E0,-2.143169428E0,2.046294221E0,3.912349590E0
4.717660792E0,-3.347605221E0,-2.229076136E0,2.419169409E0,4.693359326E0
4.727626792E0,-4.045211962E0,-2.790791831E0,2.840797219E0,5.676476698E0
4.737591792E0,-4.427623959E0,-3.582458053E0,2.908428162E0,6.395061688E0
4.747557792E0,-4.462916583E0,-4.086819579E0,2.974257578E0,6.742842638E0
4.757522792E0,-4.476390907E0,-4.440855623E0,2.811981848E0,6.904094157E0
4.767488792E0,-4.530575885E0,-4.753101617E0,2.256808895E0,6.943434252E0
4.777453792E0,-4.737921075E0,-4.858844419E0,1.655522460E0,6.985486369E0
4.787419792E0,-5.052191960E0,-4.792078571E0,1.232092830E0,7.071542503E0
4.797384792E0,-5.211246166E0,-4.857647201E0,9.459803823E-1,7.186703125E0
4.807350792E0,-5.115265290E0,-5.286927847E0,8.795095271E-1,7.408851602E0
4.817315792E0,-4.778794282E0,-5.804449702E0,9.490969482E-1,7.578211936E0
4.827281792E0,-4.392636559E0,-6.114843298E0,8.763853598E-1,7.579882307E0
4.837246792E0,-4.052833807E0,-6.156891210E0,6.607157806E-1,7.400629472E0
4.847212792E0,-4.010216961E0,-5.986720278E0,4.875411335E-1,7.222212688E0
4.857177792E0,-4.195012364E0,-5.667370502E0,3.293353584E-1,7.058730688E0
4.867143792E0,-4.354475291E0,-5.601247848E0,1.510251018E-1,7.096354071E0
4.877108792E0,-4.233544931E0,-6.003695914E0,-1.120121866E-2,7.346250253E0
4.887074792E0,-4.049703793E0,-6.359438760E0,-1.039979929E-1,7.540117886E0
4.897039792E0,-3.977793565E0,-6.463971773E0,-2.092540142E-1,7.592730733E0
4.907004792E0,-3.924495610E0,-6.256596177E0,-3.259644386E-1,7.392760941E0
4.916970792E0,-3.524349593E0,-5.864301801E0,-5.744863066E-1,6.865938405E0
4.926935792E0,-3.198010640E0,-5.651229263E0,-7.960235667E-1,6.541965894E0
4.936901792E0,-3.270376951E0,-5.183980599E0,-8.171293840E-1,6.183584776E0
4.946866792E0,-3.657663186E0,-4.360052950E0,-5.496768630E-1,5.717578715E0
4.956832792E0,-3.868276970E0,-3.738268223E0,-4.286418378E-2,5.379596023E0
4.966797792E0,-3.640460678E0,-3.645062436E0,3.225201362E-1,5.161729686E0
4.976763792E0,-2.966738058E0,-3.861260312E0,5.882459745E-1,4.904783301E0
4.986728792E0,-2.029508911E0,-4.193813100E0,8.738114154E-1,4.740308126E0
4.996694792E0,-1.123105701E0,-4.478690032E0,1.044962926E0,4.734129100E0
5.006659792E0,-2.975303060E-1,-4.610037206E0,1.195212979E0,4.771739871E0
5.016625792E0,5.384215575E-1,-4.622209355E0,1.405272740E0,4.861019293E0
5.026590792E0,1.113336757E0,-4.679495112E0,1.632061677E0,5.079450615E0
5.036556792E0,1.231105528E0,-4.647233099E0,1.893106819E0,5.166841369E0
5.046521792E0,7.024938440E-1,-4.100964578E0,2.260159642E0,4.734947696E0
5.056487792E0,-7.756916285E-2,-3.165138763E0,2.561734174E0,4.072665263E0
5.066452792E0,-7.389383698E-1,-2.299136304E0,2.712108189E0,3.631471945E0
5.076418792E0,-7.987822831E-1,-9.161113429E-1,2.535631034E0,2.811892222E0
5.086383792E0,-6.066696739E-1,-5.474864960E-1,1.644153134E0,1.836036243E0
5.096349792E0,-8.499003965E-1,-3.377965719E-1,1.384836721E0,1.659581258E0
5.106314792E0,-9.438107729E-1,7.336033702E-1,1.948692205E0,2.286122042E0
5.116279792E0,-1.120356925E0,1.524990095E0,1.892449007E0,2.676220782E0
5.126245792E0,-1.062556613E0,2.011815822E0,1.278273993E0,2.609676964E0
5.136210792E0,-8.683319896E-1,2.566382126E0,7.990439460E-1,2.824675006E0
5.146176792E0,-7.043175906E-1,3.052013267E0,3.959140947E-1,3.157150015E0
5.156141792E0,-7.418099374E-1,3.270981553E0,6.647114754E-3,3.354049267E0
5.166107792E0,-8.048060846E-1,3.394620928E0,-3.053208438E-1,3.502054382E0
5.176072792E0,-8.184248346E-1,3.462562650E0,-4.906664702E-1,3.591644874E0
5.186038792E0,-6.829998118E-1,3.589463017E0,-6.279829212E-1,3.707437935E0
5.196003792E0,-3.084809715E-1,3.733672897E0,-6.707376158E-1,3.805964104E0
5.205969792E0,1.819741219E-1,4.028167328E0,-6.151246016E-1,4.078924476E0
5.215934792E0,7.479910290E-1,4.278433421E0,-5.641308877E-1,4.379808988E0
5.225900792E0,1.163509961E0,3.931191257E0,-4.282489049E-1,4.122064683E0
5.235865792E0,1.425927152E0,3.552246659E0,-2.334432144E-1,3.834869007E0
5.245831792E0,1.715981208E0,3.054995931E0,-9.158230752E-2,3.505136084E0
5.255796792E0,1.933134518E0,2.499474192E0,1.568948293E-1,3.163699778E0
5.265762792E0,2.021225161E0,1.998383598E0,2.878223200E-1,2.856874138E0
5.275727792E0,2.217468828E0,1.876409510E0,3.004499669E-1,2.920334028E0
5.285693792E0,2.711453593E0,2.105872963E0,7.627473548E-2,3.434020873E0
5.295658792E0,3.195396350E0,2.084409004E0,2.881157041E-2,3.815252133E0
5.305624792E0,3.491837612E0,1.922049367E0,8.442356139E-3,3.985884463E0
5.315589792E0,3.835726983E0,1.745973916E0,5.608181477E-2,4.214780133E0
5.325554792E0,4.270423905E0,1.470607481E0,1.909058900E-1,4.520580908E0
5.335520792E0,4.679042245E0,1.155507461E0,3.795860374E-1,4.834534040E0
5.345485792E0,5.220960145E0,9.938079751E-1,3.812546866E-1,5.328361311E0
5.355451792E0,5.740412166E0,7.658045715E-1,4.181778069E-1,5.806346627E0
5.365416792E0,6.109424683E0,5.170131469E-1,2.379900093E-1,6.135879056E0
5.375382792E0,6.349266944E0,3.185510463E-1,1.126898789E-1,6.358251686E0
5.385347792E0,6.452675537E0,2.989786613E-1,-1.498429410E-1,6.461335987E0
5.395313792E0,6.488630651E0,4.058985078E-1,-4.937668101E-1,6.520037346E0
5.405278792E0,6.705933065E0,2.057214189E-1,-5.868696861E-1,6.734706795E0
5.415244792E0,7.149996350E0,-1.179897952E-1,-4.959257483E-1,7.168145628E0
5.425209792E0,7.572205081E0,-3.643072629E-1,-1.732379432E-1,7.582942764E0
5.435175792E0,7.904671916E0,-2.850804144E-1,3.714104605E-1,7.918526041E0
5.445140792E0,8.084736922E0,-1.027238846E-2,9.978378761E-1,8.146088451E0
5.455106792E0,8.188570023E0,3.691493422E-1,1.438826694E0,8.322209593E0
5.465071792E0,8.283570321E0,9.954902190E-1,1.644025372E0,8.503608496E0
5.475037792E0,8.534063870E0,1.736454064E0,1.676225843E0,8.868779619E0
5.485002792E0,8.864702865E0,2.070273360E0,1.453234965E0,9.218507500E0
5.494967792E0,9.125023245E0,1.815692607E0,9.373449218E-1,9.351010874E0
5.504933792E0,9.214354666E0,1.235653492E0,3.414140980E-1,9.303103518E0
5.514898792E0,9.106865886E0,4.848166233E-1,-5.109428599E-2,9.119904827E0
5.524864792E0,8.877755020E0,-3.701030231E-1,-1.480419986E-1,8.886699436E0
5.534829792E0,8.564064764E0,-1.213015997E0,-1.502124850E-1,8.650848333E0
5.544795792E0,8.261058540E0,-1.741149378E0,-6.646179199E-2,8.442813899E0
5.554760792E0,7.913805267E0,-2.097754104E0,2.945020330E-1,8.192412192E0
5.564726792E0,7.403800592E0,-2.222656478E0,1.078087695E0,7.805045683E0
5.574691792E0,6.781407756E0,-1.998463120E0,1.999331285E0,7.347017870E0
5.584657792E0,5.932741706E0,-1.559370553E0,2.894115640E0,6.782696073E0
5.594622792E0,4.955767865E0,-1.138095623E0,3.591350206E0,6.225166109E0
5.604588792E0,3.826866989E0,-7.161587870E-1,4.068638539E0,5.631306591E0
5.614553792E0,2.588284627E0,-1.990567625E-1,4.249331828E0,4.979524263E0
5.624519792E0,1.261625070E0,-8.690131903E-3,4.097384913E0,4.287229462E0
5.634484792E0,-1.068871021E-3,5.035329759E-2,3.623097371E0,3.623447413E0
5.644450792E0,-6.613253528E-1,3.167202830E-2,2.480877707E0,2.567704916E0
5.654415792E0,-9.091958410E-1,1.661193967E-3,1.372318417E0,1.646176684E0
5.664380792E0,-1.225578155E0,-3.501780510E-2,7.531913964E-1,1.438945913E0
5.674346792E0,-1.391964185E0,-2.069621980E-2,2.935793424E-1,1.422737311E0
5.684311792E0,-1.557389517E0,1.196866572E-2,1.476002415E-1,1.564414008E0
5.694277792E0,-1.802980176E0,-4.657248795E-2,1.176916603E-1,1.807417450E0
5.704242792E0,-1.975358432E0,-5.257991731E-2,9.602531433E-2,1.978389861E0
5.714208792E0,-1.880571558E0,-8.673759699E-3,-2.896125913E-2,1.880814550E0
5.724173792E0,-1.735657089E0,-2.410099500E-1,-2.396203592E-2,1.752474110E0
5.734139792E0,-2.429877123E0,-7.919492269E-1,-6.602441295E-1,2.639584952E0
5.744104792E0,-2.866189338E0,-4.076310378E-1,-3.815962370E-1,2.920071929E0
5.754070792E0,-2.777339142E0,-8.732834119E-1,8.479550278E-1,3.032369429E0
5.764035792E0,-2.626603185E0,-2.053100672E0,1.761100224E-1,3.338454942E0
5.774001792E0,-2.722891039E0,-2.513188836E0,-2.225567222E-1,3.712113311E0
5.783966792E0,-3.220463948E0,-3.144050195E0,-8.978765085E-2,4.501610989E0
5.793932792E0,-3.484513682E0,-3.731062700E0,-2.454064715E-1,5.111055547E0
5.803897792E0,-3.733133199E0,-4.406380147E0,-3.775979841E-1,5.787490796E0
5.813863792E0,-3.955808035E0,-4.947663624E0,-3.900010248E-1,6.346644259E0
5.823828792E0,-4.056941476E0,-5.279783719E0,-2.898827326E-1,6.664752228E0
5.833793792E0,-4.003424250E0,-5.263478174E0,-8.413324714E-2,6.613523011E0
5.843759792E0,-3.827398501E0,-5.193395786E0,-1.574421287E-2,6.451401937E0
5.853724792E0,-3.613357664E0,-5.349597720E0,9.220912904E-3,6.455589392E0
5.863690792E0,-3.355015397E0,-5.750336645E0,1.935711240E-1,6.660328042E0
5.873655792E0,-3.115857845E0,-6.169360982E0,3.760800469E-1,6.921778763E0
5.883621792E0,-2.993312484E0,-6.477582337E0,4.370875561E-1,7.149128485E0
5.893586792E0,-3.207246902E0,-6.676083614E0,4.558689590E-1,7.420535130E0
5.903552792E0,-3.596262744E0,-6.715572785E0,3.446864922E-1,7.625669304E0
5.913517792E0,-3.797933797E0,-6.685075462E0,1.449865361E-1,7.689964640E0
5.923483792E0,-3.849301001E0,-6.774051958E0,-1.051925790E-1,7.792044893E0
5.933448792E0,-3.881054891E0,-6.890192864E0,-4.225385141E-1,7.919336056E0
5.943414792E0,-4.185307156E0,-6.948322374E0,-6.334649782E-1,8.136169718E0
5.953379792E0,-4.774666148E0,-6.798409120E0,-8.229124264E-1,8.348232642E0
5.963345792E0,-5.261372007E0,-6.552900322E0,-1.003018509E0,8.463367188E0
5.973310792E0,-5.604304188E0,-6.438225313E0,-1.064148810E0,8.601824417E0
5.983276792E0,-5.766529339E0,-6.192511278E0,-9.001879129E-1,8.509429759E0
5.993241792E0,-5.630061173E0,-5.567474915E0,-7.133303426E-1,7.950044397E0
6.003206792E0,-5.213393263E0,-4.851299756E0,-6.076577072E-1,7.147295050E0
6.013172792E0,-4.561525197E0,-4.358962152E0,-6.475881967E-1,6.342510042E0
6.023137792E0,-3.832925874E0,-4.282168037E0,-7.977809474E-1,5.802132220E0
6.033103792E0,-3.125469498E0,-4.439691442E0,-1.043001770E0,5.528767709E0
6.043068792E0,-2.537433731E0,-4.572489603E0,-1.209309447E0,5.367369975E0
6.053034792E0,-2.181159373E0,-4.762453946E0,-1.241121516E0,5.383196672E0
6.062999792E0,-1.934094046E0,-5.161106876E0,-1.270582273E0,5.656157996E0
6.072965792E0,-1.706863060E0,-5.629713264E0,-1.114598002E0,5.987435314E0
6.082930792E0,-1.547466792E0,-5.798370352E0,-7.333463851E-1,6.045953120E0
6.092896792E0,-1.659727485E0,-5.526118729E0,-1.672329989E-1,5.772404213E0
6.102861792E0,-1.934217423E0,-4.830761411E0,3.742636093E-1,5.217041892E0
6.112827792E0,-2.107526556E0,-3.969804515E0,8.127276000E-1,4.567443729E0
6.122792792E0,-2.170435579E0,-3.099159951E0,1.136551665E0,3.950611686E0
6.132759167E0,-2.202154970E0,-2.158506090E0,1.278947154E0,3.338314077E0
6.142724167E0,-2.383128633E0,-1.411427227E0,1.294808019E0,3.057442838E0
6.152689167E0,-2.694055495E0,-9.168784976E-1,1.154812227E0,3.071187469E0
6.162655167E0,-3.036335712E0,-6.010440677E-1,1.023714437E0,3.260150269E0
6.172620167E0,-3.281105422E0,-3.568491393E-1,8.909341094E-1,3.418590014E0
6.182586167E0,-3.365631017E0,-1.078109622E-2,7.903678474E-1,3.457205477E0
6.192551167E0,-3.275278087E0,3.820138013E-1,8.390774927E-1,3.402562583E0
6.202517167E0,-2.998012476E0,7.219843680E-1,9.667403367E-1,3.231706533E0
6.212482167E0,-2.472323231E0,1.041680884E0,1.097217446E0,2.898511229E0
6.222448167E0,-1.772889234E0,1.279196538E0,1.193504715E0,2.490769665E0
6.232413167E0,-1.147715462E0,1.293045668E0,1.195716132E0,2.102131050E0
6.242379167E0,-6.183062178E-1,1.269981326E0,1.053986641E0,1.762396944E0
6.252344167E0,-1.100182861E-1,1.326378890E0,8.709407249E-1,1.590573082E0
6.262310167E0,3.942140168E-1,1.421579162E0,6.600677629E-1,1.616162572E0
6.272275167E0,8.982252949E-1,1.465429187E0,4.486720598E-1,1.776400293E0
6.282241167E0,1.360716664E0,1.473792459E0,2.670785916E-1,2.023597052E0
6.292206167E0,1.830113010E0,1.572378854E0,2.254312134E-1,2.423325839E0
6.302171167E0,2.320340647E0,1.709658029E0,3.252819224E-1,2.900468863E0
6.312137167E0,2.750053402E0,1.702837252E0,5.881863329E-1,3.287614878E0
6.322102167E0,3.183068958E0,1.522769322E0,8.823775864E-1,3.637216601E0
6.332068167E0,3.578525215E0,1.277089786E0,9.939740360E-1,3.927440060E0
6.342033167E0,3.904829085E0,1.081103981E0,1.023559778E0,4.179013115E0
6.351999167E0,4.197945035E0,8.983708906E-1,1.180893148E0,4.452451168E0
6.361964167E0,4.489850028E0,6.832752156E-1,1.222051699E0,4.703087140E0
6.371930167E0,4.717458452E0,3.480145812E-1,1.339880550E0,4.916381625E0
6.381895167E0,5.139390902E0,2.147261310E-1,1.362123066E0,5.321167673E0
6.391861167E0,5.756352260E0,4.169006288E-2,1.379222517E0,5.919424309E0
6.401826167E0,6.348904417E0,-1.998104686E-1,1.396025953E0,6.503645130E0
6.411792167E0,6.841889015E0,-4.371068519E-1,1.063853233E0,6.937888108E0
6.421757167E0,7.304199121E0,-3.658018112E-1,6.796432176E-1,7.344865599E0
6.431722167E0,7.637521988E0,4.874765217E-2,4.707802360E-1,7.652173056E0
6.441688167E0,8.049668831E0,2.146191269E-1,2.800594103E-1,8.057398025E0
6.451653167E0,8.542771543E0,-1.478515255E-1,1.859414577E-1,8.546073949E0
6.461619167E0,8.724687193E0,-6.350982517E-1,1.593449588E-1,8.749223235E0
6.471584167E0,8.552228245E0,-6.678157622E-1,2.242044675E-1,8.581191846E0
6.481550167E0,8.242685419E0,-2.651840937E-1,3.925376201E-1,8.256286775E0
6.491515167E0,8.250989050E0,3.003831625E-1,5.986623506E-1,8.278130644E0
6.501481167E0,8.636824592E0,7.217405391E-1,7.265389104E-1,8.697327591E0
6.511446167E0,9.186120801E0,9.335956872E-1,7.780540498E-1,9.266163412E0
6.521412167E0,9.658813807E0,1.221061766E0,7.259576241E-1,9.762719420E0
6.531377167E0,9.950618520E0,1.455846770E0,3.139569620E-1,1.006145455E1
6.541343167E0,1.009851799E1,1.506923368E0,-4.511115181E-1,1.022029282E1
6.551308167E0,1.013349838E1,1.477739915E0,-1.240837634E0,1.031557961E1
6.561273167E0,9.887218330E0,1.446112325E0,-1.930710847E0,1.017722809E1
6.571239167E0,9.212205230E0,1.502016385E0,-2.229847383E0,9.596509666E0
6.581204167E0,8.297428222E0,1.555398540E0,-2.215446861E0,8.727816709E0
6.591170167E0,7.408088940E0,1.363256695E0,-2.043483757E0,7.804747044E0
6.601135167E0,6.724901433E0,1.043599940E0,-1.805926588E0,7.040935375E0
6.611101167E0,6.211044613E0,7.740830594E-1,-1.302864897E0,6.393257128E0
6.621066167E0,5.673842200E0,3.755438572E-1,-6.329681110E-1,5.721378080E0
6.631032167E0,5.092165280E0,2.538995522E-1,1.046757583E-1,5.099565593E0
6.640997167E0,4.471137476E0,4.225168794E-1,9.065266601E-1,4.581635235E0
6.650963167E0,3.835680497E0,8.043201810E-1,1.596103932E0,4.231657310E0
6.660928167E0,3.268722188E0,1.274672547E0,2.074635237E0,4.075959545E0
6.670894167E0,2.702151842E0,1.700470299E0,2.605868958E0,4.121137810E0
6.680859167E0,2.121021345E0,1.839263903E0,3.006492108E0,4.113467886E0
6.690824167E0,1.436897698E0,1.637867669E0,3.219637152E0,3.887589084E0
6.700790167E0,8.133067667E-1,1.498563019E0,3.203262609E0,3.628780837E0
6.710755167E0,2.257908171E-1,1.328269880E0,3.039352291E0,3.324596925E0
6.720721167E0,-2.848243064E-1,1.159444392E0,2.751166420E0,2.999058661E0
6.730686167E0,-6.839020371E-1,1.079053363E0,2.599452224E0,2.896416755E0
6.740652167E0,-9.501941782E-1,9.731784135E-1,2.372487870E0,2.734710935E0
6.750617167E0,-9.928730053E-1,8.405711639E-1,1.978308352E0,2.367712107E0
6.760583167E0,-9.566366404E-1,6.997614402E-1,1.827443172E0,2.178157084E0
6.770548167E0,-8.467265278E-1,5.990261936E-1,1.834099642E0,2.107059489E0
6.780514167E0,-6.076303715E-1,4.179589748E-1,1.691588963E0,1.845366520E0
6.790479167E0,-7.362691158E-1,-4.299223781E-2,1.800150562E0,1.945374665E0
6.800445167E0,-9.860054505E-1,-3.414370483E-1,1.602849133E0,1.912566692E0
6.810410167E0,-1.378984535E0,-7.274181855E-1,1.203735881E0,1.969699377E0
6.820375167E0,-2.053438641E0,-1.325390126E0,8.770346200E-1,2.596624533E0
6.830341167E0,-2.517289488E0,-1.731890897E0,4.875735855E-1,3.094175245E0
6.840306167E0,-2.726632088E0,-2.088220804E0,2.020772879E-1,3.440352293E0
6.850272167E0,-2.641924059E0,-2.416476474E0,3.970727205E-2,3.580600222E0
6.860237167E0,-2.638861873E0,-2.892901173E0,1.017813134E-1,3.916992292E0
6.870203167E0,-2.854538176E0,-3.185030406E0,3.680869762E-1,4.292818993E0
6.880168167E0,-2.952660887E0,-3.294224235E0,5.335888338E-1,4.455876644E0
6.890134167E0,-2.780676733E0,-3.470117837E0,6.822237401E-1,4.498812080E0
6.900099167E0,-2.471941992E0,-3.821343709E0,7.471817744E-1,4.612097740E0
6.910065167E0,-2.290691755E0,-4.389622319E0,7.132948208E-1,5.002483616E0
6.920030167E0,-2.295042084E0,-4.960927448E0,6.723723511E-1,5.507277357E0
6.929996167E0,-2.396041625E0,-5.611626656E0,6.259092061E-1,6.133769765E0
6.939961167E0,-2.501609010E0,-6.359876132E0,4.867735402E-1,6.851497685E0
6.949926167E0,-2.796294646E0,-6.869227087E0,3.611320786E-1,7.425359311E0
6.959892167E0,-3.274195182E0,-7.013916439E0,3.840813768E-1,7.750025575E0
6.969857167E0,-3.750456744E0,-6.992162458E0,5.324908729E-1,7.952346079E0
6.979823167E0,-4.082386220E0,-6.881216803E0,5.979937215E-1,8.023379490E0
6.989788167E0,-4.097119449E0,-6.880292943E0,7.415077825E-1,8.042055245E0
6.999754167E0,-3.910955213E0,-7.018897097E0,1.062910370E0,8.104953152E0
7.009719167E0,-3.612381763E0,-7.139016448E0,1.336462998E0,8.111781013E0
7.019685167E0,-3.335410852E0,-7.314368598E0,1.401909860E0,8.160288279E0
7.029650167E0,-3.503196121E0,-7.394674258E0,1.362055238E0,8.295106082E0
7.039615167E0,-4.282164529E0,-7.141557648E0,1.339602953E0,8.434056839E0
7.049581167E0,-5.098684925E0,-6.335265786E0,1.092118235E0,8.205175366E0
7.059546167E0,-5.305569355E0,-5.283761580E0,7.229111516E-1,7.522619434E0
7.069512167E0,-4.760887184E0,-4.499672180E0,2.610371022E-1,6.556007694E0
7.079477167E0,-3.730848107E0,-4.156078094E0,-2.671791637E-1,5.591386002E0
7.089443167E0,-2.669132323E0,-4.024731797E0,-6.041096167E-1,4.866999263E0
7.099408167E0,-1.837199251E0,-3.832710989E0,-8.536689270E-1,4.335173036E0
7.109374167E0,-1.324262198E0,-3.672915356E0,-9.962787160E-1,4.029460120E0
7.119339167E0,-8.228956157E-1,-3.812917871E0,-1.279492407E0,4.105191921E0
7.129305167E0,-5.257126343E-1,-4.059375088E0,-1.442385310E0,4.339974108E0
7.139270333E0,-5.164015281E-1,-3.996642650E0,-1.365597189E0,4.254959305E0
7.149236333E0,-8.821056908E-1,-3.733221199E0,-1.118314054E0,3.995707358E0
7.159201333E0,-1.457221450E0,-3.324210218E0,-8.985334432E-1,3.739148336E0
7.169166333E0,-1.898713714E0,-2.753986532E0,-6.294469178E-1,3.403785982E0
7.179132333E0,-2.259412075E0,-2.185528997E0,-3.932347544E-1,3.167982559E0
7.189097333E0,-2.648256009E0,-1.637609807E0,-4.006022461E-1,3.139348329E0
7.199063333E0,-2.949358379E0,-1.030550124E0,-4.099611533E-1,3.151002468E0
7.209028333E0,-3.236190035E0,-5.208348870E-1,-4.050867681E-1,3.302770081E0
7.218994333E0,-3.562814332E0,-2.382962573E-1,-3.987635891E-1,3.592971398E0
7.228959333E0,-3.828708277E0,2.126807749E-2,-3.302238429E-1,3.842981550E0
7.238925333E0,-4.012398557E0,3.096141618E-1,-1.867508586E-1,4.028657220E0
7.248890333E0,-4.123582193E0,5.644919533E-1,2.132611111E-2,4.162095154E0
7.258856333E0,-4.127530233E0,7.891332078E-1,2.527505744E-1,4.209883597E0
7.268821333E0,-3.992587021E0,1.018557485E0,4.011074455E-1,4.139939330E0
7.278786333E0,-3.709757785E0,1.165148351E0,5.133491354E-1,3.922167874E0
7.288752333E0,-3.391872151E0,1.323303255E0,5.438134213E-1,3.681258105E0
7.298717333E0,-3.098466471E0,1.406465279E0,4.745190918E-1,3.435666955E0
7.308683333E0,-2.882497807E0,1.245469213E0,4.817206688E-1,3.176797440E0
7.318648333E0,-2.726298212E0,1.020817434E0,5.583191939E-1,2.964201494E0
7.328614333E0,-2.630468194E0,9.521360385E-1,6.045355864E-1,2.862060313E0
7.338579333E0,-2.498077877E0,9.701998419E-1,7.062419093E-1,2.771364004E0
7.348545333E0,-2.142785266E0,9.838460737E-1,8.313688159E-1,2.500131177E0
7.358510333E0,-1.662821832E0,8.211858898E-1,1.029821122E0,2.121285991E0
7.368476333E0,-1.043720977E0,5.483010131E-1,1.135301092E0,1.636733347E0
7.378441333E0,-4.550613123E-1,2.630381656E-1,9.625182085E-1,1.096681894E0
7.388406333E0,-3.515404522E-2,4.279577136E-3,5.989500336E-1,5.999960537E-1
7.398372333E0,2.016809928E-1,-1.594500625E-1,1.389356911E-1,2.922373549E-1
7.408337333E0,3.757871014E-1,-1.889837641E-1,-3.619720311E-1,5.549365369E-1
7.418303333E0,5.635599071E-1,-1.975259614E-1,-6.848295517E-1,9.086296216E-1
7.428268333E0,9.356761265E-1,-1.697551954E-1,-8.121594699E-1,1.250563731E0
7.438234333E0,1.494368811E0,-3.206607217E-1,-9.036943419E-1,1.775563264E0
7.448199333E0,2.352423735E0,-6.045541513E-1,-7.824811960E-1,2.551795441E0
7.458165333E0,3.419961591E0,-7.741491330E-1,-5.356963165E-1,3.547169957E0
7.468130333E0,4.622923885E0,-7.580055553E-1,-3.080150945E-1,4.694770598E0
7.478096333E0,5.984707081E0,-6.036747301E-1,-3.226423430E-1,6.023723110E0
7.488061333E0,7.461801463E0,-1.946526396E-1,-8.001948242E-1,7.507108797E0
7.498026333E0,8.654377933E0,3.094539481E-1,-1.339108133E0,8.762832290E0
7.507992333E0,9.571659304E0,8.271330929E-1,-1.895801654E0,9.792592859E0
7.517957333E0,1.028405716E1,1.049983345E0,-2.340208755E0,1.059909778E1
7.527923333E0,1.115456490E1,6.010990316E-1,-2.713502165E0,1.149559621E1
7.537888333E0,1.190760675E1,-2.781356764E-1,-2.515217235E0,1.217352766E1
7.547854333E0,1.196730332E1,-2.147202837E-1,-1.348150413E0,1.204491441E1
7.557819333E0,1.154064018E1,7.519004774E-1,2.552980600E-1,1.156792579E1
7.567785333E0,1.153067184E1,1.635946274E0,1.516229943E0,1.174443130E1
7.577750333E0,1.161221594E1,2.421308028E0,2.353909220E0,1.209327004E1
7.587715333E0,1.168494010E1,3.127476262E0,2.766654817E0,1.240859831E1
7.597681333E0,1.189596846E1,3.808758747E0,2.956494321E0,1.283594825E1
7.607646333E0,1.212965945E1,4.152541698E0,3.029680119E0,1.317388335E1
7.617612333E0,1.219859695E1,3.857877697E0,2.909544103E0,1.312076350E1
7.627577333E0,1.190919954E1,3.028937230E0,2.587338255E0,1.255777901E1
7.637543333E0,1.119553049E1,1.954060534E0,1.985636083E0,1.153694094E1
7.647508333E0,1.039662308E1,9.747589159E-1,1.243480867E0,1.051599596E1
7.657474333E0,9.574157234E0,4.317233205E-2,6.075338924E-1,9.593510725E0
7.667439333E0,8.456620422E0,-6.810632139E-1,2.496369320E-1,8.487673101E0
7.677404333E0,7.063783833E0,-9.149179262E-1,2.251192644E-2,7.122824133E0
7.687370333E0,5.708595711E0,-7.995400822E-1,-6.018992230E-2,5.764629404E0
7.697335333E0,4.638468123E0,-5.386548615E-1,1.529339254E-3,4.669640021E0
7.707301333E0,3.835551274E0,-1.489373535E-1,1.984322798E-1,3.843567520E0
7.717266333E0,3.345399651E0,3.493600255E-1,5.010674974E-1,3.400708733E0
7.727232333E0,3.134968300E0,7.044737113E-1,8.806968042E-1,3.331656692E0
7.737197333E0,2.942624141E0,7.645450813E-1,1.158411043E0,3.253533796E0
7.747163333E0,2.638654881E0,6.239236379E-1,1.352269192E0,3.029919513E0
7.757128333E0,2.169138082E0,4.686531651E-1,1.532188017E0,2.696738017E0
7.767094333E0,1.529631615E0,3.399308056E-1,1.688262190E0,2.303379051E0
7.777059333E0,7.860429543E-1,2.134315574E-1,1.673230022E0,1.860944723E0
7.787024333E0,2.003577679E-1,1.070952630E-1,1.412242913E0,1.430399481E0
7.796990333E0,-2.969642955E-1,6.648284197E-4,1.157674147E0,1.195155917E0
7.806955333E0,-8.156871682E-1,-2.213399166E-1,9.583905128E-1,1.277829914E0
7.816921333E0,-1.221718993E0,-4.541058773E-1,7.841300377E-1,1.521075067E0
7.826886333E0,-1.647465874E0,-8.564229655E-1,6.929380319E-1,1.981859535E0
7.836852333E0,-1.868926243E0,-1.374334829E0,7.688524327E-1,2.443934449E0
7.846817333E0,-2.124913836E0,-1.810131905E0,8.314718731E-1,2.912590222E0
7.856783333E0,-2.537565878E0,-1.925148391E0,1.088120348E0,3.365923767E0
7.866748333E0,-2.725461475E0,-2.170292907E0,1.482167280E0,3.786176357E0
7.876713333E0,-2.676955313E0,-2.530460634E0,1.494821970E0,3.975401048E0
7.886679333E0,-2.539665028E0,-2.958541724E0,1.058895964E0,4.040312890E0
7.896644333E0,-2.716711702E0,-3.472404391E0,6.760984893E-1,4.460406247E0
7.906610333E0,-2.993517137E0,-3.785554364E0,5.989570503E-1,4.863159080E0
7.916575333E0,-3.277622820E0,-3.988210088E0,2.415297675E-1,5.167878451E0
7.926541333E0,-3.420187878E0,-4.205552263E0,3.571493939E-2,5.420851457E0
7.936506333E0,-3.491035666E0,-4.501511714E0,-2.175795722E-1,5.700726148E0
7.946472333E0,-3.350414808E0,-4.852217477E0,-4.266841900E-1,5.911966950E0
7.956437333E0,-3.127956319E0,-5.213734156E0,-5.328343968E-1,6.103363587E0
7.966402333E0,-3.022411737E0,-5.519165804E0,-6.488361387E-1,6.325911177E0
7.976368333E0,-2.951236505E0,-5.830604882E0,-6.079759419E-1,6.563184056E0
7.986333333E0,-2.724929379E0,-6.227337880E0,-4.457040131E-1,6.812020937E0
7.996299333E0,-2.476898092E0,-6.648307001E0,-1.792183292E-1,7.096980298E0
8.006264333E0,-2.268489878E0,-6.932759424E0,-1.723306015E-2,7.294483980E0
8.016230333E0,-2.187235799E0,-7.126786412E0,2.478605479E-2,7.454911090E0
8.026195333E0,-2.432549300E0,-7.335034997E0,-3.766790941E-2,7.727965669E0
8.036161333E0,-2.853353530E0,-7.439737580E0,-2.579559119E-1,7.972318538E0
8.046126333E0,-3.162823851E0,-7.584262624E0,-4.890950310E-1,8.231871489E0
8.056091333E0,-3.637486199E0,-7.896008681E0,-7.108424985E-1,8.722588836E0
8.066057333E0,-4.189593750E0,-8.084870238E0,-9.070877735E-1,9.150990700E0
8.076022333E0,-4.595175338E0,-8.076116956E0,-9.168561320E-1,9.337019152E0
8.085988333E0,-4.839928676E0,-7.974547312E0,-6.697704864E-1,9.352374401E0
8.095953333E0,-5.023173398E0,-7.514712918E0,-3.567867203E-1,9.046020008E0
8.105919333E0,-5.158285010E0,-6.720730614E0,-1.392442779E-1,8.473223306E0
8.115884333E0,-5.001144013E0,-5.980905222E0,-6.328660771E-2,7.796580911E0
8.125850333E0,-4.516340253E0,-5.645719432E0,-1.963914554E-1,7.232568478E0
8.135814583E0,-3.821457730E0,-5.725816931E0,-2.878253898E-1,6.889946455E0
8.145779583E0,-3.276969101E0,-5.875551844E0,-4.534908964E-1,6.742869564E0
8.155745583E0,-3.006313768E0,-5.871165848E0,-6.798051855E-1,6.631036569E0
8.165710583E0,-2.773713284E0,-5.813361443E0,-9.713727933E-1,6.514001977E0
8.175676583E0,-2.441100268E0,-5.732739449E0,-1.287505431E0,6.362463544E0
8.185641583E0,-2.073874660E0,-5.651216984E0,-1.472448477E0,6.197202112E0
8.195607583E0,-1.764810721E0,-5.460792466E0,-1.521473872E0,5.937145272E0
8.205572583E0,-1.501601817E0,-5.095384172E0,-1.364922566E0,5.484593102E0
8.215538583E0,-1.360204448E0,-4.547158296E0,-9.831192648E-1,4.846991665E0
8.225503583E0,-1.350486960E0,-3.872700974E0,-4.766711596E-1,4.129024492E0
8.235468583E0,-1.570287305E0,-3.214152171E0,2.380109131E-3,3.577231061E0
8.245434583E0,-1.856662878E0,-2.540789740E0,3.452371538E-1,3.165753976E0
8.255399583E0,-1.974445682E0,-1.846542517E0,5.830305505E-1,2.765516161E0
8.265365583E0,-1.902170003E0,-1.331530872E0,7.695964909E-1,2.446120181E0
8.275330583E0,-1.757271321E0,-9.587621033E-1,9.093253568E-1,2.198658653E0
8.285296583E0,-1.609044989E0,-6.130811459E-1,1.086315312E0,2.035921223E0
8.295261583E0,-1.551667432E0,-2.322584224E-1,1.248271491E0,2.004943268E0
8.305227583E0,-1.577651289E0,1.341093993E-1,1.333192066E0,2.069871978E0
8.315192583E0,-1.602121886E0,4.251434487E-1,1.280928775E0,2.094831740E0
8.325157583E0,-1.561969056E0,7.033750194E-1,1.156623403E0,2.066944955E0
8.335123583E0,-1.434661723E0,9.975303125E-1,1.045319606E0,2.036176334E0
8.345088583E0,-1.194720644E0,1.195677248E0,8.778822470E-1,1.904646618E0
8.355054583E0,-9.245441973E-1,1.238305789E0,6.120855112E-1,1.662176848E0
8.365019583E0,-5.992758697E-1,1.180379763E0,3.674381545E-1,1.373840875E0
8.374985583E0,-1.933416939E-1,1.149072016E0,1.825415942E-1,1.179435857E0
8.384950583E0,3.099825364E-1,1.265645031E0,5.849788427E-2,1.304365179E0
8.394916583E0,7.882379991E-1,1.261920354E0,9.438487798E-2,1.490862378E0
8.404881583E0,1.181421152E0,1.327747139E0,1.497939706E-1,1.783565708E0
8.414846583E0,1.809620274E0,1.893695049E0,-2.166755927E-1,2.628260791E0
8.424812583E0,2.960199117E0,1.542504845E0,-9.173484676E-1,3.461737746E0
8.434777583E0,3.695159626E0,1.555131907E0,-5.953167200E-1,4.053028733E0
8.444743583E0,4.466040165E0,2.310840091E0,-6.772230551E-2,5.028924636E0
8.454708583E0,4.836018643E0,2.576752163E0,2.286027431E-1,5.484431350E0
8.464674583E0,5.371523609E0,2.800223975E0,-1.129828244E-2,6.057610737E0
8.474639583E0,5.933438694E0,2.950162371E0,-2.480602303E-1,6.631039635E0
8.484604583E0,6.284843491E0,2.833365408E0,-2.898561278E-1,6.900089407E0
8.494570583E0,6.466587818E0,2.545469559E0,-3.371527934E-1,6.957718397E0
8.504535583E0,6.501279933E0,2.305391071E0,-5.932795501E-1,6.923398687E0
8.514501583E0,6.627879753E0,2.326307146E0,-1.003747072E0,7.095632681E0
8.524466583E0,6.865514106E0,2.290188895E0,-1.166967712E0,7.330897813E0
8.534432583E0,7.170104924E0,2.107782664E0,-1.234099010E0,7.574704796E0
8.544397583E0,7.510421062E0,1.853704187E0,-1.074598077E0,7.810083531E0
8.554363583E0,7.933080028E0,1.676266919E0,-8.775090484E-1,8.155590209E0
8.564328583E0,8.219480159E0,1.605908543E0,-6.171610406E-1,8.397599900E0
8.574293583E0,8.197872943E0,1.599611676E0,-2.264956990E-1,8.355547774E0
8.584259583E0,7.950387787E0,1.655490593E0,1.822660442E-1,8.122963497E0
8.594224583E0,7.743764727E0,1.874589272E0,4.922259226E-1,7.982622592E0
8.604190583E0,7.781204449E0,2.082836688E0,7.293594611E-1,8.088097215E0
8.614155583E0,7.868033262E0,2.306179276E0,9.043441138E-1,8.248772548E0
8.624121583E0,8.095734365E0,2.513961253E0,9.386033888E-1,8.528885766E0
8.634086583E0,8.441912336E0,2.630000417E0,8.818548453E-1,8.885969505E0
8.644051583E0,8.733448661E0,2.689152605E0,7.636449024E-1,9.169941155E0
8.654017583E0,8.879723192E0,2.597346641E0,5.683870760E-1,9.269237154E0
8.663982583E0,8.906694059E0,2.268595127E0,3.773662882E-1,9.198811240E0
8.673948583E0,8.840364999E0,1.711677073E0,1.684527281E-1,9.006123919E0
8.683913583E0,8.588613714E0,1.045086302E0,-1.040371692E-1,8.652590054E0
8.693879583E0,8.195427638E0,4.670130211E-1,-3.016881149E-1,8.214265095E0
8.703844583E0,7.613813868E0,9.291284144E-2,-3.597698236E-1,7.622875359E0
8.713809583E0,6.708518704E0,-3.909758288E-1,-3.181167443E-1,6.727427708E0
8.723775583E0,5.914107215E0,-4.466886842E-1,4.003249419E-1,5.944447408E0
8.733740583E0,5.308347368E0,-1.445279682E-1,1.344980053E0,5.477993378E0
8.743706583E0,4.771921465E0,-4.066621542E-2,1.672850976E0,5.056809132E0
8.753671583E0,4.106820565E0,7.220083416E-2,1.886973820E0,4.520161315E0
8.763637583E0,3.134912167E0,-8.916419148E-3,2.236683948E0,3.851039974E0
8.773602583E0,2.179838487E0,8.722057700E-2,2.566744069E0,3.368601842E0
8.783568583E0,1.364478763E0,3.936544383E-1,2.711397167E0,3.060790864E0
8.793533583E0,7.462842268E-1,6.893884796E-1,2.862682178E0,3.037621747E0
8.803498583E0,3.435689431E-1,6.674029487E-1,2.957121435E0,3.050906996E0
8.813464583E0,-2.365426773E-1,4.235097367E-1,3.137741927E0,3.175017690E0
8.823429583E0,-1.016089960E0,-3.917663723E-1,3.389492627E0,3.560137633E0
8.833395583E0,-1.786630191E0,-1.401151915E0,3.504688915E0,4.175897331E0
8.843360583E0,-2.715631136E0,-1.533209526E0,3.471096953E0,4.666250955E0
8.853326583E0,-3.567978593E0,-1.313840121E0,2.989344271E0,4.836613099E0
8.863291583E0,-4.022607211E0,-8.582192302E-1,2.688669040E0,4.913944467E0
8.873257583E0,-3.854106243E0,-7.017266893E-1,2.454331348E0,4.622801926E0
8.883222583E0,-3.313374451E0,-7.779796439E-1,2.458894515E0,4.198793257E0
8.893187583E0,-3.079119789E0,-7.828831190E-1,2.518501616E0,4.054224345E0
8.903153583E0,-2.853904338E0,-7.056390613E-1,2.389868719E0,3.788689608E0
8.913118583E0,-2.503422232E0,-6.591449261E-1,2.221281213E0,3.411112008E0
8.923084583E0,-2.335298409E0,-8.327440810E-1,2.157384156E0,3.286546479E0
8.933049583E0,-2.319786331E0,-1.221323721E0,1.968772421E0,3.278582788E0
8.943015583E0,-2.381137072E0,-1.493812156E0,1.599174889E0,3.233983432E0
8.952980583E0,-2.571638773E0,-1.773197383E0,1.052133366E0,3.296140100E0
8.962945583E0,-2.790198923E0,-2.119414530E0,5.858739053E-1,3.552516884E0
8.972911583E0,-2.876447108E0,-2.642444462E0,1.104600433E-1,3.907513547E0
8.982876583E0,-2.868192009E0,-2.720425853E0,1.962825510E-1,3.958000640E0
8.992842583E0,-2.992824826E0,-2.542155942E0,5.306582093E-1,3.962468348E0
9.002807583E0,-2.793054119E0,-2.554155014E0,8.004583874E-1,3.868538842E0
9.012773583E0,-2.338027890E0,-2.917227345E0,1.132828158E0,3.906390844E0
9.022738583E0,-2.065099159E0,-3.721997176E0,1.428790241E0,4.489915263E0
9.032703583E0,-2.169944413E0,-4.326629973E0,1.738295352E0,5.142961832E0
9.042669583E0,-2.404810694E0,-4.619041626E0,1.798597980E0,5.509411467E0
9.052634583E0,-2.899210904E0,-4.942168411E0,1.770741844E0,5.997164259E0
9.062600583E0,-3.600257562E0,-5.285444409E0,1.593741657E0,6.590735132E0
9.072565583E0,-4.416601372E0,-5.626849297E0,1.421003504E0,7.292945335E0
9.082531583E0,-4.937440937E0,-6.025725299E0,1.136691706E0,7.872722301E0
9.092496583E0,-5.094455634E0,-6.471962578E0,9.635977507E-1,8.292665341E0
9.102461583E0,-5.092061784E0,-6.684445133E0,8.922526565E-1,8.450267141E0
9.112427583E0,-5.174512203E0,-6.440001698E0,8.012617949E-1,8.300073425E0
9.122392583E0,-5.139287991E0,-5.991624922E0,6.194513950E-1,7.918053441E0
9.132358583E0,-4.672495995E0,-6.024429556E0,3.945125172E-1,7.634239348E0
9.142324083E0,-4.154730896E0,-6.312885568E0,3.171588242E-1,7.564053327E0
9.152290083E0,-4.059306090E0,-6.238627099E0,3.810245986E-1,7.452758802E0
9.162255083E0,-4.343097194E0,-5.872271556E0,6.051365340E-1,7.328864625E0
9.172221083E0,-4.459256811E0,-5.496882650E0,9.378138685E-1,7.140040968E0
9.182186083E0,-4.001833808E0,-5.314208032E0,1.259791968E0,6.770713155E0
9.192151083E0,-3.289682702E0,-5.483004869E0,1.388089381E0,6.543099174E0
9.202117083E0,-2.546340210E0,-5.808196598E0,1.376823112E0,6.489579190E0
9.212082083E0,-1.812524586E0,-5.952626333E0,1.276593357E0,6.352062360E0
9.222048083E0,-1.046526471E0,-5.878008260E0,1.180478288E0,6.086027255E0
9.232013083E0,-3.006556427E-1,-5.719096726E0,1.175869513E0,5.846463058E0
9.241979083E0,2.627621770E-1,-5.385125987E0,1.147227219E0,5.512236946E0
9.251944083E0,4.952088797E-1,-4.879482751E0,1.056651949E0,5.017080535E0
9.261909083E0,3.166226345E-1,-4.185149281E0,9.670616412E-1,4.307079360E0
9.271875083E0,-1.454822338E-1,-3.277231057E0,9.288560803E-1,3.409425479E0
9.281840083E0,-6.965992659E-1,-2.309909214E0,8.394194086E-1,2.554516796E0
9.291806083E0,-1.093138136E0,-1.405486456E0,6.726240738E-1,1.903356589E0
9.301771083E0,-1.322749524E0,-5.643299854E-1,4.167263818E-1,1.497262673E0
9.311737083E0,-1.436046343E0,1.872980118E-1,6.149180487E-2,1.449514018E0
9.321702083E0,-1.479691715E0,8.318248987E-1,-3.312003279E-1,1.729483707E0
9.331667083E0,-1.455664337E0,1.457027323E0,-8.299410720E-1,2.220515585E0
9.341633083E0,-1.362677820E0,2.084828834E0,-1.267786281E0,2.794760126E0
9.351598083E0,-1.249476310E0,2.685958856E0,-1.417260994E0,3.283929772E0
9.361564083E0,-1.208776765E0,2.990798766E0,-1.450439411E0,3.536918576E0
9.371529083E0,-1.286635950E0,3.009492314E0,-1.514696510E0,3.606491588E0
9.381495083E0,-1.352755095E0,2.978435413E0,-1.517936014E0,3.606265881E0
9.391460083E0,-1.345068346E0,2.949422699E0,-1.287337031E0,3.487913379E0
9.401425083E0,-1.258579840E0,2.929548597E0,-9.660207637E-1,3.331587356E0
9.411391083E0,-9.335185039E-1,2.895519556E0,-8.255767103E-1,3.152311406E0
9.421356083E0,-3.475871497E-1,2.854881992E0,-8.377609921E-1,2.995498539E0
9.431322083E0,1.395163196E-1,2.853909016E0,-6.355397165E-1,2.927144035E0
9.441287083E0,2.856551957E-1,2.944795797E0,-3.649549882E-1,2.981042321E0
9.451253083E0,9.446071637E-1,2.892291309E0,-4.223689449E-1,3.071811718E0
9.461218083E0,1.450973700E0,2.438404702E0,-4.721192484E-1,2.876462889E0
9.471183083E0,1.500755140E0,2.022089379E0,-3.423028748E-1,2.541315153E0
9.481149083E0,1.742284908E0,2.172627116E0,-5.828035323E-1,2.845263651E0
9.491114083E0,2.102250028E0,2.372846305E0,-9.828842068E-1,3.319023370E0
9.501080083E0,2.577966338E0,2.386928154E0,-1.297663214E0,3.745299223E0
9.511045083E0,3.114716761E0,2.210065084E0,-1.388809466E0,4.063820851E0
9.521011083E0,3.743033412E0,1.792839350E0,-1.313512823E0,4.353146907E0
9.530976083E0,4.674238465E0,1.932728721E0,-1.404673254E0,5.249481164E0
9.540941083E0,5.468919511E0,1.956119923E0,-1.536744022E0,6.008083551E0
9.550907083E0,6.108607827E0,1.782948200E0,-1.547556839E0,6.548963737E0
9.560872083E0,6.598634904E0,1.552170292E0,-1.503400859E0,6.943445064E0
9.570838083E0,7.058475730E0,1.178613904E0,-1.449153024E0,7.301455667E0
9.580803083E0,7.557046759E0,8.624993920E-1,-1.559689958E0,7.764373361E0
9.590769083E0,8.248299916E0,7.010478276E-1,-1.774551598E0,8.466106126E0
9.600734083E0,9.084176935E0,4.683081794E-1,-1.917705470E0,9.296191554E0
9.610699083E0,9.894213939E0,1.477486145E-1,-1.961798300E0,1.008791117E1
9.620665083E0,1.050018896E1,-6.434451520E-2,-1.998541911E0,1.068888573E1
9.630630083E0,1.072025711E1,-1.475153106E-1,-1.934264639E0,1.089435877E1
9.640596083E0,1.028902496E1,-1.953320861E-2,-1.639319387E0,1.041881875E1
9.650561083E0,9.275040579E0,3.808724248E-1,-1.141140268E0,9.352734501E0
9.660527083E0,8.538536990E0,9.054489452E-1,-6.303870039E-1,8.609520282E0
9.670492083E0,8.414848498E0,1.290244852E0,-3.899356091E-1,8.522115747E0
9.680457083E0,8.822919831E0,1.344340367E0,-4.635345125E-1,8.936779600E0
9.690423083E0,9.457516392E0,9.844506758E-1,-5.990013430E-1,9.527463568E0
9.700388083E0,9.998313088E0,4.590040898E-1,-6.233606972E-1,1.002823653E1
9.710354083E0,1.013574371E1,-1.764835864E-1,-4.575696217E-1,1.014760153E1
9.720319083E0,9.870367824E0,-8.275266105E-1,-1.919737378E-1,9.906856978E0
9.730285083E0,9.179440357E0,-1.298578888E0,1.966079485E-1,9.272922252E0
9.740250083E0,8.132003474E0,-1.480575814E0,5.236231318E-1,8.282256120E0
9.750215083E0,7.089999239E0,-1.393686190E0,7.730967803E-1,7.266920190E0
9.760181083E0,6.210968599E0,-1.156079319E0,1.183315942E0,6.427510167E0
9.770146083E0,5.508603394E0,-8.116677922E-1,1.672746603E0,5.813914099E0
9.780112083E0,4.781129660E0,-4.406765771E-1,2.162860219E0,5.266057444E0
9.790077083E0,4.047319298E0,-1.136844903E-1,2.459476021E0,4.737376907E0
9.800043083E0,3.314024076E0,1.533145791E-1,2.699153390E0,4.276878530E0
9.810008083E0,2.540435691E0,2.975759143E-1,2.927104754E0,3.887197855E0
9.819973083E0,1.768976862E0,2.441925895E-1,3.088295240E0,3.567418766E0
9.829939083E0,1.042525806E0,4.401316166E-2,3.079647500E0,3.251618972E0
9.839904083E0,3.701819605E-1,-3.097954255E-1,2.873043737E0,2.913312239E0
9.849870083E0,-3.705251920E-1,-7.894571435E-1,2.720542505E0,2.856900947E0
9.859835083E0,-1.201835536E0,-1.174424958E0,2.655812366E0,3.142772973E0
9.869801083E0,-2.324905568E0,-1.438902708E0,2.651273757E0,3.808527201E0
9.879766083E0,-2.833914462E0,-1.424441959E0,2.632357722E0,4.121821594E0
9.889731083E0,-2.804578396E0,-1.364022680E0,2.195236252E0,3.813827481E0
9.899697083E0,-3.354402024E0,-1.610715539E0,1.943656875E0,4.198120953E0
9.909662083E0,-3.920202584E0,-1.498108106E0,1.860568525E0,4.590646080E0
9.919628083E0,-4.324200162E0,-1.571604098E0,2.414218279E0,5.195873015E0
9.929593083E0,-4.530839009E0,-2.219533480E0,2.636684077E0,5.692708838E0
9.939559083E0,-4.903486741E0,-2.699187304E0,2.467679664E0,6.117126551E0
9.949524083E0,-5.329359337E0,-3.129038054E0,2.205850995E0,6.561915018E0
9.959489083E0,-5.591266651E0,-3.272422891E0,1.826492122E0,6.731053990E0
9.969455083E0,-5.469731104E0,-3.065402513E0,1.386193275E0,6.421540525E0
9.979420083E0,-4.975478244E0,-2.808658291E0,1.108599343E0,5.820046190E0
9.989386083E0,-4.253630117E0,-2.810949815E0,1.079243982E0,5.211484971E0
9.999351083E0,-3.539041307E0,-3.019722311E0,1.107031120E0,4.782159983E0
1.000931708E1,-2.849232413E0,-3.317567782E0,1.101077777E0,4.509628987E0
1.001928208E1,-2.387486563E0,-3.693133273E0,9.842764288E-1,4.506453767E0
1.002924708E1,-2.203809732E0,-4.180122430E0,9.137818122E-1,4.813023796E0
1.003921308E1,-2.117855077E0,-4.587714291E0,7.974704602E-1,5.115505027E0
1.004917808E1,-2.062148654E0,-4.873315400E0,6.963794106E-1,5.337284360E0
1.005914408E1,-2.179450817E0,-5.343495566E0,6.700640166E-1,5.809641685E0
1.006910908E1,-2.441265160E0,-5.951435255E0,7.572822547E-1,6.477100708E0
1.007907508E1,-2.649679222E0,-6.316697953E0,8.031519073E-1,6.896848990E0
1.008904008E1,-2.919752172E0,-6.494046342E0,8.909645149E-1,7.175751418E0
1.009900508E1,-3.191736578E0,-6.645496244E0,9.979135975E-1,7.439464649E0
1.010897108E1,-3.357592850E0,-6.906652776E0,1.130212699E0,7.762258889E0
1.011893608E1,-3.419395580E0,-7.279637892E0,1.233570129E0,8.136773884E0
1.012890208E1,-3.578886573E0,-7.472158052E0,1.263543249E0,8.380818373E0
1.013886654E1,-3.952349406E0,-7.408076661E0,1.286248280E0,8.494415830E0
1.014883154E1,-4.281224881E0,-7.194704745E0,1.260013870E0,8.466421783E0
1.015879754E1,-4.299355928E0,-7.152636952E0,1.102064203E0,8.417792007E0
1.016876254E1,-4.212151723E0,-7.130852566E0,9.422741246E-1,8.335416065E0
1.017872854E1,-4.233379455E0,-6.682671672E0,7.591311443E-1,7.947067533E0
1.018869354E1,-4.282506006E0,-6.028510913E0,5.963256571E-1,7.418787354E0
1.019865954E1,-4.121515203E0,-5.510014912E0,4.060432264E-1,6.892896561E0
1.020862454E1,-3.644291189E0,-5.207862382E0,2.075551057E-1,6.359698733E0
1.021858954E1,-3.049824654E0,-5.106083407E0,7.488967627E-2,5.948035528E0
1.022855554E1,-2.448277141E0,-5.040759484E0,3.577648133E-2,5.603980468E0
1.023852054E1,-1.818306897E0,-4.992225255E0,-7.909820974E-3,5.313060844E0
1.024848654E1,-1.242045084E0,-4.866814758E0,-1.158567309E-2,5.022817547E0
1.025845154E1,-6.892458075E-1,-4.803819488E0,-5.164553225E-3,4.853016395E0
1.026841754E1,-2.111622530E-1,-4.778729086E0,3.157145619E-2,4.783496412E0
1.027838254E1,4.640993536E-2,-4.583604868E0,1.812569609E-1,4.587422103E0
1.028834754E1,7.640088916E-2,-4.132448326E0,5.292697880E-1,4.166904459E0
1.029831354E1,-2.405515283E-1,-3.668583446E0,8.750700286E-1,3.779168836E0
1.030827854E1,-7.413322198E-1,-3.122975661E0,1.049206835E0,3.376889903E0
1.031824454E1,-1.309983882E0,-2.532905062E0,1.081951243E0,3.049964642E0
1.032820954E1,-1.777100399E0,-1.988604130E0,9.855647166E-1,2.843232320E0
1.033817554E1,-2.138716189E0,-1.440226518E0,7.426267934E-1,2.683254351E0
1.034814054E1,-2.307179734E0,-9.170492363E-1,4.384522963E-1,2.521169975E0
1.035810554E1,-2.357610800E0,-4.695787793E-1,1.881210074E-1,2.411269878E0
1.036807154E1,-2.317429903E0,-6.469534814E-2,-7.022315964E-2,2.319396071E0
1.037803654E1,-2.255019647E0,3.628875589E-1,-2.477865806E-1,2.297433172E0
1.038800254E1,-2.130407295E0,8.064017898E-1,-3.122848776E-1,2.299226160E0
1.039796754E1,-1.962175884E0,1.157768580E0,-3.011909553E-1,2.298103191E0
1.040793254E1,-1.735381100E0,1.410751873E0,-2.647595859E-1,2.252080382E0
1.041789854E1,-1.509829434E0,1.565086207E0,-1.848810652E-1,2.182489579E0
1.042786354E1,-1.258843549E0,1.730170062E0,2.000098586E-2,2.139760632E0
1.043782954E1,-8.482234150E-1,1.865051293E0,2.970560968E-1,2.070299885E0
1.044779454E1,-4.588462150E-1,1.901096454E0,4.119399972E-1,1.998600045E0
1.045776054E1,-1.392034936E-1,1.903476856E0,1.771997242E-1,1.916768503E0
1.046772554E1,1.793931609E-1,1.992377923E0,-3.322132118E-1,2.027835622E0
1.047769054E1,6.449069560E-1,2.032293355E0,-9.772429593E-1,2.345447733E0
1.048765654E1,9.727375335E-1,1.733161497E0,-1.234491212E0,2.339665710E0
1.049762154E1,1.127520348E0,1.395111741E0,-1.286106777E0,2.207194950E0
1.050758754E1,1.287293177E0,1.161905485E0,-1.280263216E0,2.155509680E0
1.051755254E1,1.558532647E0,1.017940603E0,-1.242933130E0,2.238327467E0
1.052751754E1,1.926103826E0,1.088894227E0,-1.282627830E0,2.557479372E0
1.053748354E1,2.373726895E0,1.414576537E0,-1.468922460E0,3.129431154E0
1.054744854E1,2.793492075E0,1.695805975E0,-1.482330125E0,3.588406120E0
1.055741454E1,3.331418081E0,1.739591680E0,-1.460799361E0,4.032178124E0
1.056737954E1,4.002082607E0,1.552634561E0,-1.406642596E0,4.517298160E0
1.057734554E1,4.652617800E0,1.295092778E0,-1.353864166E0,5.015681995E0
1.058731054E1,5.363348032E0,1.093413540E0,-1.275064895E0,5.620217591E0
1.059727554E1,6.008866607E0,8.296918344E-1,-1.162899950E0,6.176342181E0
1.060724154E1,6.717503536E0,6.231418651E-1,-9.729357541E-1,6.816139928E0
1.061720654E1,7.500320581E0,5.190813071E-1,-6.691340169E-1,7.547979502E0
1.062717254E1,8.188294619E0,6.741582370E-1,-2.588625227E-1,8.220077123E0
1.063713754E1,8.861200967E0,9.766668624E-1,3.153783470E-2,8.914917576E0
1.064710354E1,9.604551646E0,1.084572549E0,1.208210170E-1,9.666349241E0
1.065706854E1,1.027225514E1,1.176748057E0,2.580656934E-1,1.034265728E1
1.066703354E1,1.071051916E1,1.276302751E0,5.101721969E-1,1.079835381E1
1.067699954E1,1.085612535E1,1.459970811E0,7.630796228E-1,1.098040359E1
1.068696454E1,1.075174203E1,1.775514634E0,9.509744892E-1,1.093877330E1
1.069693054E1,1.060597562E1,2.318722138E0,1.061571065E0,1.090825945E1
1.070689554E1,1.045427896E1,3.035945118E0,1.003840920E0,1.093236516E1
1.071686054E1,1.032411176E1,3.655658176E0,6.471351837E-1,1.097132190E1
1.072682654E1,1.040065883E1,3.982602900E0,5.848355860E-2,1.113724608E1
1.073679154E1,1.051650270E1,3.812002198E0,-4.937040988E-1,1.119696090E1
1.074675754E1,1.031927377E1,2.991049027E0,-8.823097587E-1,1.078017885E1
1.075672254E1,9.839576386E0,1.813591118E0,-9.524871638E-1,1.005055262E1
1.076668854E1,9.333182952E0,6.888797718E-1,-8.427919364E-1,9.396443881E0
1.077665354E1,8.913263991E0,-2.834186357E-1,-7.495510662E-1,8.949213814E0
1.078661854E1,8.537044196E0,-8.768817884E-1,-3.831882146E-1,8.590510955E0
1.079658454E1,8.031597426E0,-9.843612134E-1,3.024139005E-1,8.097343909E0
1.080654954E1,7.410308543E0,-9.278151298E-1,7.304701397E-1,7.503805718E0
1.081651554E1,6.735667911E0,-8.326458478E-1,9.400135911E-1,6.851725831E0
1.082648054E1,6.169337593E0,-6.269331998E-1,1.129720071E0,6.303176899E0
1.083644554E1,5.738171512E0,-2.469004351E-1,1.596627550E0,5.961274332E0
1.084641154E1,5.098909459E0,-8.734863102E-2,2.046982438E0,5.495147364E0
1.085637654E1,4.227953823E0,-1.573590982E-1,2.185528705E0,4.762025949E0
1.086634254E1,3.257765091E0,-2.775942242E-1,2.082410426E0,3.876406212E0
1.087630754E1,2.211433917E0,-6.462225795E-1,1.801903118E0,2.924875799E0
1.088627354E1,1.159062569E0,-1.128115010E0,1.441081088E0,2.166283504E0
1.089623854E1,-1.626683700E-1,-1.605965846E0,1.167548925E0,1.992174136E0
1.090620354E1,-1.449241755E0,-1.840828618E0,9.118630484E-1,2.514049698E0
1.091616954E1,-2.283486816E0,-1.746193771E0,8.077115661E-1,2.985950887E0
1.092613454E1,-2.575094478E0,-1.432656713E0,8.933186039E-1,3.079226356E0
1.093610054E1,-2.381346987E0,-1.084126992E0,1.237920165E0,2.894579614E0
1.094606554E1,-1.929085906E0,-8.712784016E-1,1.608855247E0,2.658742878E0
1.095603054E1,-1.531417354E0,-8.402062976E-1,2.102879481E0,2.733731488E0
1.096599654E1,-1.337772775E0,-9.401913464E-1,2.535145715E0,3.016713371E0
1.097596154E1,-1.270782394E0,-1.092942839E0,2.839771325E0,3.297531368E0
1.098592754E1,-1.410192295E0,-1.448274626E0,2.864533114E0,3.505950893E0
1.099589254E1,-1.719481936E0,-1.971092303E0,2.706776405E0,3.764101686E0
1.100585854E1,-2.059524423E0,-2.484050406E0,2.448914780E0,4.050843229E0
1.101582354E1,-2.205208971E0,-2.871193093E0,2.146038949E0,4.208584032E0
1.102578854E1,-2.122798313E0,-3.223567943E0,1.935408500E0,4.317808359E0
1.103575454E1,-2.075390258E0,-3.905483973E0,1.842916366E0,4.791282764E0
1.104571954E1,-2.347340750E0,-4.777672201E0,1.618352880E0,5.563742113E0
1.105568554E1,-2.864008911E0,-5.314285800E0,1.236919414E0,6.162316954E0
1.106565054E1,-3.472876554E0,-5.616282209E0,7.854105780E-1,6.649839636E0
1.107561554E1,-4.122780540E0,-6.017488911E0,3.520324954E-1,7.302836371E0
1.108558154E1,-4.586133204E0,-6.361680583E0,1.087848160E-1,7.843177401E0
1.109554654E1,-4.751989476E0,-6.607129739E0,-5.667413771E-3,8.138525634E0
1.110551254E1,-4.644884858E0,-6.789856982E0,-2.490212202E-2,8.226647756E0
1.111547754E1,-4.503294531E0,-7.065681254E0,1.227058670E-1,8.379652137E0
1.112544254E1,-4.785710369E0,-7.573134788E0,4.559831259E-1,8.970134607E0
1.113540929E1,-5.754213933E0,-8.145986506E0,5.985774198E-1,9.991314682E0
1.114537429E1,-7.005395291E0,-8.226158849E0,5.927448222E-1,1.082111820E1
1.115534029E1,-8.035640191E0,-8.002011684E0,6.476952007E-1,1.135883856E1
1.116530529E1,-8.362670285E0,-7.951654294E0,8.317713967E-1,1.156956801E1
1.117527129E1,-8.140790085E0,-8.114326172E0,1.052121087E0,1.154217099E1
1.118523629E1,-7.581268850E0,-8.125917692E0,8.033100745E-1,1.114232843E1
1.119520129E1,-6.927846594E0,-7.652411923E0,2.136253926E-1,1.032473256E1
1.120516729E1,-6.218323812E0,-6.979873949E0,-3.713914570E-1,9.355432806E0
1.121513229E1,-5.386957920E0,-6.582815262E0,-8.010866708E-1,8.543682593E0
1.122509829E1,-4.718711218E0,-6.298909553E0,-9.775120774E-1,7.930827635E0
1.123506329E1,-4.426129410E0,-5.862058225E0,-9.066315445E-1,7.401103225E0
1.124502829E1,-4.260648530E0,-5.540201163E0,-6.395471057E-1,7.018260135E0
1.125499429E1,-3.966178656E0,-5.671112720E0,-1.823226160E-1,6.922812590E0
1.126495929E1,-3.447607811E0,-5.892208807E0,2.983410224E-1,6.833237272E0
1.127492529E1,-2.885185772E0,-6.208398163E0,5.848826560E-1,6.870996465E0
1.128489029E1,-2.405871379E0,-6.679886059E0,4.846441305E-1,7.116458022E0
1.129485629E1,-1.939928983E0,-6.953702981E0,1.946716431E-1,7.221856178E0
1.130482129E1,-1.454671479E0,-7.017731747E0,-1.075487146E-1,7.167718934E0
1.131478629E1,-1.079229364E0,-6.986449728E0,-3.436285847E-1,7.077661791E0
1.132475229E1,-7.715927303E-1,-6.683820065E0,-5.572077844E-1,6.751243332E0
1.133471729E1,-6.261677992E-1,-5.981641971E0,-6.531348655E-1,6.049686929E0
1.134468329E1,-5.276784682E-1,-4.978403606E0,-4.643709567E-1,5.027781560E0
1.135464829E1,-4.455397063E-1,-3.887414907E0,-1.056384292E-1,3.914289178E0
1.136461329E1,-3.667970073E-1,-2.900180957E0,2.715818247E-1,2.935872326E0
1.137457929E1,-3.713075495E-1,-2.093345304E0,5.571598372E-1,2.197815038E0
1.138454429E1,-4.400994569E-1,-1.424386995E0,6.553857511E-1,1.628525814E0
1.139451029E1,-4.935582107E-1,-8.075753260E-1,5.173005375E-1,1.078599769E0
1.140447529E1,-5.622238183E-1,-2.993166304E-1,2.635223150E-1,6.892967994E-1
1.141444029E1,-5.364352584E-1,1.743914527E-1,-9.397937357E-3,5.641484613E-1
1.142440629E1,-4.028696501E-1,7.566033930E-1,-3.110999393E-1,9.118858599E-1
1.143437129E1,-2.199307376E-1,1.390269077E0,-6.922727649E-1,1.568585100E0
1.144433729E1,-1.109865850E-1,1.840220507E0,-1.182241808E0,2.190074253E0
1.145430229E1,-6.164368629E-2,2.102972744E0,-1.622885203E0,2.657075589E0
1.146426829E1,-8.660544991E-2,2.204109110E0,-1.910068130E0,2.917868697E0
1.147423329E1,-1.065783691E-1,2.234718114E0,-2.018245274E0,3.013077826E0
1.148419829E1,2.076346278E-3,2.277150189E0,-1.922555151E0,2.980207308E0
1.149416429E1,2.953574806E-1,2.259115621E0,-1.541936349E0,2.751073815E0
1.150412929E1,7.380110013E-1,2.199802051E0,-9.087856588E-1,2.491923087E0
1.151409529E1,1.365191538E0,2.193425077E0,-1.562526588E-1,2.588296042E0
1.152406029E1,2.162991489E0,2.292672207E0,5.901735091E-1,3.206740215E0
1.153402529E1,3.038483394E0,2.493113590E0,1.160900348E0,4.098254059E0
1.154399129E1,3.916018024E0,2.913706736E0,1.518850226E0,5.111926263E0
1.155395629E1,4.682544435E0,3.466203711E0,1.588660865E0,6.038595358E0
1.156392229E1,5.232779707E0,3.759798841E0,1.401090226E0,6.594021884E0
1.157388729E1,5.515857450E0,3.719245477E0,1.167081440E0,6.754224560E0
1.158385229E1,5.766145762E0,3.597854356E0,7.915188718E-1,6.842477259E0
1.159381829E1,5.957637396E0,3.238326023E0,4.834283482E-1,6.798080740E0
1.160378329E1,5.947545687E0,2.550299360E0,6.487672877E-1,6.503708597E0
1.161374929E1,5.875329065E0,1.981369370E0,1.135319365E0,6.303512217E0
1.162371429E1,5.942812951E0,1.608755552E0,1.656100750E0,6.375561927E0
1.163367929E1,6.169034708E0,1.387319741E0,2.138867632E0,6.675058055E0
1.164364529E1,6.585012646E0,1.277946403E0,2.588429345E0,7.189958625E0
1.165361029E1,6.991747305E0,1.210937896E0,3.210655536E0,7.788402272E0
1.166357629E1,7.325150864E0,1.484093499E0,3.830754510E0,8.398514679E0
1.167354129E1,7.774878931E0,1.620168148E0,4.279303779E0,9.021426054E0
1.168350629E1,8.393020842E0,1.246745660E0,4.543921862E0,9.625196075E0
1.169347229E1,8.846023350E0,6.919472212E-1,4.761341805E0,1.006982104E1
1.170343729E1,8.984442147E0,3.708549750E-1,5.125723035E0,1.035039954E1
1.171340329E1,8.936491470E0,2.345172018E-1,5.464789038E0,1.047758547E1
1.172336829E1,8.885479192E0,1.712164146E-1,5.648006862E0,1.053000651E1
1.173333429E1,8.947106506E0,3.690663117E-1,5.757644495E0,1.064600371E1
1.174329929E1,9.174640378E0,9.851687139E-1,5.628387115E0,1.080848393E1
1.175326429E1,9.736852502E0,1.638698559E0,5.056115441E0,1.109305787E1
1.176323029E1,1.054935352E1,1.819765193E0,3.992059310E0,1.142527648E1
1.177319529E1,1.127532043E1,1.412831728E0,2.830881219E0,1.171079983E1
1.178316129E1,1.167761822E1,7.951172483E-1,1.858443647E0,1.185127806E1
1.179312629E1,1.175936697E1,1.550892091E-1,1.147263472E0,1.181621673E1
1.180309129E1,1.143894073E1,-3.960482883E-1,6.044518250E-1,1.146174425E1
1.181305729E1,1.077247625E1,-9.522839731E-1,1.406992114E-1,1.081540039E1
1.182302229E1,9.892899485E0,-1.484052569E0,-4.036362201E-2,1.000367440E1
1.183298829E1,8.942658529E0,-1.790044965E0,1.404618144E-1,9.121136555E0
1.184295329E1,8.066115294E0,-1.955860307E0,4.975582910E-1,8.314756144E0
1.185291829E1,7.189139366E0,-2.111038978E0,9.601259664E-1,7.553942828E0
1.186288429E1,6.369837449E0,-2.090864330E0,1.495414001E0,6.868974145E0
1.187284929E1,5.552511891E0,-1.990923720E0,1.913130901E0,6.201147910E0
1.188281529E1,4.808134441E0,-1.847942925E0,2.104791228E0,5.564458282E0
1.189278029E1,4.150167144E0,-1.778918298E0,2.007620152E0,4.941556062E0
1.190274529E1,3.544159960E0,-1.930605597E0,1.684224395E0,4.373204729E0
1.191271129E1,2.899748847E0,-2.230701077E0,1.309186614E0,3.885684015E0
1.192267629E1,2.269480981E0,-2.525749240E0,8.186449823E-1,3.492868843E0
1.193264229E1,1.436913486E0,-2.915857927E0,3.429175633E-1,3.268721504E0
1.194260729E1,3.494325310E-1,-3.332306566E0,-9.145162225E-2,3.351825404E0
1.195257229E1,-7.166405976E-1,-3.642275653E0,-4.450377229E-1,3.738690179E0
1.196253829E1,-1.676476834E0,-3.914936289E0,-5.896265021E-1,4.299413930E0
1.197250329E1,-2.560045499E0,-4.290796481E0,-6.197064798E-1,5.034759529E0
1.198246929E1,-3.238164055E0,-4.539089431E0,-5.254039013E-1,5.600454318E0
1.199243429E1,-3.640944242E0,-4.536319020E0,-2.416567983E-1,5.821774921E0
1.200239929E1,-3.724494522E0,-4.346002968E0,2.435074420E-1,5.728777977E0
1.201236529E1,-3.556649612E0,-4.334854959E0,7.994924274E-1,5.663913145E0
1.202233029E1,-3.431206956E0,-4.618449303E0,1.175417815E0,5.872381304E0
1.203229629E1,-3.438208997E0,-4.996141720E0,1.409119623E0,6.226422030E0
1.204226129E1,-3.673851787E0,-5.524866840E0,1.630016905E0,6.832151613E0
1.205222629E1,-4.086368174E0,-6.114584266E0,1.777660562E0,7.566149792E0
1.206219229E1,-4.596533062E0,-6.573928664E0,1.848048760E0,8.231642514E0
1.207215729E1,-5.016115224E0,-6.955813826E0,1.842962852E0,8.771617297E0
1.208212329E1,-5.340981263E0,-7.246832088E0,1.771655764E0,9.175043341E0
1.209208829E1,-5.511590152E0,-7.392827123E0,1.632687329E0,9.364677612E0
1.210205329E1,-5.570137737E0,-7.589379523E0,1.512565054E0,9.534829259E0
1.211201929E1,-5.595955533E0,-7.842165765E0,1.381311435E0,9.732538389E0
1.212198429E1,-5.621799057E0,-7.949576778E0,1.206531435E0,9.811020013E0
1.213195029E1,-5.629895112E0,-7.985212634E0,1.082424867E0,9.830105969E0
1.214191496E1,-5.720265584E0,-8.136549100E0,9.922119775E-1,9.995466683E0
1.215187996E1,-5.869528043E0,-8.340001799E0,9.718788698E-1,1.024458579E1
1.216184596E1,-6.049425234E0,-8.503591690E0,1.016535810E0,1.048522591E1
1.217181096E1,-6.222523282E0,-8.511890059E0,1.074051362E0,1.059837981E1
1.218177696E1,-6.320699202E0,-8.451060305E0,1.142797076E0,1.061497263E1
1.219174196E1,-6.260712617E0,-8.353935714E0,1.111266551E0,1.049855598E1
1.220170796E1,-5.936374581E0,-8.330809976E0,8.181374440E-1,1.026217749E1
1.221167296E1,-5.680948321E0,-8.285075979E0,3.519599900E-1,1.005184230E1
1.222163796E1,-5.679221054E0,-8.038029948E0,-2.148793280E-1,9.844269924E0
1.223160396E1,-5.760051209E0,-7.657437605E0,-8.323634273E-1,9.618075144E0
1.224156896E1,-5.708708562E0,-7.470225547E0,-1.429093127E0,9.509780772E0
1.225153496E1,-5.481639544E0,-7.519571369E0,-1.830736031E0,9.483876849E0
1.226149996E1,-5.114866510E0,-7.482099488E0,-1.976202185E0,9.276262568E0
1.227146496E1,-4.767105113E0,-7.056196486E0,-1.874046358E0,8.719360628E0
1.228143096E1,-4.413757287E0,-6.508304193E0,-1.558786124E0,8.016800549E0
1.229139596E1,-3.834146188E0,-6.181196916E0,-1.201255492E0,7.372305410E0
1.230136196E1,-3.045139280E0,-6.160183777E0,-1.094617774E0,6.958370892E0
1.231132696E1,-2.183503522E0,-6.348338991E0,-1.228024338E0,6.824744636E0
1.232129196E1,-1.348580768E0,-6.636274016E0,-1.341025581E0,6.903416003E0
1.233125796E1,-4.805428934E-1,-6.778080690E0,-1.407240036E0,6.939281218E0
1.234122296E1,4.333991325E-1,-6.711231812E0,-1.456871494E0,6.881202060E0
1.235118896E1,1.162731112E0,-6.587463799E0,-1.417547800E0,6.837840646E0
1.236115396E1,1.665881680E0,-6.383771363E0,-1.191813700E0,6.704335798E0
1.237111896E1,1.948350143E0,-5.943384808E0,-7.344143790E-1,6.297559507E0
1.238108496E1,1.969450405E0,-5.356281672E0,-2.406199408E-1,5.711951173E0
1.239104996E1,1.838031310E0,-4.686490136E0,1.246097204E-1,5.035581046E0
1.240101596E1,1.606214352E0,-4.000137531E0,5.359288895E-1,4.343759269E0
1.241098096E1,1.351598516E0,-3.330616136E0,9.032360664E-1,3.706164835E0
1.242094596E1,1.151627249E0,-2.601190601E0,1.306188747E0,3.130266268E0
1.243091196E1,1.044626711E0,-1.851618485E0,1.680811668E0,2.710140926E0
1.244087696E1,9.373998857E-1,-1.092831742E0,1.966891664E0,2.437552579E0
1.245084196E1,9.082667184E-1,-2.552257007E-1,2.199031095E0,2.392869898E0
1.246080796E1,1.013817732E0,5.389928305E-1,2.277239066E0,2.550324966E0
1.247077296E1,1.177659053E0,1.190145782E0,1.936452521E0,2.559917224E0
1.248073896E1,1.271092297E0,1.639551668E0,1.190679048E0,2.391970295E0
1.249070396E1,1.161324272E0,1.900393619E0,3.883401963E-1,2.260747239E0
1.250066896E1,6.865379620E-1,2.016424012E0,-2.965576217E-1,2.150638648E0
1.251063496E1,2.527985215E-2,2.237608393E0,-7.567103970E-1,2.362232210E0
1.252059996E1,-5.388753015E-1,2.488697773E0,-8.331870076E-1,2.679217010E0
1.253056596E1,-7.706332022E-1,2.628336884E0,-5.815112977E-1,2.800033160E0
1.254053096E1,-3.331626534E-1,2.662784586E0,-1.666631877E-1,2.688716371E0
1.255049596E1,6.789839441E-1,2.573264299E0,-3.608185217E-2,2.661580404E0
1.256046196E1,1.745471056E0,2.434873568E0,-3.652239601E-1,3.018056832E0
1.257042696E1,2.590848046E0,2.728075765E0,-7.529177468E-1,3.836896677E0
1.258039296E1,3.160873219E0,3.146231791E0,-1.037248110E0,4.578840206E0
1.259035796E1,3.659865248E0,3.439063275E0,-1.229424015E0,5.170420993E0
1.260032296E1,4.435897184E0,3.895557740E0,-1.402598662E0,6.067935146E0
1.261028896E1,5.229570170E0,4.132791558E0,-1.160029113E0,6.765651319E0
1.262025396E1,5.996208555E0,4.171544564E0,-6.928424299E-1,7.337324561E0
1.263021996E1,6.656484332E0,4.010544405E0,-2.965413956E-1,7.776965146E0
1.264018496E1,7.244221891E0,3.847234595E0,1.941509485E-2,8.202459496E0
1.265014996E1,7.717511898E0,3.726945675E0,3.523557003E-1,8.577544433E0
1.266011596E1,8.218653948E0,3.566060706E0,8.355497213E-1,8.997844464E0
1.267008096E1,8.742484363E0,3.436527337E0,1.383114424E0,9.494933306E0
1.268004696E1,9.283750007E0,3.376242544E0,1.847639455E0,1.004991540E1
1.269001196E1,9.797716754E0,3.401293185E0,2.314040126E0,1.062632724E1
1.269997696E1,1.023171990E1,3.571312675E0,2.779899638E0,1.118794925E1
1.270994296E1,1.071789367E1,3.740634007E0,2.997875651E0,1.174107516E1
1.271990796E1,1.139761494E1,3.556944897E0,2.894083773E0,1.228548755E1
1.272987396E1,1.219509798E1,2.876835364E0,2.694638170E0,1.281630490E1
1.273983896E1,1.278216661E1,1.921579251E0,2.531694981E0,1.317139817E1
1.274980396E1,1.283279999E1,9.086093652E-1,2.536451983E0,1.311258614E1
1.275976996E1,1.215142161E1,1.402372813E-1,2.788960483E0,1.246816002E1
1.276973496E1,1.086958564E1,-1.003820747E-1,3.249722246E0,1.134542477E1
1.277970096E1,9.654528383E0,-1.051247513E-1,3.736056222E0,1.035273324E1
1.278966596E1,8.741309073E0,6.094728291E-2,3.837523832E0,9.546768461E0
1.279963096E1,8.002751942E0,2.649519593E-1,3.542115481E0,8.755616498E0
1.280959696E1,7.628670473E0,1.899315977E-1,2.970834033E0,8.188928016E0
1.281956196E1,7.833791383E0,-1.910940242E-1,2.327916154E0,8.174594667E0
1.282952696E1,8.219854381E0,-8.705697191E-1,1.913997166E0,8.484531975E0
1.283949296E1,8.294029820E0,-1.573505028E0,1.593912395E0,8.591123643E0
1.284945796E1,7.938001045E0,-2.190462878E0,1.176248120E0,8.318265916E0
1.285942396E1,7.187807955E0,-2.791887015E0,6.840537724E-1,7.741262549E0
1.286938896E1,6.098551201E0,-3.265906754E0,2.595160952E-1,6.922847844E0
1.287935396E1,5.040566525E0,-3.544680946E0,-1.406547725E-3,6.162148642E0
1.288931996E1,4.125906461E0,-3.662692376E0,-9.770141870E-2,5.517967483E0
1.289928496E1,3.264519795E0,-3.581655230E0,-1.136554004E-1,4.847500513E0
1.290925096E1,2.562489050E0,-3.235505911E0,-2.666564226E-2,4.127415618E0
1.291921596E1,2.052648098E0,-2.668312544E0,1.542567118E-1,3.370022430E0
1.292918096E1,1.728663819E0,-1.837892146E0,3.586147061E-1,2.548476142E0
1.293914696E1,1.401964093E0,-1.034968865E0,7.586648288E-1,1.900588380E0
1.294911196E1,8.690254694E-1,-5.178873056E-1,1.164016330E0,1.542188881E0
1.295907796E1,4.642923117E-2,-4.883056569E-1,1.507421551E0,1.585218540E0
1.296904296E1,-1.034679428E0,-7.120838624E-1,1.792748133E0,2.188965695E0
1.297900796E1,-2.080691344E0,-1.167741591E0,1.829131848E0,3.006429811E0
1.298897396E1,-2.771187286E0,-1.509050585E0,1.736056161E0,3.601472427E0
1.299893896E1,-3.140005676E0,-1.594769012E0,1.884293603E0,3.994181547E0
1.300890496E1,-2.767760818E0,-1.265613456E0,2.210265643E0,3.761323115E0
1.301886996E1,-2.053737434E0,-1.141295219E0,2.625214179E0,3.523086958E0
1.302883496E1,-1.406794478E0,-1.219521024E0,3.033373220E0,3.559164976E0
1.303880096E1,-8.968096840E-1,-1.322808580E0,3.288213589E0,3.656014054E0
1.304876596E1,-7.981636477E-1,-1.907966348E0,3.237465605E0,3.841690297E0
1.305873196E1,-1.455896471E0,-3.185482688E0,2.892023506E0,4.542106830E0
1.306869696E1,-2.432393180E0,-4.224860938E0,2.431686544E0,5.447851501E0
1.307866196E1,-3.127117828E0,-4.790110983E0,2.053558802E0,6.077921758E0
1.308862796E1,-3.410544650E0,-5.051852236E0,1.858978375E0,6.372505506E0
1.309859296E1,-3.346639845E0,-5.211950170E0,1.666551478E0,6.414188699E0
1.310855796E1,-3.082721674E0,-5.399241166E0,1.528464218E0,6.402435548E0
1.311852396E1,-2.761454596E0,-5.421291600E0,1.503166824E0,6.267020393E0
1.312848896E1,-2.741355962E0,-5.509426682E0,1.552840383E0,6.346662755E0
1.313845554E1,-3.398540901E0,-6.037477033E0,1.505521206E0,7.089979075E0
1.314842054E1,-4.371500629E0,-6.614503078E0,1.396370062E0,8.050560109E0
1.315838554E1,-5.223142326E0,-7.039011519E0,1.293812530E0,8.860183394E0
1.316835154E1,-5.796330843E0,-7.206220837E0,1.363127179E0,9.348004370E0
1.317831654E1,-6.190627890E0,-7.257497410E0,1.598645132E0,9.672166695E0
1.318828254E1,-6.417333797E0,-7.212176811E0,1.855789304E0,9.830647046E0
1.319824754E1,-6.463174798E0,-7.089291726E0,2.132945864E0,9.827519713E0
1.320821254E1,-6.357985142E0,-6.930039300E0,2.332232130E0,9.689619522E0
1.321817854E1,-6.198284234E0,-6.866799324E0,2.390911570E0,9.554481594E0
1.322814354E1,-5.952618147E0,-6.698177903E0,2.392442663E0,9.274860210E0
1.323810954E1,-5.705714203E0,-6.339340711E0,2.323336760E0,8.839700725E0
1.324807454E1,-5.402666464E0,-6.129981154E0,2.224962035E0,8.468525842E0
1.325803954E1,-5.052010111E0,-6.135393337E0,2.012081577E0,8.198434597E0
1.326800554E1,-4.931207221E0,-6.319972394E0,1.572909489E0,8.169020747E0
1.327797054E1,-5.125900791E0,-6.620985886E0,7.803147295E-1,8.409590007E0
1.328793554E1,-5.311909491E0,-6.797833754E0,-4.064721197E-2,8.627199916E0
1.329790154E1,-5.318461297E0,-6.889783559E0,-5.731788692E-1,8.722596062E0
1.330786654E1,-5.143800287E0,-6.906201956E0,-7.481673226E-1,8.643729588E0
1.331783254E1,-4.846301556E0,-6.827486154E0,-6.083633199E-1,8.394719286E0
1.332779754E1,-4.348818694E0,-6.503491935E0,-4.129116583E-1,7.834419405E0
1.333776254E1,-3.538915592E0,-6.149319066E0,-1.844498330E-1,7.097328390E0
1.334772854E1,-2.548326509E0,-6.045547360E0,8.158824652E-2,6.561194062E0
1.335769354E1,-1.552649764E0,-6.116575828E0,2.557902494E-1,6.315746179E0
1.336765954E1,-7.544369996E-1,-6.214083411E0,2.967058486E-1,6.266740954E0
1.337762454E1,-1.467966878E-1,-6.219487993E0,2.479046944E-1,6.226157474E0
1.338758954E1,3.794743556E-1,-6.071342352E0,2.641447511E-1,6.088922006E0
1.339755554E1,8.211186469E-1,-6.068024642E0,3.861738029E-1,6.135494201E0
1.340752054E1,1.155567103E0,-5.834007377E0,5.784510112E-1,5.975414879E0
1.341748554E1,1.289739652E0,-5.096122676E0,7.476659238E-1,5.309698582E0
1.342745154E1,1.289056113E0,-4.077922456E0,8.967643681E-1,4.369817336E0
1.343741654E1,1.252898685E0,-3.043624266E0,1.014684581E0,3.444268949E0
1.344738254E1,1.136779999E0,-2.124310403E0,1.045958268E0,2.626593260E0
1.345734754E1,9.657471871E-1,-1.292621745E0,1.041554145E0,1.920513901E0
1.346731254E1,8.121098417E-1,-5.038107187E-1,9.859377690E-1,1.373106303E0
1.347727854E1,7.219767666E-1,2.267304647E-1,8.541320264E-1,1.141139200E0
1.348724354E1,6.361168367E-1,8.387205201E-1,6.460508175E-1,1.235102587E0
1.349720954E1,5.815845340E-1,1.348861434E0,3.506307717E-1,1.510168758E0
1.350717454E1,4.058733648E-1,1.657887366E0,-4.518128917E-2,1.707444013E0
1.351713954E1,1.487707078E-2,1.773131309E0,-5.378701651E-1,1.852976061E0
1.352710554E1,-3.097229201E-1,2.107324827E0,-1.093450377E0,2.394238906E0
1.353707054E1,-3.865237588E-1,2.487919509E0,-1.559531937E0,2.961635352E0
1.354703654E1,-2.367847520E-1,2.738751027E0,-1.988541126E0,3.392804152E0
1.355700154E1,-1.200082541E-2,2.820259459E0,-2.420933222E0,3.716843432E0
1.356696654E1,4.498906195E-2,2.773115113E0,-2.733751073E0,3.894301783E0
1.357693254E1,2.114177763E-2,2.620525004E0,-2.914615978E0,3.919513308E0
1.358689754E1,1.463546383E-1,2.638547877E0,-2.775244085E0,3.832144871E0
1.359686254E1,6.230734527E-1,2.573392353E0,-2.509303361E0,3.647899682E0
1.360682854E1,1.331395801E0,2.407506260E0,-2.026231108E0,3.416769480E0
1.361679354E1,2.054431499E0,2.196662681E0,-1.455274912E0,3.341233423E0
1.362675954E1,2.687305470E0,1.897913230E0,-9.358258152E-1,3.420446648E0
1.363672454E1,2.986402829E0,1.542225932E0,-3.962459242E-1,3.384386727E0
1.364668954E1,2.965520083E0,1.245172175E0,2.030340385E-1,3.222729577E0
1.365665554E1,2.887581961E0,9.365491158E-1,7.328350461E-1,3.122867438E0
1.366662054E1,2.906360002E0,7.771376449E-1,1.022543532E0,3.177493769E0
1.367658554E1,3.197570930E0,1.060073885E0,1.140228248E0,3.556450049E0
1.368655154E1,3.762006457E0,1.192858306E0,1.154860321E0,4.112092640E0
1.369651654E1,4.559194789E0,1.142841808E0,1.159120456E0,4.841064424E0
1.370648254E1,5.530939758E0,9.073791111E-1,1.085380050E0,5.709000027E0
1.371644754E1,6.518357896E0,7.263113075E-1,1.032482629E0,6.639468213E0
1.372641254E1,7.496709341E0,7.874825388E-1,9.212744343E-1,7.594045448E0
1.373637854E1,8.336350797E0,8.608212411E-1,7.895834434E-1,8.417790675E0
1.374634354E1,9.089233607E0,1.081608596E0,5.949332888E-1,9.172676291E0
1.375630954E1,9.650356979E0,1.583901377E0,3.675238162E-1,9.786378654E0
1.376627454E1,1.003791862E1,2.272396402E0,9.542685181E-2,1.029236134E1
1.377623954E1,1.051443512E1,2.701454562E0,-1.075044219E-1,1.085646166E1
1.378620554E1,1.105299643E1,2.571210757E0,-1.349300560E-1,1.134892333E1
1.379617054E1,1.142276733E1,2.297560480E0,-5.842508644E-2,1.165168705E1
1.380613554E1,1.140473334E1,2.177827629E0,4.377342582E-2,1.161089109E1
1.381610154E1,1.093407225E1,2.152692788E0,7.604011595E-3,1.114397056E1
1.382606654E1,1.032052157E1,2.245236086E0,5.094883651E-2,1.056204745E1
1.383603254E1,9.723029684E0,2.471132153E0,3.284664622E-1,1.003751416E1
1.384599754E1,9.234412955E0,2.838125042E0,5.642495862E-1,9.677174896E0
1.385596254E1,9.053482561E0,3.119083754E0,5.573934335E-1,9.591919380E0
1.386592854E1,9.109158579E0,3.081966798E0,3.300835097E-1,9.622070697E0
1.387589354E1,9.259385244E0,2.531479511E0,7.653391331E-2,9.599503167E0
1.388585854E1,9.435407485E0,1.693988661E0,-3.944268554E-2,9.586347986E0
1.389582454E1,9.615606977E0,8.711392379E-1,-5.014718324E-2,9.655117599E0
1.390578954E1,9.500733747E0,-6.009066582E-2,4.878624380E-2,9.501049033E0
1.391575554E1,9.021659675E0,-8.993181396E-1,2.752597234E-1,9.070550387E0
1.392572054E1,8.276518579E0,-1.618281836E0,5.400295419E-1,8.450516421E0
1.393568554E1,7.450442662E0,-2.237963319E0,8.052104196E-1,7.820865649E0
1.394565154E1,6.757855171E0,-2.570555869E0,1.015136279E0,7.301155090E0
1.395561654E1,6.266089717E0,-2.657260721E0,1.332702362E0,6.935489201E0
1.396558154E1,5.795516326E0,-2.496550584E0,1.782552928E0,6.557306554E0
1.397554754E1,5.314757085E0,-2.060237199E0,2.248895858E0,6.127703711E0
1.398551254E1,4.816195412E0,-1.610606196E0,2.641213915E0,5.724141989E0
1.399547854E1,4.314286793E0,-1.352245803E0,2.835438538E0,5.336792196E0
1.400544354E1,3.751851890E0,-1.349990532E0,2.895308180E0,4.927644112E0
1.401540854E1,3.156726959E0,-1.570709474E0,2.900121023E0,4.565386653E0
1.402537454E1,2.490297571E0,-1.907916062E0,2.815234362E0,4.215123985E0
1.403533954E1,1.749693330E0,-2.145247529E0,2.714661376E0,3.877228403E0
1.404530454E1,1.066767778E0,-2.384981031E0,2.610110821E0,3.693075481E0
1.405527054E1,4.206580496E-1,-2.727606234E0,2.512366717E0,3.732127474E0
1.406523554E1,-2.509157181E-1,-3.027698790E0,2.379893954E0,3.859250431E0
1.407520154E1,-9.402258450E-1,-3.329342612E0,2.160823926E0,4.078934531E0
1.408516654E1,-1.603056856E0,-3.796181386E0,1.787872140E0,4.491911752E0
1.409513154E1,-2.217528470E0,-3.589789876E0,1.689462039E0,4.545140905E0
1.410509754E1,-2.603685608E0,-3.642607483E0,1.904112448E0,4.865533088E0
1.411506254E1,-2.808665015E0,-4.102267630E0,1.721902391E0,5.261382587E0
1.412502754E1,-3.053173354E0,-4.283719596E0,1.494546274E0,5.468618626E0
1.413499354E1,-3.444261450E0,-4.539342907E0,1.408829016E0,5.869699325E0
1.414495842E1,-3.884079071E0,-4.832132876E0,1.377185347E0,6.350765138E0
1.415492442E1,-4.214935582E0,-5.037909551E0,1.209309447E0,6.678970276E0
1.416488942E1,-4.489521414E0,-5.276674755E0,9.484467378E-1,6.992756982E0
1.417485442E1,-4.644942745E0,-5.573500471E0,6.737451312E-1,7.286517214E0
1.418482042E1,-4.746610622E0,-5.808156252E0,5.182878399E-1,7.518883809E0
1.419478542E1,-4.795761148E0,-5.945534829E0,4.941671982E-1,7.654600618E0
1.420475042E1,-4.737159183E0,-6.102415041E0,6.032911527E-1,7.748813243E0
1.421471642E1,-4.700863761E0,-6.319703422E0,7.416997173E-1,7.911187642E0
1.422468142E1,-4.780036231E0,-6.721673770E0,9.406670174E-1,8.301475717E0
1.423464742E1,-4.837740063E0,-7.276348833E0,1.179116472E0,8.816989107E0
1.424461242E1,-4.928990541E0,-7.907515417E0,1.459544257E0,9.431543737E0
1.425457742E1,-5.101927791E0,-8.445903645E0,1.720397902E0,1.001612323E1
1.426454342E1,-5.368671337E0,-8.745848851E0,1.911754174E0,1.043874073E1
1.427450842E1,-5.619223943E0,-8.763372957E0,2.093387988E0,1.061859956E1
1.428447342E1,-5.836132840E0,-8.555215003E0,2.291409209E0,1.060672930E1
1.429443942E1,-5.910684255E0,-8.387478851E0,2.404022197E0,1.053875289E1
1.430440442E1,-6.002920573E0,-8.252654337E0,2.508260218E0,1.050869775E1
1.431437042E1,-6.239540434E0,-7.964132836E0,2.389272888E0,1.039557125E1
1.432433542E1,-6.565552527E0,-7.654335072E0,1.922370087E0,1.026600371E1
1.433430042E1,-6.854935323E0,-7.563031969E0,1.202166781E0,1.027787896E1
1.434426642E1,-6.996686448E0,-7.667303027E0,3.948580876E-1,1.038735144E1
1.435423142E1,-7.155023786E0,-7.735333042E0,-1.442990497E-1,1.053805318E1
1.436419642E1,-7.268084378E0,-7.539795719E0,-3.438724136E-1,1.047815911E1
1.437416242E1,-7.105474480E0,-7.050277934E0,-3.049241102E-1,1.001434797E1
1.438412742E1,-6.476095975E0,-6.409479232E0,-1.917956901E-1,9.113617761E0
1.439409342E1,-5.390717679E0,-5.927122532E0,-5.217704415E-2,8.012074703E0
1.440405842E1,-4.103970632E0,-5.807771505E0,1.061494759E-1,7.112246657E0
1.441402342E1,-2.879517481E0,-5.899268151E0,2.300315103E-1,6.568553885E0
1.442398942E1,-1.898580982E0,-6.172857617E0,3.006015560E-1,6.465225611E0
1.443395442E1,-1.153725815E0,-6.659018515E0,2.276063776E-1,6.762057047E0
1.444392042E1,-6.801674205E-1,-7.129470284E0,1.364535481E-2,7.161854540E0
1.445388542E1,-4.066305792E-1,-7.268905912E0,-2.200269243E-1,7.283594815E0
1.446385042E1,-1.634542358E-1,-7.067842970E0,-4.596253565E-1,7.084657861E0
1.447381642E1,1.341468215E-1,-6.500965353E0,-6.764482990E-1,6.537440492E0
1.448378142E1,5.712460721E-1,-5.572626312E0,-6.780331868E-1,5.642713451E0
1.449374642E1,1.001706979E0,-4.526604456E0,-5.042226550E-1,4.663454219E0
1.450371242E1,1.302695328E0,-3.404617327E0,-2.875230888E-1,3.656651992E0
1.451367742E1,1.480121486E0,-2.294571383E0,-4.921162874E-2,2.730977706E0
1.452364242E1,1.526071830E0,-1.335544401E0,9.780929983E-2,2.030305577E0
1.453360842E1,1.424843663E0,-5.641019440E-1,1.696803510E-1,1.541811236E0
1.454357342E1,1.191022280E0,-1.724110007E-2,2.516118291E-1,1.217431657E0
1.455353942E1,9.043438214E-1,4.046980745E-1,3.071288028E-1,1.037278352E0
1.456350442E1,6.415272653E-1,7.794432020E-1,2.587103489E-1,1.042122825E0
1.457346942E1,3.784405679E-1,1.140392409E0,1.562764862E-1,1.211665981E0
1.458343542E1,1.059918934E-1,1.385967280E0,1.401665300E-2,1.390084907E0
1.459340042E1,-2.002835083E-1,1.478950288E0,-2.019558120E-1,1.506052319E0
1.460336542E1,-4.226080960E-1,1.516880592E0,-5.060227203E-1,1.653959892E0
1.461333142E1,-5.108595371E-1,1.501365589E0,-7.857804143E-1,1.769894618E0
1.462329642E1,-4.482352728E-1,1.476617249E0,-1.006566453E0,1.842414010E0
1.463326242E1,-2.684953719E-1,1.421153485E0,-1.077286334E0,1.803416990E0
1.464322742E1,3.117267609E-2,1.303353140E0,-9.333922040E-1,1.603409539E0
1.465319242E1,4.454514134E-1,1.059278664E0,-5.998035809E-1,1.296249430E0
1.466315842E1,9.318596488E-1,7.694298452E-1,-1.855692825E-1,1.222628582E0
1.467312342E1,1.569480389E0,4.876495993E-1,1.129708377E-1,1.647371614E0
1.468308842E1,2.145615318E0,1.517551267E-1,5.166564667E-1,2.212154745E0
1.469305442E1,2.720399248E0,-1.256046242E-1,9.259943068E-1,2.876423830E0
1.470301942E1,3.393334248E0,-1.085418642E-2,1.186953495E0,3.594953926E0
1.471298442E1,4.083176179E0,2.800336826E-1,1.294811819E0,4.292701273E0
1.472295042E1,4.890115913E0,5.966791213E-1,1.367523116E0,5.112668490E0
1.473291542E1,6.144498621E0,1.306546889E0,1.295759068E0,6.414118774E0
1.474288142E1,7.569629967E0,1.850313386E0,1.006965087E0,7.857285546E0
1.475284642E1,8.740143138E0,2.187553303E0,1.006289734E0,9.065765856E0
1.476281142E1,9.689428074E0,2.416754217E0,8.581388310E-1,1.002307935E1
1.477277742E1,1.037333713E1,2.438121112E0,5.862061733E-1,1.067212235E1
1.478274242E1,1.060164985E1,2.517170790E0,4.204978359E-1,1.090449204E1
1.479270742E1,1.035054702E1,2.726437960E0,4.676971453E-1,1.071382416E1
1.480267342E1,9.939207094E0,2.917418548E0,5.308280709E-1,1.037212356E1
1.481263842E1,9.687657537E0,2.954385231E0,5.457042646E-1,1.014282474E1
1.482260342E1,9.738478028E0,2.846347396E0,5.304421547E-1,1.015977444E1
1.483256942E1,9.928415473E0,2.563308830E0,4.851844132E-1,1.026544640E1
1.484253442E1,1.009034242E1,2.206571372E0,5.030640292E-1,1.034103673E1
1.485250042E1,9.923793833E0,1.876326479E0,6.456384426E-1,1.012023390E1
1.486246542E1,9.542296926E0,1.766571318E0,8.657779258E-1,9.742986003E0
1.487243042E1,9.281235119E0,1.818775844E0,1.043491474E0,9.515153460E0
1.488239642E1,9.099638143E0,1.869979911E0,1.208374185E0,9.368052485E0
1.489236142E1,8.814799218E0,2.127864926E0,1.321221938E0,9.163739510E0
1.490232642E1,8.602721876E0,2.425237357E0,1.208895464E0,9.019425046E0
1.491229242E1,8.630777986E0,2.527166020E0,7.496843827E-1,9.024351689E0
1.492225742E1,8.989785333E0,2.236986249E0,1.887343803E-1,9.265849582E0
1.493222342E1,9.482324374E0,1.635407161E0,-1.871600175E-1,9.624139493E0
1.494218842E1,9.804984258E0,8.257806319E-1,-3.097863623E-1,9.844571984E0
1.495215342E1,9.934744499E0,-1.506652057E-2,-1.145188880E-1,9.935415936E0
1.496211942E1,9.821694431E0,-7.484763479E-1,3.170296007E-1,9.855273011E0
1.497208442E1,9.487454721E0,-1.387865871E0,7.107194147E-1,9.614733009E0
1.498204942E1,8.841581805E0,-1.751200157E0,1.237488933E0,9.097892595E0
1.499201542E1,8.061141068E0,-1.886511744E0,1.854889125E0,8.484193276E0
1.500198042E1,7.320435669E0,-1.940800803E0,2.404881445E0,7.946001568E0
1.501194542E1,6.588365439E0,-1.820438207E0,2.894379642E0,7.422801893E0
1.502191142E1,5.823848425E0,-1.573412057E0,3.259069605E0,6.856702609E0
1.503187642E1,4.998381788E0,-1.257426184E0,3.295568217E0,6.117655677E0
1.504184242E1,3.985563346E0,-1.098095990E0,3.292131224E0,5.284757135E0
1.505180742E1,3.042504525E0,-1.039945430E0,2.987106834E0,4.388750109E0
1.506177242E1,2.163178600E0,-1.119261741E0,2.760022613E0,3.681007107E0
1.507173842E1,1.546058782E0,-1.178050232E0,2.415842343E0,3.100708683E0
1.508170342E1,1.211515017E0,-1.471695063E0,1.935126372E0,2.716315348E0
1.509166842E1,6.720818907E-1,-1.893542436E0,1.627931496E0,2.585992649E0
1.510163442E1,7.084778845E-2,-2.197079587E0,1.286028717E0,2.546772071E0
1.511159942E1,-5.774710178E-1,-2.507259175E0,1.022062598E0,2.768471293E0
1.512156442E1,-1.180708376E0,-2.758153843E0,9.636702561E-1,3.151213298E0
1.513153042E1,-1.716791632E0,-3.091329945E0,9.139069426E-1,3.652248655E0
1.514149467E1,-2.166433745E0,-3.107047845E0,1.050284185E0,3.930684209E0
1.515146067E1,-2.487630072E0,-3.328259123E0,1.416274568E0,4.389925491E0
1.516142567E1,-2.741750064E0,-3.790795223E0,1.768850855E0,5.001615258E0
1.517139067E1,-3.026342236E0,-4.281191260E0,1.765076477E0,5.531983451E0
1.518135667E1,-3.478881059E0,-4.652683581E0,1.864483821E0,6.101342299E0
1.519132167E1,-4.003793210E0,-5.032247107E0,1.917361946E0,6.710450644E0
1.520128667E1,-4.511774747E0,-5.259976276E0,1.941153975E0,7.196633974E0
1.521125267E1,-4.819838812E0,-5.331168466E0,1.957728492E0,7.448818983E0
1.522121767E1,-4.905355511E0,-5.363613496E0,1.998955455E0,7.538347653E0
1.523118267E1,-4.766153187E0,-5.630520179E0,1.920545755E0,7.622825571E0
1.524114867E1,-4.509443462E0,-6.002887829E0,1.739697222E0,7.706898796E0
1.525111367E1,-4.331796280E0,-6.353203290E0,1.547275296E0,7.843577748E0
1.526107967E1,-4.372806312E0,-6.634873023E0,1.407222786E0,8.069897833E0
1.527104467E1,-4.540009782E0,-6.799659255E0,1.264817065E0,8.273259153E0
1.528100967E1,-4.704186149E0,-6.911847442E0,1.219162882E0,8.449222481E0
1.529097567E1,-4.767344264E0,-7.100318406E0,1.216277281E0,8.638369246E0
1.530094067E1,-4.766007591E0,-7.211212020E0,1.193263225E0,8.725840033E0
1.531090567E1,-4.812708718E0,-7.311422186E0,1.169210119E0,8.830974572E0
1.532087167E1,-4.947267183E0,-7.462178024E0,1.188757946E0,9.031760565E0
1.533083667E1,-5.167308433E0,-7.544526116E0,1.200722518E0,9.222943420E0
1.534080167E1,-5.377791240E0,-7.719362542E0,1.228010012E0,9.487739734E0
1.535076767E1,-5.497826976E0,-8.049726133E0,1.267864341E0,9.830141009E0
1.536073267E1,-5.634012136E0,-8.295419118E0,1.279898496E0,1.010911526E1
1.537069867E1,-5.889896818E0,-8.253442542E0,1.151112694E0,1.020466848E1
1.538066367E1,-6.001209093E0,-8.073634229E0,8.688333884E-1,1.009717543E1
1.539062867E1,-5.843298018E0,-7.958442326E0,4.853928664E-1,9.885167789E0
1.540059467E1,-5.627990089E0,-7.661266361E0,9.947780281E-2,9.506796018E0
1.541055967E1,-5.432252791E0,-7.072835323E0,-1.364444849E-1,8.919248118E0
1.542052467E1,-5.185227225E0,-6.567310785E0,-1.997791860E-1,8.369950063E0
1.543049067E1,-4.786341868E0,-6.305878265E0,-2.697104234E-1,7.921231778E0
1.544045567E1,-4.215615613E0,-6.245437936E0,-4.104672298E-1,7.546217155E0
1.545042067E1,-3.538448399E0,-6.212888825E0,-5.458434284E-1,7.170672889E0
1.546038667E1,-2.873086714E0,-6.061754673E0,-6.387156317E-1,6.738505371E0
1.547035167E1,-2.234003584E0,-5.872615373E0,-7.166809434E-1,6.323924012E0
1.548031767E1,-1.555897892E0,-5.754840170E0,-7.693605557E-1,6.010900041E0
1.549028267E1,-8.899316043E-1,-5.610840206E0,-7.133386749E-1,5.725588017E0
1.550024767E1,-3.128330541E-1,-5.362220104E0,-5.503612795E-1,5.399459835E0
1.551021367E1,1.312191206E-1,-4.850022724E0,-3.488729525E-1,4.864324333E0
1.552017867E1,4.295814854E-1,-3.945581254E0,-1.676531214E-1,3.972437445E0
1.553014367E1,5.607321936E-1,-3.087378981E0,-1.147311419E-2,3.137907137E0
1.554010967E1,6.687320209E-1,-2.369601685E0,1.868559623E-1,2.469236686E0
1.555007467E1,7.283812219E-1,-1.734064892E0,3.245030732E-1,1.908617955E0
1.556003967E1,6.170695317E-1,-1.196189464E0,4.428681135E-1,1.416960200E0
1.557000567E1,3.998080480E-1,-7.506737316E-1,4.889830568E-1,9.810514545E-1
1.557997067E1,1.534560817E-1,-3.655170518E-1,5.390704523E-1,6.691400726E-1
1.558993567E1,-2.967812777E-2,-8.165753603E-2,6.438483176E-1,6.496840774E-1
1.559990167E1,-1.965342736E-1,9.642000139E-2,6.497341248E-1,6.856215941E-1
1.560986667E1,-4.800505579E-1,2.055606204E-1,5.180524895E-1,7.355828224E-1
1.561983267E1,-6.945737904E-1,4.213556224E-1,3.889778352E-1,9.007092023E-1
1.562979767E1,-7.193273932E-1,7.148332232E-1,3.316871086E-1,1.066974589E0
1.563976267E1,-5.724634624E-1,9.626715517E-1,3.394133270E-1,1.170321468E0
1.564972867E1,-4.344656646E-1,1.109831352E0,4.741460395E-1,1.282692679E0
1.565969367E1,-2.143361217E-1,1.367661987E0,6.238901626E-1,1.518445988E0
1.566965867E1,1.214647955E-1,1.563023309E0,8.389577709E-1,1.778101713E0
1.567962467E1,4.176174974E-1,1.689174648E0,7.742423961E-1,1.904512182E0
1.568958967E1,6.538397473E-1,1.703755850E0,2.829514432E-1,1.846713819E0
1.569955467E1,7.079644990E-1,1.626083776E0,-2.011661455E-1,1.784889351E0
1.570952067E1,5.452318096E-1,1.435058164E0,-5.410264921E-1,1.627691410E0
1.571948567E1,2.572277874E-1,1.373036163E0,-8.201386535E-1,1.619883283E0
1.572945067E1,2.032831299E-1,1.431749809E0,-8.674087143E-1,1.686306445E0
1.573941667E1,4.566155022E-1,1.498188213E0,-8.039325106E-1,1.760503655E0
1.574938167E1,1.085706909E0,1.677652709E0,-6.509132159E-1,2.101657946E0
1.575934767E1,1.992519425E0,1.910841424E0,-4.814712851E-1,2.802367429E0
1.576931267E1,2.996748893E0,2.021088921E0,-3.713262606E-1,3.633619070E0
1.577927767E1,3.937539871E0,2.238008342E0,-2.928053172E-1,4.538572081E0
1.578924367E1,4.718853305E0,2.514912595E0,-3.194651122E-1,5.356717263E0
1.579920867E1,5.485422108E0,2.678401914E0,-4.608038628E-1,6.121767123E0
1.580917367E1,6.271778473E0,2.551783383E0,-8.430816659E-1,6.823312270E0
1.581913967E1,6.928956395E0,2.129057173E0,-1.118614600E0,7.334481563E0
1.582910467E1,7.335857701E0,1.682078467E0,-1.275690401E0,7.633582525E0
1.583906967E1,7.574179686E0,1.371265041E0,-1.387600261E0,7.821380966E0
1.584903567E1,7.885422882E0,1.222658055E0,-1.490480998E0,8.117654855E0
1.585900067E1,8.228730454E0,1.121034617E0,-1.549281768E0,8.448017371E0
1.586896667E1,8.562673126E0,1.079441033E0,-1.809420737E0,8.818081845E0
1.587893167E1,8.997382620E0,1.104267726E0,-2.325405944E0,9.358408734E0
1.588889667E1,1.002001328E1,1.220803319E0,-2.539906518E0,1.040875362E1
1.589886267E1,1.100688996E1,1.423976521E0,-2.317832776E0,1.133806353E1
1.590882767E1,1.178540346E1,1.726154194E0,-1.955165073E0,1.207054321E1
1.591879267E1,1.229169749E1,1.986855227E0,-1.509865541E0,1.254245250E1
1.592875867E1,1.250533720E1,2.361986856E0,-1.023469731E0,1.276753425E1
1.593872367E1,1.247301380E1,2.917290494E0,-5.985492070E-1,1.282360784E1
1.594868867E1,1.238293276E1,3.372870455E0,-3.384226625E-1,1.283852830E1
1.595865467E1,1.231167508E1,3.483444811E0,-3.536607988E-1,1.279987528E1
1.596861967E1,1.212864203E1,3.112603285E0,-4.805323684E-1,1.253088856E1
1.597858467E1,1.160692538E1,2.275220023E0,-5.113216133E-1,1.183886789E1
1.598855067E1,1.074835532E1,1.202313253E0,-4.242168112E-1,1.082370820E1
1.599851567E1,9.933722405E0,1.643687403E-1,-2.463478732E-1,9.938135901E0
1.600848067E1,9.100729233E0,-8.104065478E-1,-5.992592052E-2,9.136937258E0
1.601844667E1,8.228374359E0,-1.412904233E0,1.439724827E-1,8.350040182E0
1.602841167E1,7.427700502E0,-1.595686440E0,3.195570597E-1,7.603884972E0
1.603837667E1,6.753041743E0,-1.603852662E0,4.336198649E-1,6.954418907E0
1.604834267E1,6.179365568E0,-1.579063391E0,5.742383847E-1,6.403729362E0
1.605830767E1,5.716050326E0,-1.557625744E0,9.297812560E-1,5.996992786E0
1.606827367E1,5.139337108E0,-1.380936336E0,1.456433976E0,5.517333685E0
1.607823867E1,4.452328445E0,-1.158863178E0,1.870232804E0,4.966282632E0
1.608820367E1,3.806669537E0,-1.007657690E0,2.247574095E0,4.534059582E0
1.609816967E1,3.210876853E0,-9.824941975E-1,2.474572947E0,4.171155270E0
1.610813467E1,2.617074562E0,-1.059278664E0,2.557691410E0,3.809584741E0
1.611809967E1,1.998181869E0,-1.230097468E0,2.496022288E0,3.425784264E0
1.612806567E1,1.370152901E0,-1.544242052E0,2.360576361E0,3.135972456E0
1.613803067E1,7.431887108E-1,-1.912596173E0,2.132533781E0,2.959400938E0
1.614799592E1,1.004002011E-1,-2.225536816E0,1.963994368E0,2.969910470E0
1.615796192E1,-5.783083391E-1,-2.468119667E0,1.873615418E0,3.152219846E0
1.616792692E1,-1.134355159E0,-2.667006860E0,1.677237557E0,3.348553873E0
1.617789192E1,-1.507795773E0,-2.895596740E0,1.308112773E0,3.516971367E0
1.618785792E1,-1.779939222E0,-3.253426457E0,7.714675999E-1,3.787892502E0
1.619782292E1,-1.996729420E0,-3.674358741E0,3.500144751E-1,4.196468833E0
1.620778792E1,-2.256334101E0,-3.991890325E0,1.752913392E-1,4.588786223E0
1.621775392E1,-2.571746362E0,-4.261912990E0,1.572807455E-1,4.980212738E0
1.622771892E1,-2.930350835E0,-4.509389083E0,3.222716296E-1,5.387523079E0
1.623768492E1,-3.188498390E0,-4.755597501E0,4.692916811E-1,5.744777128E0
1.624764992E1,-3.305502929E0,-5.041849989E0,6.702253997E-1,6.065954419E0
1.625761492E1,-3.378325907E0,-5.362883763E0,8.960261571E-1,6.401286673E0
1.626758092E1,-3.455328475E0,-5.711980079E0,1.018274187E0,6.752991457E0
1.627754592E1,-3.607951328E0,-6.049067384E0,9.907779479E-1,7.112676707E0
1.628751092E1,-3.871235077E0,-6.298486215E0,9.663602677E-1,7.455953446E0
1.629747692E1,-4.139616428E0,-6.433321838E0,9.839501542E-1,7.713119470E0
1.630744192E1,-4.350631916E0,-6.550664932E0,9.771612445E-1,7.924269885E0
1.631740692E1,-4.477592509E0,-6.664330711E0,9.794527683E-1,8.088353740E0
1.632737292E1,-4.604402245E0,-6.777378439E0,1.023755952E0,8.257206234E0
1.633733792E1,-4.744088718E0,-7.033047359E0,1.192967649E0,8.566989245E0
1.634730292E1,-4.875485010E0,-7.385269012E0,1.355584271E0,8.952662239E0
1.635726892E1,-5.049044988E0,-7.755421152E0,1.462148606E0,9.368953574E0
1.636723392E1,-5.310427222E0,-8.056014229E0,1.639733516E0,9.787171632E0
1.637719892E1,-5.665660191E0,-8.216823184E0,1.907927172E0,1.016149963E1
1.638716492E1,-6.159554032E0,-8.088126553E0,2.185484851E0,1.039876151E1
1.639712992E1,-6.645095710E0,-7.799947699E0,2.278783024E0,1.049711071E1
1.640709492E1,-6.925555655E0,-7.567486963E0,2.045481166E0,1.046012300E1
1.641706092E1,-6.865985976E0,-7.242927902E0,1.336804476E0,1.006920127E1
1.642702592E1,-6.544448172E0,-6.873326570E0,4.748105755E-1,9.502518882E0
1.643699192E1,-6.066820700E0,-6.561268272E0,-2.247491357E-1,8.939075284E0
1.644695692E1,-5.532309176E0,-6.512881393E0,-8.045581627E-1,8.583203522E0
1.645692192E1,-5.064698569E0,-6.562334805E0,-1.348097496E0,8.398379400E0
1.646688792E1,-4.745359903E0,-6.301636695E0,-1.703531317E0,8.070383175E0
1.647685292E1,-4.662360431E0,-5.798496652E0,-1.772056591E0,7.648552332E0
1.648681792E1,-4.540597427E0,-5.236842352E0,-1.513193922E0,7.094455488E0
1.649678392E1,-4.094629120E0,-5.012827919E0,-9.685667145E-1,6.544658346E0
