"Time (s)","Linear Acceleration x (m/s^2)","Linear Acceleration y (m/s^2)","Linear Acceleration z (m/s^2)","Absolute acceleration (m/s^2)"
3.701958340E-3,-1.093835708E-1,-1.366546338E0,5.448067170E-1,1.475204399E0
1.366595837E-2,5.031853589E-1,-1.310427686E0,-4.163012892E-1,1.464145822E0
2.363095834E-2,1.030945396E0,-1.037562105E0,-1.056518778E0,1.804332414E0
3.359595838E-2,1.636525441E0,-6.526966166E-1,-6.079198086E-1,1.863811924E0
4.355995834E-2,2.509607416E0,-5.227820098E-1,8.151053703E-1,2.689949289E0
5.352495832E-2,2.821668638E0,-6.582314448E-1,1.946640417E0,3.490629091E0
6.348995835E-2,2.702708497E0,-1.030346202E0,2.576335841E0,3.873467811E0
7.345395832E-2,2.090414679E0,-1.496116252E0,2.230153193E0,3.403201527E0
8.341895835E-2,1.370863630E0,-1.723427637E0,1.486662766E0,2.656997571E0
9.338395833E-2,9.609972015E-1,-1.766956796E0,7.085305095E-1,2.132526066E0
1.033479584E-1,4.870490903E-1,-1.675153025E0,-4.926828825E-1,1.812757815E0
1.133129583E-1,-1.301917648E-1,-1.326206836E0,-1.464728690E0,1.980203172E0
1.232779584E-1,-5.876118439E-1,-8.004934707E-1,-2.055767587E0,2.283036979E0
1.332419583E-1,-7.348043883E-1,-3.944117989E-1,-2.822952102E0,2.943561911E0
1.432069584E-1,-8.810236636E-1,-1.641078083E-1,-3.191113265E0,3.314564517E0
1.531719583E-1,-8.257455486E-1,6.894101143E-2,-2.989366783E0,3.102083548E0
1.631359584E-1,-4.230881524E-1,4.268369485E-1,-2.248401768E0,2.327338367E0
1.731009583E-1,2.760163531E-1,7.833437334E-1,-1.081269457E0,1.363435393E0
1.830659583E-1,9.797518533E-1,9.441602902E-1,-8.861630738E-2,1.363526750E0
1.930299583E-1,1.430746720E0,1.040671362E0,-1.969985425E-2,1.769299619E0
2.029949583E-1,1.354420967E0,1.022227928E0,-7.165897268E-1,1.841984509E0
2.129599584E-1,9.327085184E-1,9.454981332E-1,-1.700557423E0,2.157732015E0
2.229239583E-1,4.787879978E-1,1.060917492E0,-2.440660558E0,2.703998489E0
2.328889584E-1,2.389486603E-1,1.182904006E0,-3.037926155E0,3.268845923E0
2.428539583E-1,4.333429992E-2,1.134691228E0,-3.613250660E0,3.787477046E0
2.528179584E-1,-1.366801277E-1,1.054996309E0,-3.857965990E0,4.001949556E0
2.627829583E-1,-3.783391187E-1,9.783973458E-1,-3.808388618E0,3.950218440E0
2.727479584E-1,-3.479205872E-1,9.747960457E-1,-3.271829984E0,3.431639187E0
2.827119583E-1,1.567711607E-2,1.013990956E0,-2.317666715E0,2.529822609E0
2.926769584E-1,6.137975760E-1,8.567514329E-1,-1.552690694E0,1.876597686E0
3.026419583E-1,1.244605287E0,6.097346382E-1,-1.115900177E0,1.779340286E0
3.126059584E-1,1.529799722E0,3.212395960E-1,-8.532648844E-1,1.780882655E0
3.225709583E-1,1.443210644E0,3.289000332E-2,-1.128986830E0,1.832634710E0
3.325359583E-1,5.884350588E-1,-2.760903203E-1,-1.910396451E0,2.017943578E0
3.424999584E-1,-8.380332530E-1,-4.655314828E-1,-2.384400988E0,2.569900264E0
3.524649583E-1,-1.313236835E0,-7.002523139E-1,-2.625775804E0,3.018218491E0
3.624299584E-1,-9.810680616E-1,-8.003722872E-1,-2.464472759E0,2.770688780E0
3.723939583E-1,-1.107039379E0,-1.045243008E0,-4.789378327E-1,1.596073488E0
3.823589584E-1,-1.498670169E0,-1.769660402E0,2.391788360E0,3.331420384E0
3.923239583E-1,-1.380932828E0,-3.082764359E0,3.545410679E0,4.896973397E0
4.022879584E-1,-6.283091958E-1,-3.456786478E0,2.905337031E0,4.559071009E0
4.122529583E-1,-1.156043797E0,-3.997470323E0,3.131950552E0,5.208197433E0
4.222179584E-1,-1.059271647E0,-4.802677819E0,2.570847645E0,5.549507029E0
4.321819583E-1,-3.630290616E-1,-5.358638100E0,8.601821405E-1,5.439366296E0
4.421469584E-1,-1.012648873E0,-5.647357821E0,-1.033772525E0,5.829819357E0
4.521119584E-1,-2.926349586E0,-6.016626447E0,-2.414951520E0,7.113037786E0
4.620759583E-1,-4.254752197E0,-6.140822477E0,-2.279410722E0,7.810782944E0
4.720409584E-1,-4.278576677E0,-6.411504707E0,-4.446936142E-1,7.720839553E0
4.820059583E-1,-3.241946619E0,-7.481834024E0,1.362438669E0,8.267060987E0
4.919699584E-1,-2.098647559E0,-8.449628322E0,3.192289140E0,9.273146731E0
5.019349583E-1,-1.296940498E0,-9.328644344E0,5.076585374E0,1.069941022E1
5.118999584E-1,6.229038835E-3,-1.008062668E1,5.136785967E0,1.131395789E1
5.218639583E-1,1.796951696E0,-1.026161555E1,4.078357489E0,1.118761766E1
5.318289584E-1,3.614248779E0,-1.009514532E1,2.652456649E0,1.104582634E1
5.417939583E-1,4.603974813E0,-9.979226607E0,5.678061551E-1,1.100472406E1
5.517579584E-1,4.558375887E0,-9.233925297E0,-1.682547414E0,1.043432475E1
5.617229583E-1,4.569827659E0,-7.952737198E0,-3.071475724E0,9.672813287E0
5.716879583E-1,4.814959311E0,-6.487173525E0,-4.430991370E0,9.214170502E0
5.816519583E-1,4.971863496E0,-5.124264740E0,-5.373725086E0,8.936130988E0
5.916169583E-1,6.009182941E0,-4.454362399E0,-5.482039493E0,9.273854701E0
6.015819584E-1,6.744368568E0,-4.036796064E0,-5.140092568E0,9.391633588E0
6.115459583E-1,6.187298486E0,-3.266100297E0,-4.433839841E0,8.283055562E0
6.215109584E-1,5.381694256E0,-2.630913752E0,-4.307398773E0,7.378212821E0
6.314759583E-1,4.633168207E0,-1.817786495E0,-4.556153360E0,6.747527608E0
6.414399584E-1,3.837624696E0,-9.145865352E-1,-4.978907636E0,6.352428913E0
6.514049583E-1,3.269327960E0,-4.851155988E-1,-5.341206965E0,6.281109321E0
6.613699584E-1,2.832891784E0,-2.778047240E-1,-4.975405154E0,5.732111982E0
6.713339583E-1,2.619476014E0,2.177916799E-1,-3.737353134E0,4.569124232E0
6.812989584E-1,2.608713629E0,2.085880894E-1,-2.483784943E0,3.608058124E0
6.912639583E-1,2.132617543E0,-1.173254053E-1,-1.054623988E0,2.382027412E0
7.012279584E-1,1.441039866E0,-8.464824066E-2,7.024786413E-2,1.445232155E0
7.111929583E-1,8.687529892E-1,1.421354337E-1,6.833582461E-1,1.114411383E0
7.211579583E-1,9.871684617E-1,6.407921241E-1,1.118289934E0,1.623480365E0
7.311219583E-1,1.727561034E0,1.216974269E0,1.470852479E0,2.574665127E0
7.410869583E-1,1.991719526E0,1.907786546E0,1.452340779E0,3.117032229E0
7.510519584E-1,1.922047028E0,2.369435332E0,9.660763854E-1,3.200280011E0
7.610159583E-1,1.692026920E0,2.216591161E0,7.685071546E-1,2.892548136E0
7.709809584E-1,1.329846289E0,1.614713280E0,1.156835364E0,2.390409628E0
7.809459583E-1,7.894700074E-1,1.027415139E0,1.889603167E0,2.291166709E0
7.909099584E-1,6.697459280E-1,7.058627173E-1,2.622182690E0,2.796898969E0
8.008749583E-1,7.954663271E-1,6.459036139E-1,2.908807939E0,3.084010665E0
8.108399584E-1,7.456422025E-1,7.783158588E-1,2.647784139E0,2.858761745E0
8.208039583E-1,7.570477813E-1,1.035896818E0,1.997766716E0,2.374294719E0
8.307689584E-1,1.271957100E0,1.282033899E0,1.414764233E0,2.294132432E0
8.407339584E-1,1.649842182E0,1.357125597E0,1.022577446E0,2.368424317E0
8.506979584E-1,2.147358373E0,1.325782767E0,1.035305665E0,2.727765706E0
8.606629584E-1,3.017411783E0,1.751749211E0,1.532921843E0,3.810938014E0
8.706279583E-1,3.381108012E0,1.876220645E0,2.253901659E0,4.475731000E0
8.805919584E-1,4.009153352E0,1.949424861E0,2.833770036E0,5.282406696E0
8.905569583E-1,5.015757374E0,2.356142564E0,2.749841441E0,6.186344459E0
9.005221667E-1,5.112777300E0,1.642181745E0,2.369681792E0,5.869637501E0
9.104861667E-1,5.124058333E0,1.005239866E0,2.661449667E0,5.860869843E0
9.204511667E-1,5.323753027E0,4.883524346E-1,3.250467766E0,6.256706409E0
9.304161667E-1,5.315477462E0,3.428801411E-1,4.423374202E0,6.923735031E0
9.403801667E-1,5.028618325E0,-4.286009073E-4,5.136301818E0,7.188087284E0
9.503451667E-1,4.742926877E0,-3.891058892E-1,4.724139773E0,6.705539154E0
9.603101667E-1,5.122570801E0,-3.343812132E-1,4.508304425E0,6.832082494E0
9.702741667E-1,5.998046334E0,-3.012111282E-1,4.923040999E0,7.765540590E0
9.802391667E-1,5.971523949E0,-6.952134758E-1,5.732829496E0,8.307090591E0
9.902041667E-1,5.256753291E0,-3.292146134E-1,5.078628391E0,7.316714000E0
1.000168167E0,5.102086251E0,6.154089224E-1,3.784142554E0,6.381986142E0
1.010133167E0,4.080543762E0,9.554081404E-1,2.199620202E0,4.733072062E0
1.020098167E0,2.162883316E0,9.286395872E-1,7.803723246E-1,2.479801743E0
1.030062167E0,7.803202844E-1,1.176440493E0,-5.495306826E-1,1.514891399E0
1.040027167E0,1.253467619E-1,1.239554170E0,-1.887767726E0,2.261829644E0
1.049992167E0,-2.949353117E-1,1.117066696E0,-3.059670780E0,3.270536672E0
1.059956167E0,-7.140333241E-1,1.406231976E0,-4.026499702E0,4.324353340E0
1.069921167E0,-7.650654835E-1,1.575381984E0,-4.535823176E0,4.862185257E0
1.079886167E0,-1.360899097E0,1.708977413E0,-5.056933467E0,5.508650129E0
1.089850167E0,-2.082995147E0,2.506272749E0,-6.023975812E0,6.848982148E0
1.099815167E0,-2.336690632E0,3.440954849E0,-7.207929393E0,8.321931237E0
1.109780167E0,-3.180607572E0,3.441873447E0,-7.994156535E0,9.266568731E0
1.119744167E0,-3.964241474E0,2.892608228E0,-7.982982506E0,9.370720490E0
1.129709167E0,-4.291709524E0,2.503840892E0,-7.345850592E0,8.868455941E0
1.139674167E0,-4.853374933E0,1.820235894E0,-6.606751424E0,8.397480058E0
1.149638167E0,-5.438371902E0,6.979435408E-1,-5.040988694E0,7.448126016E0
1.159603167E0,-5.379160073E0,3.530911338E-1,-2.365000511E0,5.886702290E0
1.169568167E0,-3.879680795E0,1.017280160E0,3.971370399E-2,4.011029690E0
1.179532167E0,-2.227736539E0,2.281075717E0,8.212051857E-1,3.292490618E0
1.189497167E0,-4.056266123E-1,3.747594240E0,5.366785026E-1,3.807495154E0
1.199461167E0,1.762934934E0,4.808317751E0,7.994839489E-1,5.183341949E0
1.209426167E0,3.614403146E0,4.747786790E0,1.958828061E0,6.280318214E0
1.219391167E0,4.894275622E0,4.487704684E0,2.991462425E0,7.283012744E0
1.229355167E0,5.612394980E0,4.010894361E0,3.488079899E0,7.730003387E0
1.239320167E0,5.659231762E0,2.771080867E0,3.335624276E0,7.129669180E0
1.249285167E0,4.726798502E0,8.600064316E-1,2.778441342E0,5.549952381E0
1.259249167E0,2.784297913E0,-1.248230853E0,2.485387080E0,3.935421714E0
1.269214167E0,-2.804769015E-1,-2.392737509E0,1.087150587E0,2.643058168E0
1.279179167E0,-5.155176630E0,-3.362476444E0,-5.385273921E0,8.178219191E0
1.289143167E0,-1.033262764E1,-4.444310450E0,-1.353609140E1,1.759945623E1
1.299108167E0,-4.573205010E0,-3.667870378E0,-1.218172773E1,1.351894847E1
1.309073167E0,5.452335053E0,-7.891837862E-1,-6.108304356E0,8.225700620E0
1.319037167E0,7.907430047E0,1.260587774E0,-1.528012813E0,8.151770032E0
1.329002167E0,6.676920351E0,1.321082190E0,1.439132796E0,6.956840283E0
1.338967167E0,5.911369548E0,2.045363344E-1,2.130675682E-1,5.918743350E0
1.348931167E0,5.369075965E0,-7.786558744E-1,-3.699392425E0,6.566489626E0
1.358896167E0,4.207213165E0,-1.961101897E0,-3.002485011E0,5.528243799E0
1.368861167E0,4.213740411E0,-2.898930530E0,-4.502654260E-1,5.134407992E0
1.378825167E0,3.888697202E0,-3.154356498E0,4.373737773E0,6.648421839E0
1.388790167E0,2.141473736E0,-3.449828876E0,7.252705032E0,8.311976859E0
1.398755167E0,1.135183125E0,-4.055252508E0,7.071700378E0,8.230592923E0
1.408719167E0,-4.774251580E-1,-4.432412243E0,6.542395214E0,7.916890060E0
1.418684167E0,-2.616299222E0,-4.568713764E0,5.474772574E0,7.595479037E0
1.428649167E0,-4.861612490E0,-4.824956880E0,3.426413409E0,7.658707055E0
1.438613167E0,-6.349085680E0,-4.472321829E0,1.719134027E-1,7.768018134E0
1.448578167E0,-6.416031622E0,-3.566829907E0,-3.172387556E0,7.996985692E0
1.458543167E0,-6.111429693E0,-2.340077046E0,-5.535721026E0,8.571449163E0
1.468507167E0,-6.222085910E0,-8.490453874E-1,-7.204451469E0,9.557162347E0
1.478472167E0,-6.617659990E0,5.585829033E-1,-9.109221729E0,1.127312553E1
1.488437167E0,-6.773373681E0,2.215053343E0,-1.036960660E1,1.258228093E1
1.498401167E0,-5.547178060E0,2.912699261E0,-9.333477067E0,1.124138762E1
1.508366167E0,-4.098201769E0,1.307330416E0,-4.283452671E0,6.070612600E0
1.518331167E0,-1.792573886E0,-1.838399100E0,2.356502752E0,3.485130931E0
1.528295167E0,2.433459127E-1,-4.967441247E0,8.318738984E0,9.692064179E0
1.538260167E0,-6.863350636E-1,-6.368045277E0,1.260236473E1,1.413657148E1
1.548224167E0,-3.036017624E0,-7.321781698E0,1.226666088E1,1.460468621E1
1.558189167E0,-3.277770755E0,-8.471422648E0,9.734956250E0,1.331458433E1
1.568154167E0,-2.222639521E0,-8.526444948E0,7.042440911E0,1.127990975E1
1.578118167E0,-7.586785698E-1,-7.714318149E0,4.488399918E0,8.957233474E0
1.588083167E0,1.027282700E0,-6.516859839E0,2.655684312E0,7.111781146E0
1.598048167E0,2.439923809E0,-5.212936011E0,1.619518522E0,5.979194786E0
1.608012167E0,3.841321306E0,-4.083664129E0,1.182218127E0,5.729720918E0
1.617977167E0,5.274322420E0,-3.059653239E0,1.431411256E0,6.263297303E0
1.627942167E0,5.692499496E0,-2.379719122E0,2.279232382E0,6.577424561E0
1.637906167E0,4.882500499E0,-3.082382535E0,2.970849236E0,6.493522803E0
1.647871167E0,3.323793020E0,-3.832342907E0,3.508984280E0,6.168259306E0
1.657836167E0,1.388560520E0,-3.979984517E0,3.119960251E0,5.244285370E0
1.667800167E0,-1.177959015E0,-3.243385326E0,5.457200521E-1,3.493557813E0
1.677765167E0,-3.456158195E0,-1.541800548E0,-4.095019130E0,5.575962703E0
1.687730167E0,-3.844303971E0,1.609200525E-1,-8.635613049E0,9.454014016E0
1.697694167E0,-3.168665804E0,1.186953495E0,-1.076894921E1,1.128802767E1
1.707659167E0,-3.227780569E0,2.452155599E0,-1.094449783E1,1.167106110E1
1.717624167E0,-2.889144922E0,3.604047435E0,-1.018835344E1,1.118654827E1
1.727588167E0,-1.881127628E0,3.944265923E0,-8.320418304E0,9.398150647E0
1.737553167E0,-1.057654892E0,4.105485061E0,-6.440708626E0,7.710795618E0
1.747518167E0,-1.221645318E0,4.446869484E0,-5.303815191E0,7.028337006E0
1.757482167E0,-2.175485820E0,4.794653100E0,-4.882466585E0,7.180523439E0
1.767447167E0,-2.801248407E0,5.102225415E0,-5.192904035E0,7.800381345E0
1.777412167E0,-1.420574026E0,5.492047003E0,-4.169361799E0,7.040183851E0
1.787376167E0,-2.373653805E0,5.772295863E0,-4.106913536E0,7.471303146E0
1.797341167E0,-3.719675832E0,5.643123268E0,-4.111618205E0,7.911146110E0
1.807305167E0,-1.908308410E0,4.915383486E0,-1.859635018E0,5.591142835E0
1.817270167E0,-1.012457085E-1,4.302813386E0,-8.754041970E-2,4.304894546E0
1.827235167E0,1.863285434E0,2.626662827E0,1.201867111E0,3.437393601E0
1.837199167E0,2.661377161E0,1.149452670E0,3.506547160E0,4.549729972E0
1.847164167E0,2.568675404E0,-2.766206628E-1,1.735619082E0,3.112392315E0
1.857129167E0,4.189562175E0,-1.130336952E0,1.244849993E0,4.514393021E0
1.867093167E0,5.921258360E0,-2.038408374E0,6.029338878E0,8.693062554E0
1.877058167E0,6.350921121E0,-4.279366052E0,9.990818127E0,1.258823338E1
1.887023167E0,5.859128770E0,-5.577047977E0,1.361627777E1,1.583779892E1
1.896986458E0,5.732664020E0,-5.104595291E0,1.498765333E1,1.683894540E1
1.906951458E0,6.127397270E0,-5.874023382E0,1.346264569E1,1.591514929E1
1.916916458E0,5.413177419E0,-6.978972309E0,1.121164074E1,1.427268133E1
1.926880458E0,4.172942634E0,-6.999558601E0,8.692622232E0,1.191507248E1
1.936845458E0,3.488058849E0,-6.369671388E0,6.852513991E0,9.984799253E0
1.946810458E0,2.794800097E0,-6.213339645E0,5.510828844E0,8.762746812E0
1.956774458E0,1.928766648E0,-6.469469910E0,4.546777934E0,8.139248816E0
1.966739458E0,1.364114481E0,-6.545586040E0,4.382287572E0,7.994369849E0
1.976704458E0,4.813100481E-1,-6.071086244E0,3.504924558E0,7.026680845E0
1.986668458E0,-3.824850869E-1,-5.224439238E0,1.456137961E0,5.437039448E0
1.996633458E0,-7.931900060E-1,-4.213338123E0,-9.196465695E-1,4.384873811E0
2.006598458E0,-9.681603330E-1,-3.444936218E0,-1.970070210E0,4.084861884E0
2.016562458E0,-2.001771474E0,-3.195546039E0,-1.639297898E0,4.111678626E0
2.026527458E0,-2.376193251E0,-2.499424490E0,-1.228260857E0,3.660879933E0
2.036491458E0,-1.512083536E0,-1.822647285E0,-7.996611196E-1,2.499579495E0
2.046456458E0,-2.099846238E-1,-1.224022211E0,-8.898304474E-1,1.527783407E0
2.056421458E0,7.130194169E-1,-5.868651545E-1,-2.057441645E0,2.255188135E0
2.066385458E0,9.359825206E-1,-5.111668083E-1,-2.198950111E0,2.443918243E0
2.076350458E0,6.509944922E-1,-8.410716856E-1,-2.104046878E0,2.357585348E0
2.086315458E0,6.296685272E-1,-3.800982535E-2,-4.684607917E0,4.726888886E0
2.096279458E0,-1.708907247E-1,8.117750886E-1,-7.070225126E0,7.118726414E0
2.106244458E0,1.009926410E0,1.130563532E0,-6.350503630E0,6.528937249E0
2.116209458E0,3.483029659E0,1.913636685E0,-5.715128220E0,6.961048164E0
2.126173458E0,2.840024802E0,-4.184782076E-1,-2.622444938E0,3.888197826E0
2.136138458E0,1.652903200E0,-1.234533750E0,-7.170566270E-1,2.184109149E0
2.146103458E0,1.221630115E0,-2.161907708E0,5.037840554E0,5.616588156E0
2.156067458E0,7.262382174E-1,-2.148701479E0,6.395520759E0,6.785795883E0
2.166032458E0,-1.887995768E-1,-5.611643028E-1,1.715571318E0,1.814865175E0
2.175997458E0,-1.450976039E0,3.525283393E-1,-2.224945663E0,2.679550503E0
2.185961458E0,-2.324870485E0,7.117207503E-1,-3.251798592E0,4.060266405E0
2.195926458E0,-2.128235639E0,9.996335560E-1,-7.664302236E-1,2.473068837E0
2.205891458E0,-1.035031430E0,1.898841183E0,9.401211798E-2,2.164653824E0
2.215855458E0,-6.072421163E-1,2.805322454E0,-1.632249080E0,3.301940962E0
2.225820458E0,2.281390589E-1,1.961710738E0,-1.559358859E0,2.516337915E0
2.235784458E0,-8.138213217E-1,1.586526777E0,-2.001493147E0,2.680549790E0
2.245749458E0,-9.782508731E-1,1.016896876E0,-1.005929838E0,1.732901862E0
2.255714458E0,-2.189945984E-1,4.795590994E-1,1.071513086E0,1.194184180E0
2.265678458E0,5.774832970E-1,2.721911046E-1,2.654361672E0,2.730056930E0
2.275643458E0,2.263814444E0,-9.013026845E-1,7.258044124E0,7.656135244E0
2.285608458E0,1.268893744E0,1.417505407E-1,4.145274486E0,4.337451454E0
2.295572458E0,7.231772000E-1,1.642254251E0,-7.512099212E-1,1.945327898E0
2.305537458E0,1.057604606E0,4.039630502E0,-7.376062571E0,8.476051035E0
2.315502458E0,3.738085790E0,3.719893933E0,-3.074745195E0,6.104502786E0
2.325466458E0,4.447403335E0,3.181146685E0,-4.033459058E-1,5.482862261E0
2.335431458E0,5.028679136E0,3.836092141E0,1.738419898E0,6.559368911E0
2.345396458E0,6.573102452E0,1.797378251E0,6.508003061E0,9.422863061E0
2.355360458E0,5.552746949E0,-9.702194300E-1,1.173226981E1,1.301616223E1
2.365325458E0,-2.250726621E0,-6.952359876E-1,5.206011738E0,5.714164998E0
2.375290458E0,-7.729623821E0,-4.586585194E-2,-4.561300664E0,8.975224333E0
2.385254458E0,-6.476181929E0,5.165216884E-1,-1.587387838E1,1.715190199E1
2.395219458E0,-1.407372767E0,-9.973119190E-1,-5.227058791E0,5.504314015E0
2.405183458E0,1.910191798E-1,-2.709489806E0,2.212134413E0,3.503050384E0
2.415148458E0,-2.859990120E-1,-3.889911376E0,2.726237985E0,4.758737175E0
2.425113458E0,-8.058480585E-1,-4.845769460E0,1.503971109E0,5.137392514E0
2.435077458E0,-1.011799858E0,-4.284097618E0,1.635293725E0,4.695893624E0
2.445042458E0,-5.448815614E-1,-3.751197294E0,3.732275412E0,5.319610588E0
2.455007458E0,-3.110817545E0,-1.453439763E0,-1.955814698E0,3.951567294E0
2.464971458E0,-4.465098764E0,-2.370388135E-1,-4.570031726E0,6.393628418E0
2.474936458E0,8.815572220E-1,-4.007851177E-1,3.111931440E0,3.259123982E0
2.484901458E0,7.870586157E-2,4.890570241E-1,6.007191380E0,6.027579917E0
2.494865458E0,-2.137138610E0,8.907171777E-1,-7.007952279E-1,2.419060247E0
2.504830458E0,-1.654356233E0,-4.955836862E-2,-1.544863027E0,2.264056613E0
2.514795458E0,-1.035039032E0,-2.429284215E-2,-1.612565013E0,1.916314656E0
2.524759458E0,6.675555611E-1,-1.689561734E-1,1.681859196E0,1.817368144E0
2.534724458E0,-1.860429654E0,6.401788974E-1,-2.979442888E0,3.570449194E0
2.544689458E0,-3.464058952E0,6.839941308E-1,-8.508028557E0,9.211628647E0
2.554653458E0,4.763579242E0,-1.235875102E0,4.835243302E0,6.899177651E0
2.564618458E0,8.753857198E0,-3.239877581E0,2.270036232E1,2.454451613E1
2.574582458E0,7.279479432E0,-1.217349661E0,9.232580438E0,1.182003818E1
2.584547458E0,5.237005489E0,4.044429604E0,-7.379998916E-1,6.657948720E0
2.594512458E0,1.993205888E0,5.237234700E0,5.747786089E0,8.027362079E0
2.604476458E0,-1.703953193E0,4.899989229E0,6.121889777E0,8.024393146E0
2.614441458E0,-2.913972492E0,3.032667169E0,8.067310465E0,9.097791159E0
2.624406458E0,-3.986043110E0,4.244437124E0,-3.730055809E-1,5.834631037E0
2.634370458E0,-3.185418369E0,3.056350147E0,-2.473213761E0,5.060133666E0
2.644335458E0,-5.018179291E0,1.838213597E0,-5.349393067E0,7.561557962E0
2.654300458E0,-6.049176142E0,1.424191991E0,-8.778882696E0,1.075591169E1
2.664264458E0,-5.475928568E0,9.877732100E-1,-1.088407738E1,1.222393677E1
2.674229458E0,-5.492048757E0,8.082527990E-1,-1.310210170E1,1.422957979E1
2.684194458E0,-5.966036922E0,2.060864861E-1,-1.432038779E1,1.551481790E1
2.694158458E0,-6.191967487E0,-4.781388107E-1,-1.379948858E1,1.513257953E1
2.704123458E0,-5.315895538E0,-1.219907525E0,-1.291196661E1,1.401662590E1
2.714088458E0,-3.949454742E0,-1.699042409E0,-9.939001272E0,1.082906663E1
2.724052458E0,-2.676874329E0,-1.795141252E0,-5.480736149E0,6.358196051E0
2.734017458E0,-1.238564821E0,-1.333813625E0,-1.679734903E0,2.476814677E0
2.743982458E0,5.053046823E-2,-3.827998133E-1,1.175005002E0,1.236820836E0
2.753946458E0,1.084561440E0,1.193769375E-1,3.362360669E0,3.534967276E0
2.763911458E0,1.231361051E0,-1.707091686E-1,4.435709488E0,4.606615930E0
2.773875458E0,7.089857152E-1,-4.532327783E-1,4.299333124E0,4.380906984E0
2.783840458E0,1.449378580E-1,-5.109424945E-1,3.886688683E0,3.922807430E0
2.793805458E0,-1.589317068E-1,-2.569991612E-1,3.478952395E0,3.492050633E0
2.803769458E0,-3.014102259E-1,-2.164842060E-2,2.989022967E0,3.004259488E0
2.813734458E0,-5.464573860E-1,2.527844517E-2,2.392953125E0,2.454685180E0
2.823699458E0,-8.190648124E-1,1.227127740E-1,1.925860582E0,2.096393230E0
2.833663458E0,-1.160894501E0,1.445139349E-2,1.389879652E0,1.810980490E0
2.843628458E0,-1.405635852E0,-1.735533274E-1,7.654543233E-1,1.609923361E0
2.853593458E0,-9.165183091E-1,-4.293406897E-1,4.596010906E-1,1.111563044E0
2.863557458E0,1.397262347E-1,-9.621727111E-1,7.266118544E-1,1.213781090E0
2.873522458E0,1.328947572E0,-1.666438042E0,1.304143099E0,2.498781027E0
2.883486458E0,2.047734390E0,-2.596846997E0,1.878433231E0,3.803332994E0
2.893451458E0,1.928414061E0,-3.548066192E0,1.962822586E0,4.490014142E0
2.903417167E0,1.363732073E0,-4.322989204E0,1.334672581E0,4.725394346E0
2.913381167E0,5.586491230E-1,-4.900535066E0,1.683156109E-1,4.935145684E0
2.923346167E0,-7.327876836E-2,-5.158025393E0,-1.244461738E0,5.306531895E0
2.933311167E0,-4.763855231E-1,-4.977944600E0,-2.964590376E0,5.813404485E0
2.943275167E0,-1.084512616E0,-4.409346147E0,-5.399732916E0,7.055183671E0
2.953240167E0,-2.091967992E0,-3.876380919E0,-7.368797405E0,8.584977246E0
2.963205167E0,-3.070029123E0,-3.931571326E0,-8.754365321E0,1.007577511E1
2.973169167E0,-2.268679912E0,-4.761177206E0,-7.573052343E0,9.228588121E0
2.983134167E0,-4.112611063E0,-5.314603304E0,-8.575462157E0,1.089482121E1
2.993099167E0,-3.820639997E0,-3.335148020E0,-1.287168281E1,1.383476493E1
3.003063167E0,-7.480737671E-1,-4.201169482E0,-9.494529852E0,1.040939655E1
3.013028167E0,-1.011281210E0,-3.230940405E0,-7.898671503E0,8.593641667E0
3.022992167E0,-1.762871200E0,-1.996435452E0,-6.657088934E0,7.170097800E0
3.032957167E0,-2.381120700E0,-1.144192661E0,-5.187049803E0,5.821030689E0
3.042922167E0,-2.558929850E0,-1.424124017E0,-4.170548784E0,5.096050269E0
3.052886167E0,-2.427657520E0,-2.717041485E0,-1.376423455E0,3.894916814E0
3.062851167E0,-1.292351019E0,-2.786277488E0,3.164696714E0,4.410081483E0
3.072816167E0,9.713809794E-1,-2.418408979E0,6.362923701E0,6.875978550E0
3.082780167E0,3.245825661E0,-1.713152618E0,9.603096859E0,1.028055180E1
3.092745167E0,5.571696605E0,5.108457962E-1,1.081075564E1,1.217280592E1
3.102710167E0,7.316459563E0,2.978103876E0,9.279132460E0,1.218613895E1
3.112674167E0,8.676248274E0,5.990329179E0,6.167913212E0,1.221492862E1
3.122639167E0,9.141717045E0,8.004527741E0,4.760337546E0,1.305006776E1
3.132604167E0,8.481628379E0,7.156408991E0,3.292560117E0,1.157554153E1
3.142568167E0,5.789007205E0,5.835870885E0,1.547090231E0,8.364417588E0
3.152533167E0,2.430652463E0,4.500921438E0,3.627524883E-2,5.115435571E0
3.162497167E0,-3.504663187E-1,3.152241267E0,-1.856036495E0,3.674822869E0
3.172462167E0,-2.514125560E0,1.813089134E0,-3.098692759E0,4.382923266E0
3.182427167E0,-3.074932013E0,8.324061120E-1,-2.732030237E0,4.196676785E0
3.192391167E0,-2.807425990E0,4.332760486E-1,-2.080759172E0,3.521211092E0
3.202356167E0,-2.270394316E0,3.660468096E-1,-1.437264318E0,2.711901425E0
3.212321167E0,-2.068463647E0,2.739897081E-1,-1.066356134E0,2.343230168E0
3.222285167E0,-2.854192021E0,-4.297931546E-1,-1.753505130E0,3.377264350E0
3.232250167E0,-2.960297935E0,-1.356424223E0,-2.065767496E0,3.856247643E0
3.242215167E0,-1.876124750E0,-2.283749941E0,-1.361989603E0,3.254285413E0
3.252179167E0,-1.745124900E-1,-2.476536149E0,-1.711170119E0,3.015259373E0
3.262144167E0,1.197707402E0,-1.448414374E0,-5.660952598E0,5.964796018E0
3.272108167E0,2.305981055E0,-2.022342856E-1,-6.984145925E0,7.357767435E0
3.282073167E0,4.769566206E0,8.888507465E-1,-5.316945698E0,7.197828075E0
3.292038167E0,6.149854671E0,2.408293003E0,-3.603654209E0,7.523756463E0
3.302002167E0,6.223581628E0,3.765525019E0,-2.742411969E0,7.773864570E0
3.311967167E0,6.010902607E0,3.822873341E0,-3.499664987E0,7.936810805E0
3.321932167E0,5.772384156E0,3.225280885E0,-4.927337533E0,8.246302856E0
3.331896167E0,5.997196149E0,2.229225824E0,-2.542867548E0,6.884909934E0
3.341861167E0,5.585600699E0,1.637126973E0,6.023674388E-1,5.851663561E0
3.351826167E0,2.768585860E0,4.176095306E-1,1.576549819E0,3.213249869E0
3.361790167E0,3.733499819E-1,-1.212398969E0,3.549981155E0,3.769836558E0
3.371755167E0,1.529191904E0,-1.622842079E0,5.826791328E0,6.238873414E0
3.381719167E0,2.458245474E0,-1.155932700E0,6.234363309E0,6.800473299E0
3.391684167E0,2.041025003E0,-7.494173111E-1,4.880980808E0,5.343349419E0
3.401649167E0,1.594335734E0,-9.585935573E-1,2.986070707E0,3.518156664E0
3.411613167E0,2.145115381E0,-1.451717905E0,1.304000134E0,2.899900209E0
3.421578167E0,2.483117191E0,-1.717444181E0,2.227720459E-1,3.027393744E0
3.431543167E0,4.288371348E-1,-1.821289854E0,3.525429574E-1,1.904018004E0
3.441507167E0,-1.326329774E0,-1.879812589E0,7.146714015E-1,2.409066469E0
3.451472167E0,-2.270159842E0,-1.674496967E0,1.572520649E0,3.229610967E0
3.461437167E0,-2.019777390E0,-1.827178585E0,1.931741127E0,3.339117559E0
3.471401167E0,-7.518250483E-1,-2.288098515E0,2.102962804E0,3.197356451E0
3.481366167E0,2.390897244E-1,-2.298470306E0,2.468428985E0,3.381312068E0
3.491330167E0,3.776500243E-1,-1.271755079E0,2.540874817E0,2.866360996E0
3.501295167E0,-6.224594951E-2,-4.658894786E-1,2.179822261E0,2.229922118E0
3.511260167E0,-6.579608649E-1,-9.577096045E-2,1.494619657E0,1.635839997E0
3.521224167E0,-8.694353592E-1,1.039368895E-1,1.158273925E0,1.452005237E0
3.531189167E0,-1.080353783E0,2.340245739E-1,1.258685528E0,1.675177918E0
3.541154167E0,-1.479522731E0,8.204722372E-1,1.635208941E0,2.352885565E0
3.551118167E0,-1.859340318E0,1.081132048E0,1.028639985E0,2.384133625E0
3.561083167E0,-2.439575899E0,8.111862740E-1,-7.828471586E-2,2.572096856E0
3.571048167E0,-3.442779180E0,2.046221423E-1,-1.151915371E0,3.636139124E0
3.581012167E0,-4.932742115E0,-6.197978425E-1,-2.229049969E0,5.448372041E0
3.590977167E0,-5.519610777E0,-1.854512272E0,-2.673120124E0,6.407096854E0
3.600941167E0,-4.818071784E0,-3.791715575E0,-1.863407203E0,6.408058139E0
3.610906167E0,-2.471316340E0,-5.315783272E0,-4.493058980E-1,5.879356430E0
3.620871167E0,-3.409502676E0,-5.472663483E0,1.320493083E0,6.581675780E0
3.630835167E0,-6.503403642E0,-3.707000822E0,2.501900786E0,7.892757539E0
3.640800167E0,-9.195717251E0,-2.307811233E0,1.762307382E0,9.643284490E0
3.650765167E0,-4.052162547E0,-1.244789182E0,7.323613046E0,8.461963689E0
3.660729167E0,7.884707183E-1,7.516782832E-1,9.599365751E0,9.660979719E0
3.670694167E0,1.375977897E0,1.613238612E0,3.923809147E0,4.460059665E0
3.680659167E0,1.416273984E0,1.687519301E0,-1.049250104E0,2.440180151E0
3.690623167E0,1.168890569E0,2.118788001E0,-2.118445354E0,3.216112322E0
3.700588167E0,2.002728664E0,3.395310022E0,-1.730788697E0,4.305192418E0
3.710552167E0,2.791991095E0,3.774760696E0,-2.110829648E0,5.147779559E0
3.720517167E0,3.564111244E0,4.630131163E0,-1.404936233E0,6.009563159E0
3.730482167E0,4.541988480E0,4.213852678E0,-4.236703304E0,7.505722393E0
3.740446167E0,3.193577281E0,1.166698155E0,-4.237809013E0,5.433152461E0
3.750411167E0,2.317985973E0,-7.695250086E-1,-2.543877655E0,3.526548062E0
3.760376167E0,2.319592203E0,-1.037856805E0,-2.141830123E0,3.323415565E0
3.770340167E0,1.399564980E0,-4.302686794E-1,-2.161175052E0,2.610477135E0
3.780305167E0,1.309109724E-1,-1.412273611E-1,-3.564976047E0,3.570173255E0
3.790270167E0,-1.122275981E0,-7.818771786E-1,-4.488546098E0,4.692321534E0
3.800234167E0,-3.008555006E0,-1.458449365E0,-5.000621856E0,6.015371703E0
3.810199167E0,-6.051732545E0,-1.942286873E0,-5.993484921E0,8.736006330E0
3.820163167E0,-5.484250910E0,-1.443957042E0,-6.174520565E0,8.383717803E0
3.830128167E0,1.073795546E0,4.218454729E-1,-3.707872642E0,3.883208726E0
3.840093167E0,9.606715116E0,3.534626659E0,-2.285296530E-1,1.023888601E1
3.850057167E0,1.414796509E1,5.823946073E0,1.583182170E0,1.538147359E1
3.860022167E0,1.301448936E1,6.651981976E0,1.573057716E0,1.470035061E1
3.869987167E0,7.863626216E0,6.339552965E0,-5.382908723E-1,1.011515230E1
3.879951167E0,2.313234526E0,5.303528677E0,-2.604086727E0,6.345056192E0
3.889916167E0,1.141870585E0,4.103132141E0,-2.958877939E0,5.185992717E0
3.899880917E0,3.733717920E0,2.881842334E0,-2.290529495E0,5.243299545E0
3.909844917E0,5.053958988E0,2.113894904E0,-1.808028077E0,5.768883657E0
3.919809917E0,4.911802066E0,1.220469589E0,-7.239241818E-1,5.112671686E0
3.929773917E0,3.502302666E0,-7.426022351E-1,4.997954357E-1,3.614882781E0
3.939738917E0,6.745733893E-1,-3.053901625E0,1.337902291E0,3.401668257E0
3.949703917E0,-7.652034777E-1,-4.309402906E0,1.129469225E0,4.520198060E0
3.959667917E0,-5.283526522E-1,-5.583331395E0,2.473363743E0,6.129459535E0
3.969632917E0,-8.529964972E-1,-6.174657975E0,3.999855402E0,7.406270814E0
3.979597917E0,-9.642473763E-1,-6.406926337E0,5.492080332E0,8.493610803E0
3.989561917E0,-8.272009206E-1,-5.898967604E0,5.170255430E0,7.887561180E0
3.999526917E0,-1.062965333E0,-5.076798213E0,3.525336895E0,6.271505052E0
4.009490917E0,-1.315577914E0,-4.568079049E0,1.103397953E0,4.880120745E0
4.019455917E0,-9.770428383E-1,-4.045568642E0,3.724705607E-2,4.162045854E0
4.029420917E0,-9.027422690E-1,-3.070490761E0,-1.939089907E0,3.742048474E0
4.039384917E0,-1.144708239E0,-1.937312646E0,-2.679352087E0,3.498923384E0
4.049349917E0,-9.171229112E-1,-9.730883664E-1,-1.452054266E0,1.973949592E0
4.059314917E0,-6.513692987E-1,-1.623991057E-1,1.081682563E0,1.273064256E0
4.069278917E0,-7.367567736E-1,6.006283307E-1,2.223813349E0,2.418452139E0
4.079243917E0,-1.197815575E0,7.144319580E-1,2.099622874E0,2.520633132E0
4.089207917E0,-3.780824844E0,1.339130060E0,1.665196094E0,4.342900395E0
4.099172917E0,-3.677934898E0,1.578984892E0,1.403344913E0,4.241435529E0
4.109137917E0,-4.132964051E0,1.431147400E0,8.647239652E-1,4.458399069E0
4.119101917E0,-4.170653449E0,1.381661098E0,1.621783733E-1,4.396548579E0
4.129066917E0,-3.751820900E0,1.657062909E0,-4.700272608E-1,4.128309966E0
4.139031917E0,-3.017049841E0,2.203963222E0,-1.067063062E0,3.885700349E0
4.148995917E0,-1.948793362E0,2.742668661E0,-5.968823120E-1,3.417059474E0
4.158960917E0,-1.485248909E0,2.972260754E0,1.177171688E0,3.525057658E0
4.168925917E0,-1.493788183E0,3.023442602E0,2.120680160E0,3.983703382E0
4.178889917E0,-1.262328490E0,3.028716790E0,2.393049312E0,4.061192389E0
4.188854917E0,-6.459688103E-1,2.974410190E0,2.213551486E0,3.763535819E0
4.198818917E0,-1.651926130E-1,2.828270437E0,1.226855772E0,3.087325274E0
4.208783917E0,-1.358602311E0,1.860122237E0,-2.768253154E-1,2.320018800E0
4.218748917E0,-1.309395068E0,1.460077961E0,-1.421297911E0,2.422071603E0
4.228712917E0,1.285573511E0,1.761617557E0,-6.528407505E-1,2.276443875E0
4.238677917E0,2.903099302E0,2.114683840E0,4.635026452E-1,3.621423477E0
4.248642917E0,2.913369936E0,1.501338985E0,-6.577225909E-2,3.278119754E0
4.258606917E0,2.873096654E0,5.266982191E-1,-2.026761889E0,3.555257959E0
4.268571917E0,1.451045621E0,-1.528650744E-1,-5.814811553E0,5.995075856E0
4.278535917E0,-1.346322573E0,-1.351642955E0,-9.096680621E0,9.294574841E0
4.288500917E0,-1.552849739E0,-2.122465168E0,-9.840630054E0,1.018598059E1
4.298465917E0,-4.094308108E-1,-5.599788895E-1,-6.370547301E0,6.408204339E0
4.308429917E0,1.688731429E0,2.693336580E0,2.077513382E0,3.797622628E0
4.318394917E0,4.521095209E0,1.296470967E0,1.805012814E-1,4.706773796E0
4.328359917E0,2.692519432E0,-6.903268115E-1,-2.891622387E0,4.010946525E0
4.338323917E0,1.965201234E0,-1.481144895E0,-2.612588578E0,3.589070237E0
4.348288917E0,2.824977577E0,-1.937242187E0,5.725827456E-2,3.425884428E0
4.358253917E0,2.771110103E0,-2.490080055E0,2.402682892E0,4.433106694E0
4.368217917E0,2.404267488E0,-3.541951759E0,3.661286706E0,5.633022701E0
4.378182917E0,2.985246250E0,-3.590928329E0,3.933862265E0,6.105876985E0
4.388146917E0,3.331535903E0,-2.527456335E0,3.771401471E0,5.631219766E0
4.398111917E0,3.320534366E0,-1.620847594E0,1.521915629E0,3.996163483E0
4.408076917E0,2.233745722E0,-1.264874514E0,-9.030451548E-1,2.721216279E0
4.418040917E0,1.771555485E0,-1.415738379E0,-1.368875284E0,2.648875900E0
4.428005917E0,1.189911309E0,-2.080230584E0,-1.178693426E-1,2.399404381E0
4.437969917E0,3.816132671E-1,-3.055140650E0,1.145933815E0,3.285221056E0
4.447934917E0,-1.040577514E0,-3.370978881E0,2.048913189E0,4.079748207E0
4.457899917E0,-1.714103082E0,-2.788866051E0,2.761267777E0,4.282583679E0
4.467863917E0,-1.328445881E0,-1.526064228E0,3.404863203E0,3.960648169E0
4.477828917E0,-7.663290668E-1,-8.874111620E-1,3.461644052E0,3.654823984E0
4.487793917E0,-8.809403408E-1,-8.832795194E-1,3.134944911E0,3.374035890E0
4.497757917E0,-1.085639082E0,-7.935298754E-1,2.752603666E0,3.063515761E0
4.507722917E0,-1.267817856E0,-7.922917275E-1,2.271416263E0,2.719268309E0
4.517687917E0,-1.916281673E0,-8.634459832E-1,1.273832156E0,2.457706813E0
4.527651917E0,-3.522830486E-1,-2.835970489E-1,5.664747441E-1,7.248615510E-1
4.537616917E0,1.767893958E-1,3.698969087E-1,8.011423655E-1,8.999485004E-1
4.547580917E0,-7.077738798E-1,2.537056622E-1,7.634475589E-1,1.071523496E0
4.557545917E0,-1.904497195E0,-1.269221206E-1,1.056614234E0,2.181662767E0
4.567510917E0,-2.887667915E0,-5.617312635E-1,1.231769918E0,3.189267178E0
4.577474917E0,-3.698654507E0,-7.676586505E-1,1.539852694E0,4.079275828E0
4.587439917E0,-4.398259242E0,-9.071221259E-1,1.637780400E0,4.780154762E0
4.597404917E0,-5.397255451E0,-8.618211150E-1,1.231660136E0,5.602685850E0
4.607368917E0,-6.706455806E0,-1.199130760E0,6.760645755E-1,6.846278359E0
4.617333917E0,-7.695725173E0,-1.845505367E0,8.353474076E-1,7.957881708E0
4.627297917E0,-7.411401388E0,-2.141834655E0,1.153882739E0,7.800498164E0
4.637262917E0,-6.382587887E0,-1.922423735E0,8.487525880E-1,6.719637052E0
4.647227917E0,-5.387045628E0,-1.734209611E0,7.738918555E-1,5.711974455E0
4.657191917E0,-2.767478397E0,-1.007567497E0,6.147305723E-1,3.008657943E0
4.667156917E0,-1.345617984E0,6.567768037E-2,5.591334186E-2,1.348379627E0
4.677121917E0,-1.329790741E0,3.383760309E-1,-8.000055206E-1,1.588348383E0
4.687085917E0,3.608316779E-2,3.672986984E-1,-7.086240649E-1,7.989733376E-1
4.697050917E0,4.570563823E-1,6.371088168E-1,-1.563523246E0,1.749117812E0
4.707014917E0,1.352168620E-1,2.948186597E-1,-2.793547039E0,2.812313407E0
4.716979917E0,2.411716256E0,8.419259638E-1,-2.888499974E0,3.855988424E0
4.726944917E0,2.562878475E0,1.488306418E0,-2.905914152E0,4.150631172E0
4.736908917E0,6.148744869E-1,7.259318233E-1,-1.195542762E0,1.527864570E0
4.746873917E0,2.664149911E0,1.273508659E0,-1.027745215E0,3.126624262E0
4.756838917E0,3.565211690E0,2.404329468E0,-2.225032786E0,4.841725466E0
4.766802917E0,4.128972741E0,3.678269944E0,-3.498993727E0,6.543778937E0
4.776767917E0,4.332765749E0,3.853795756E0,-3.566477612E0,6.807669448E0
4.786731917E0,6.036673626E0,4.123607336E0,-2.437365067E0,7.706251644E0
4.796696917E0,7.960837346E0,4.484671149E0,-1.662494388E0,9.287146717E0
4.806661917E0,8.862216629E0,4.590098786E0,-8.703849471E-1,1.001825636E1
4.816625917E0,9.381378043E0,3.678285146E0,-8.153111923E-1,1.010963738E1
4.826590917E0,8.185797858E0,2.442088155E0,-1.535830833E0,8.679277475E0
4.836554917E0,7.375474341E0,1.564081363E0,-1.752764872E0,7.740552755E0
4.846519917E0,6.074229122E0,5.175753567E-1,-2.089377383E0,6.444349582E0
4.856484917E0,4.253019667E0,-6.875702879E-1,-2.087346060E0,4.787268821E0
4.866448917E0,4.277318941E0,-9.957094896E-1,-2.724534253E-1,4.400127905E0
4.876413917E0,5.003902144E0,-1.329627603E0,2.354085513E0,5.687588666E0
4.886378917E0,5.695513735E0,-1.726355630E0,3.931909879E0,7.132958417E0
4.896343042E0,5.405406470E0,-2.146656708E0,4.345883392E0,7.260389561E0
4.906308042E0,4.382080581E0,-2.634355423E0,4.235076317E0,6.639151310E0
4.916272042E0,3.324394113E0,-2.800970956E0,3.833117663E0,5.795673001E0
4.926237042E0,2.505506764E0,-3.240865468E0,2.978551773E0,5.064834034E0
4.936202042E0,2.478971515E0,-3.843791755E0,2.069245273E0,5.020140519E0
4.946166042E0,2.865037436E0,-4.194901267E0,1.887416016E0,5.419222765E0
4.956131042E0,2.932232469E0,-4.417097216E0,1.926280997E0,5.640859292E0
4.966096042E0,2.592251962E0,-4.655453115E0,2.210764557E0,5.768924845E0
4.976060042E0,1.945470974E0,-4.271475234E0,1.847882699E0,5.044306538E0
4.986025042E0,6.928897923E-1,-3.345383571E0,1.108443807E0,3.591703659E0
4.995989042E0,-1.034665979E0,-2.289790115E0,6.322094348E-1,2.591015482E0
5.005954042E0,-2.702046300E0,-1.748443780E0,1.662547597E-1,3.222693052E0
5.015919042E0,-3.662860191E0,-1.404066167E0,1.035612059E-1,3.924114105E0
5.025883042E0,-4.142271649E0,-1.324428259E0,7.315319940E-1,4.409950531E0
5.035848042E0,-4.116737443E0,-1.260053338E0,1.528299619E0,4.568474725E0
5.045813042E0,-4.585919196E0,-7.199156962E-1,1.973086789E0,5.044006836E0
5.055777042E0,-5.769845295E0,-6.383112967E-1,1.993839142E0,6.137910928E0
5.065742042E0,-6.432966328E0,-8.072800416E-1,2.155341285E0,6.832294848E0
5.075706042E0,-5.725751442E0,-9.666736054E-1,2.579347742E0,6.353874582E0
5.085671042E0,-5.985228653E0,-1.120102717E0,2.855838012E0,6.725578256E0
5.095636042E0,-7.361370272E0,-1.368544917E0,2.943920469E0,8.045455562E0
5.105600042E0,-7.854212784E0,-1.565691540E0,2.514347169E0,8.394164052E0
5.115565042E0,-8.108157359E0,-1.577116999E0,2.240218590E0,8.558509983E0
5.125530042E0,-8.233916350E0,-1.746903039E0,2.737445344E0,8.851138667E0
5.135494042E0,-7.669396915E0,-1.917356684E0,3.449728011E0,8.625342257E0
5.145459042E0,-6.506127859E0,-1.929968251E0,3.400154732E0,7.590489403E0
5.155423042E0,-4.958831806E0,-1.768026105E0,2.389910527E0,5.781660792E0
5.165388042E0,-2.647312269E0,-1.666194798E0,6.355379623E-1,3.191923535E0
5.175353042E0,-9.155272061E-1,-1.352118041E0,-3.335359982E-1,1.666631190E0
5.185317042E0,-1.013630036E0,-1.055902920E0,-1.976762348E-1,1.476974177E0
5.195282042E0,-6.949626303E-1,-5.123391750E-1,-8.194229543E-2,8.672825535E-1
5.205246042E0,-1.379059380E0,-5.773485187E-1,2.468498567E-1,1.515279161E0
5.215211042E0,-3.185678278E0,-1.844337532E0,5.880439532E-1,3.727723529E0
5.225176042E0,-4.010271340E0,-3.234723261E0,3.372358239E-1,5.163277912E0
5.235140042E0,-3.734937065E0,-3.397349531E0,-1.448451504E0,5.252594642E0
5.245105042E0,-3.041450856E0,-3.205998814E0,-3.669966897E0,5.744345806E0
5.255070042E0,-1.721551850E0,-3.533638480E0,-4.852150526E0,6.244494087E0
5.265034042E0,2.283624226E-1,-3.369686646E0,-4.919382981E0,5.967182451E0
5.274999042E0,1.836811581E0,-2.140187056E0,-4.586961170E0,5.384653210E0
5.284963042E0,3.507197955E0,-1.457033170E0,-4.473352109E0,5.868071424E0
5.294928042E0,5.082492816E0,-9.385895017E-1,-4.760777256E0,7.026925612E0
5.304893042E0,7.594201722E0,9.867965788E-1,-5.432803014E0,9.389409772E0
5.314857042E0,9.715942858E0,1.485171726E0,-4.553037671E0,1.083214811E1
5.324822042E0,1.138669118E1,3.602048564E-1,-1.555209090E0,1.149805022E1
5.334787042E0,1.130650129E1,-1.060551603E0,7.793897000E-1,1.138284628E1
5.344751042E0,8.419723322E0,-2.190816634E0,9.560729688E-1,8.752456447E0
5.354716042E0,6.473395731E0,-2.554466670E0,5.897823304E-2,6.959427468E0
5.364680042E0,4.987195480E0,-2.334999617E0,5.670717448E-1,5.535875028E0
5.374645042E0,3.435526879E0,-2.388298742E0,8.402782184E-1,4.267655480E0
5.384610042E0,1.832350740E0,-2.420494096E0,6.381005046E-1,3.102172328E0
5.394574042E0,8.811800766E-1,-3.205897949E0,1.117993188E0,3.507729858E0
5.404539042E0,3.113595557E-1,-3.576871623E0,2.523654767E0,4.388597585E0
5.414503042E0,-6.162175924E-1,-3.373670939E0,3.482938735E0,4.887969103E0
5.424468042E0,-1.332364100E0,-2.666691111E0,4.007381061E0,4.994550885E0
5.434433042E0,-8.933317602E-1,-3.083404629E0,4.032012457E0,5.153886901E0
5.444397042E0,2.444855350E-1,-3.947270515E0,3.072503372E0,5.008092917E0
5.454362042E0,5.673354542E-1,-3.105282571E0,3.097962734E0,4.422897519E0
5.464327042E0,6.454659498E-1,-1.820722382E0,2.677242411E0,3.301406248E0
5.474291042E0,7.906517297E-1,-4.572364765E-1,1.179360008E0,1.491672009E0
5.484256042E0,4.054178667E-1,-9.677194530E-1,1.300254408E0,1.670780091E0
5.494220042E0,3.465118468E-2,-9.457526332E-1,7.115605366E-1,1.184046935E0
5.504185042E0,-1.052007651E-1,-4.525686443E-2,-4.199940982E-1,4.353279538E-1
5.514150042E0,-7.847594905E-1,6.682858783E-1,-1.364761183E0,1.710270903E0
5.524114042E0,-1.517920226E0,1.473633415E0,-1.499940477E0,2.593356645E0
5.534079042E0,-1.934570594E0,2.345712301E0,-5.980017614E-1,3.098795845E0
5.544043042E0,-1.684653581E0,2.916587074E0,5.673508032E-1,3.415614847E0
5.554008042E0,-3.419165200E-1,4.037388972E0,1.414824167E0,4.291753027E0
5.563973042E0,1.381621045E-1,5.904250563E0,1.753803630E0,6.160770297E0
5.573937042E0,2.266719925E-1,7.310542181E0,1.666608489E0,7.501532578E0
5.583902042E0,-4.983646220E-1,7.866601279E0,1.180632362E0,7.970299603E0
5.593867042E0,-2.450703735E0,7.736054589E0,9.315596867E-1,8.168249069E0
5.603831042E0,-4.107977729E0,7.339502270E0,1.184547366E0,8.493934722E0
5.613796042E0,-4.600803283E0,6.447149334E0,1.135798544E0,8.001447602E0
5.623760042E0,-3.937809720E0,4.787386181E0,7.863651359E-1,6.248502378E0
5.633725042E0,-3.360145744E0,3.100023585E0,5.213506114E-1,4.601361984E0
5.643690042E0,-1.645073193E0,1.182787061E0,2.442804439E-1,2.040814538E0
5.653654042E0,-9.972999322E-1,9.401375520E-1,9.337433293E-2,1.373748353E0
5.663619042E0,-3.358968115E-1,1.073365191E0,3.854591270E-1,1.188914732E0
5.673583042E0,-4.064984322E-3,1.704644626E0,2.782138829E-1,1.727203749E0
5.683548042E0,-9.131830573E-2,2.071626990E0,-1.064310193E-1,2.076368219E0
5.693513042E0,-2.207680589E-1,1.837498044E0,-6.428849888E-1,1.959193381E0
5.703477042E0,-8.677560389E-1,8.037395525E-1,-9.658585035E-1,1.527049593E0
5.713442042E0,-1.776752490E0,1.383784515E-1,-1.143376243E-1,1.785797048E0
5.723407042E0,-1.250788425E0,5.821721792E-2,1.100064674E0,1.666734297E0
5.733371042E0,-1.600663590E-1,-1.823729020E-1,6.053458643E-1,6.521692496E-1
5.743336042E0,4.822765929E-1,-9.940582359E-1,-4.551145220E-1,1.194935863E0
5.753300042E0,1.541153553E0,-1.339871340E0,-1.313938354E0,2.428341714E0
5.763265042E0,2.611485794E0,-1.596837757E0,-2.473200313E0,3.935285080E0
5.773230042E0,3.816344340E0,-1.643467548E0,-3.507281570E0,5.437508043E0
5.783194042E0,5.233971369E0,-1.358490044E0,-4.127252491E0,6.802511640E0
5.793159042E0,5.842705695E0,-1.138448210E0,-4.022464539E0,7.184253276E0
5.803123042E0,5.555658862E0,-8.668579066E-1,-3.288064778E0,6.513690045E0
5.813088042E0,4.757416862E0,-6.141658044E-1,-2.480347365E0,5.400216466E0
5.823053042E0,4.075588247E0,1.986772782E-1,-1.390819885E0,4.310947944E0
5.833017042E0,3.948757462E0,8.691155165E-1,-5.573484099E-1,4.081505179E0
5.842982042E0,4.139683086E0,6.281383109E-1,-5.249805629E-2,4.187396547E0
5.852947042E0,4.032441058E0,-3.118314260E-1,9.402205825E-2,4.045572873E0
5.862911042E0,3.795236476E0,-1.265973644E0,1.609276539E-1,4.004048812E0
5.872876042E0,3.943122500E0,-2.196057494E0,7.546182632E-1,4.576060783E0
5.882840042E0,3.855345268E0,-3.393443883E0,1.995809069E0,5.510208922E0
5.892805042E0,2.891783186E0,-4.353653172E0,2.719873291E0,5.891894149E0
5.902770292E0,1.583651701E0,-4.709684286E0,2.859300733E0,5.732772407E0
5.912734292E0,1.474012899E-1,-5.272139654E0,3.039268675E0,6.087227428E0
5.922699292E0,-1.512248427E0,-5.644386266E0,2.483710098E0,6.349394261E0
5.932663292E0,-2.408088643E0,-5.294315804E0,1.073666250E0,5.914510120E0
5.942628292E0,-2.395549874E0,-4.270155517E0,4.190243375E-1,4.914109150E0
5.952593292E0,-2.099364427E0,-2.969230726E0,-2.856547572E-2,3.636547551E0
5.962557292E0,-1.867655059E0,-2.241609058E0,-4.508764601E-1,2.952327246E0
5.972522292E0,-2.766752173E0,-1.918441635E0,8.018795532E-1,3.460974821E0
5.982486292E0,-3.799944069E0,-1.266013405E0,1.122835559E0,4.159702461E0
5.992451292E0,-4.211478124E0,-9.961182100E-1,3.877931893E-1,4.345018185E0
6.002416292E0,-4.132317349E0,-1.543900575E0,-5.201765271E-1,4.441875648E0
6.012380292E0,-3.375836163E0,-1.620165809E0,-6.181711471E-1,3.795173594E0
6.022345292E0,-2.001508934E0,-3.224335974E-1,-3.145994979E-1,2.051578486E0
6.032310292E0,-4.479663008E-1,1.304014460E0,-9.774112129E-1,1.690106564E0
6.042274292E0,4.246604687E-1,2.521034045E0,-1.523717741E0,2.976182945E0
6.052239292E0,5.837251997E-1,3.271533530E0,-1.192265983E0,3.530604044E0
6.062203292E0,-4.503057718E-2,3.377085713E0,2.669385508E-2,3.377491410E0
6.072168292E0,6.336311853E-1,4.143806543E0,1.742586039E0,4.539738676E0
6.082133292E0,3.057566952E0,5.352164648E0,1.047874693E0,6.252393418E0
6.092097292E0,4.151496801E0,6.191434221E0,4.087952185E-1,7.465647791E0
6.102062292E0,4.835000058E0,6.625420414E0,-7.834567308E-2,8.202411796E0
6.112026292E0,3.807657716E0,6.404347715E0,-3.144547793E-1,7.457399597E0
6.121991292E0,2.016570777E0,5.292141809E0,-8.437811391E-1,5.725843976E0
6.131956292E0,-4.929922003E-1,3.543034371E0,-1.040244077E0,3.725351205E0
6.141920292E0,-1.816912921E0,3.273785877E0,-2.374991794E0,4.433895867E0
6.151885292E0,5.073553008E-1,6.315430276E0,-1.431729783E0,6.495530706E0
6.161849292E0,8.598125964E-1,3.841038301E0,2.862767255E0,4.867061669E0
6.171814292E0,3.602931494E-1,7.869153589E-1,4.642319684E0,4.722306532E0
6.181779292E0,-1.232874895E0,-1.621725261E-1,3.965611184E0,4.156001985E0
6.191743292E0,-2.617244132E0,-7.608005244E-1,2.974101165E0,4.034112296E0
6.201708292E0,-3.216344585E0,-1.114815226E0,1.967344531E0,3.931682843E0
6.211673292E0,-3.894225159E0,-1.293774231E0,6.749356243E-1,4.158651157E0
6.221637292E0,-4.582534243E0,-1.011701040E0,1.453980339E-1,4.695135746E0
6.231602292E0,-4.875972083E0,-9.194886947E-1,-3.884510010E-2,4.962063296E0
6.241566292E0,-5.207715617E0,-1.160311826E0,-3.609378049E-1,5.347607089E0
6.251531292E0,-4.238862389E0,-1.398454594E0,-1.233677426E0,4.630938306E0
6.261496292E0,1.574093843E-1,-8.006884754E-3,-2.704153929E0,2.708743306E0
6.271460292E0,3.828796570E0,1.580845330E0,-3.244278196E0,5.261567841E0
6.281425292E0,4.785971739E0,2.097270832E0,-3.344255643E0,6.203879128E0
6.291389292E0,3.659103940E0,1.889420734E0,-2.368288400E0,4.750551789E0
6.301354292E0,2.143982191E0,1.314223406E0,-9.185911471E-1,2.677247185E0
6.311319292E0,1.131128080E0,1.067911493E0,-4.928205845E-1,1.631795888E0
6.321283292E0,8.529275000E-2,1.405396116E0,-1.076104027E0,1.772121038E0
6.331248292E0,-7.437576449E-1,1.191542390E0,-4.256375384E-1,1.467690708E0
6.341212292E0,-3.826184034E-1,1.389286745E-1,1.625501393E0,1.675694721E0
6.351177292E0,8.729770178E-1,-4.793892378E-1,2.586753241E0,2.771857724E0
6.361142292E0,3.446533678E0,-1.095598352E0,3.297198713E0,4.893919645E0
6.371106292E0,5.780417646E0,-2.205535538E0,4.926364557E0,7.908646086E0
6.381071292E0,5.110229083E0,-3.288933382E0,6.117986176E0,8.623298610E0
6.391035292E0,2.927131358E0,-4.230806387E0,6.146869082E0,8.015723311E0
6.401000292E0,2.892962569E-1,-5.166357091E0,5.052390765E0,7.231983847E0
6.410965292E0,-3.191885682E0,-5.916743724E0,1.042070893E0,6.803080350E0
6.420929292E0,-4.978707662E0,-6.407677705E0,-4.590714205E0,9.323117529E0
6.430894292E0,-3.465804931E0,-4.586397206E0,-3.185379193E0,6.572174963E0
6.440858292E0,-8.743224621E-1,-3.412853715E0,8.534215897E-2,3.524101805E0
6.450823292E0,4.661926568E-2,-3.618372528E0,2.669868780E0,4.496998156E0
6.460788292E0,-5.088527727E-1,-3.611037489E0,3.936910711E0,5.366357129E0
6.470752292E0,-1.671086871E0,-3.036365241E0,2.260409318E0,4.137812887E0
6.480717292E0,-2.786661943E0,-2.710563939E0,1.405907455E-1,3.890039512E0
6.490682292E0,-4.056148594E0,-2.806136971E0,-6.099625334E-1,4.969788769E0
6.500646292E0,-4.430279764E0,-3.095203725E0,-5.404408935E-1,5.431366425E0
6.510611292E0,-3.988548934E0,-3.626971151E0,4.489881018E-1,5.409716503E0
6.520575292E0,-3.134058473E0,-3.838452078E0,1.591394584E0,5.204668442E0
6.530540292E0,-2.404606626E0,-2.795630402E0,1.432027552E0,3.955803999E0
6.540505292E0,-3.398396475E0,-2.316292035E0,2.110533779E0,4.622624819E0
6.550469292E0,-4.624457610E0,-1.907609668E0,3.048430385E0,5.858114939E0
6.560434292E0,-4.336645961E0,-2.933255732E-1,3.415550744E0,5.527976570E0
6.570398292E0,-3.109694880E0,8.326370770E-1,3.429394319E0,4.703640307E0
6.580363292E0,-8.389327741E-1,1.874986882E0,3.096991804E0,3.716280700E0
6.590328292E0,2.061980839E0,4.137280465E0,1.318093532E0,4.806893507E0
6.600292292E0,4.020019233E0,5.415322763E0,-3.868263522E-1,6.755435581E0
6.610257292E0,5.261764355E0,5.371054662E0,-8.258081138E-1,7.564149083E0
6.620221292E0,4.977656917E0,4.791959873E0,-2.647131005E-1,6.914479072E0
6.630186292E0,3.066744157E0,3.419683848E0,1.337569292E0,4.784166485E0
6.640151292E0,8.620889175E-1,1.883357171E0,2.863894891E0,3.534420105E0
6.650115292E0,-1.523889649E-1,1.125782556E0,3.005350732E0,3.212902392E0
6.660080292E0,-3.018765414E-1,7.572933644E-1,1.561460495E0,1.761471420E0
6.670044292E0,-8.963606179E-2,6.613013792E-1,-2.216701381E-1,7.032011006E-1
6.680009292E0,9.345593083E-1,3.572631222E-1,-2.651208561E0,2.833715736E0
6.689974292E0,2.055559427E0,6.626181722E-2,-3.924687691E0,4.430901563E0
6.699938292E0,2.698897282E0,-5.540318692E-1,-3.756484054E0,4.658558822E0
6.709903292E0,3.625425440E0,-1.290457106E0,-3.002065181E0,4.880715574E0
6.719867292E0,3.849359181E0,-1.542076244E0,-1.685297359E0,4.476135882E0
6.729832292E0,3.934009322E0,-1.826028730E0,-2.850514707E-1,4.346500272E0
6.739797292E0,4.588974659E0,-2.048825188E0,8.558524235E-1,5.097926680E0
6.749761292E0,5.107635258E0,-1.624192786E0,6.806243804E-1,5.402702073E0
6.759726292E0,5.456294203E0,-9.235624498E-1,-2.149388234E-1,5.538078432E0
6.769690292E0,5.262637344E0,-1.175424832E-1,-7.217183197E-1,5.313195402E0
6.779655292E0,4.220429334E0,1.763455921E-1,-7.378261562E-1,4.288065877E0
6.789620292E0,4.558395475E0,-1.049254782E0,-1.782839295E0,5.005838677E0
6.799584292E0,4.135466659E0,-4.937950230E-1,-3.860916495E0,5.679136748E0
6.809549292E0,1.841736106E0,4.164445460E-1,-4.682513444E0,5.048895929E0
6.819514292E0,9.167557061E-1,-6.955438435E-2,-5.412328988E0,5.489861921E0
6.829478292E0,1.374367574E0,-6.995503557E-1,-4.916665195E0,5.152849073E0
6.839443292E0,1.351971276E0,-1.053640194E0,-3.525620778E0,3.920202272E0
6.849407292E0,1.333909227E0,-1.321202350E0,-1.671115522E0,2.513467041E0
6.859372292E0,1.349255537E0,-1.795768220E0,-3.608398275E-1,2.274967996E0
6.869336292E0,1.299980173E0,-2.429688842E0,2.228093219E-1,2.764594060E0
6.879301292E0,1.659630714E0,-3.095803649E0,3.272652614E-1,3.527814748E0
6.889266292E0,1.289813035E0,-2.960144153E0,-5.188811861E-2,3.229359604E0
6.899230708E0,7.183064693E-1,-1.947943761E0,3.013654947E-3,2.076164291E0
6.909195708E0,5.213541198E-1,-6.944369656E-1,2.340592186E-1,8.993533984E-1
6.919160708E0,-4.997907579E-3,-3.513539261E-1,1.878442148E-1,3.984469971E-1
6.929124708E0,-7.465043744E-1,-3.621543181E-1,4.828772481E-1,9.599973791E-1
6.939089708E0,-1.012773711E0,-4.585018140E-1,9.936841603E-1,1.491087762E0
6.949053708E0,-7.329835653E-1,-5.451651514E-1,9.275008419E-1,1.301817100E0
6.959018708E0,-1.055014582E0,-8.618252081E-1,1.018306785E0,1.700807798E0
6.968983708E0,-1.101874753E0,-1.198578637E0,1.942464920E0,2.534539147E0
6.978947708E0,-1.178290260E0,-1.884873354E0,2.586426089E0,3.410383470E0
6.988912708E0,-1.411453247E0,-2.103986067E0,2.798941680E0,3.775318816E0
6.998876708E0,-1.419897503E0,-2.093839393E0,2.897151807E0,3.846265840E0
7.008841708E0,-1.303123052E0,-1.695283819E0,2.436391067E0,3.241622795E0
7.018806708E0,-1.109842754E0,-1.144114746E0,1.906267293E0,2.484875145E0
7.028770708E0,-5.839169884E-1,-3.493541783E-1,9.833953996E-1,1.195856974E0
7.038735708E0,-1.064617172E-1,3.307898533E-1,4.616572639E-1,5.778264909E-1
7.048699708E0,3.533571821E-1,1.278717066E0,4.871522936E-1,1.413257227E0
7.058664708E0,9.140610167E-1,1.986742376E0,2.920777774E-1,2.206345902E0
7.068629708E0,1.657825971E0,1.798990620E0,-1.823750947E0,3.051363911E0
7.078593708E0,1.200804672E0,1.428291766E0,-2.147059727E0,2.844611520E0
7.088558708E0,-1.066668960E0,2.630490414E0,-2.046675021E0,3.499448689E0
7.098522708E0,-4.364228446E0,8.313349605E0,-3.604554096E0,1.005738941E1
7.108487708E0,-1.387720860E0,6.379934421E0,2.174249718E0,6.881620030E0
7.118452708E0,-1.433258391E0,4.294796269E0,2.413787632E0,5.130874715E0
7.128416708E0,-1.715119913E0,2.525674980E0,2.883539196E0,4.199460527E0
7.138381708E0,-2.278280455E0,1.677480801E0,2.834857618E0,4.005111907E0
7.148345708E0,-3.039792586E0,2.059693408E0,2.947331150E0,4.708443140E0
7.158310708E0,-3.937053090E0,3.228862304E0,2.301333103E0,5.587671507E0
7.168275708E0,-4.501927451E0,4.375184374E0,1.687247113E0,6.500491667E0
7.178239708E0,-4.877252623E0,3.871867161E0,1.832913827E0,6.491419071E0
7.188204708E0,-5.206596460E0,2.845653332E0,1.642638120E0,6.156675205E0
7.198168708E0,-5.113883593E0,1.635594272E0,1.718524455E0,5.637401913E0
7.208133708E0,-4.742144519E0,5.790497661E-1,1.898289352E0,5.140694091E0
7.218098708E0,-4.348757883E0,4.129876721E-1,1.629288050E0,4.662277715E0
7.228062708E0,-3.635417162E0,1.261720964E0,9.604425931E-1,3.966188057E0
7.238027708E0,-3.119677831E0,2.286607475E0,1.073572183E-1,3.869430073E0
7.247991708E0,-3.058355157E0,2.709581022E0,-7.282745102E-1,4.150391469E0
7.257956708E0,-1.999033223E0,1.987496667E0,-2.037726881E0,3.478305287E0
7.267921708E0,1.987224187E0,1.879879832E-2,-4.958215510E0,5.341658394E0
7.277885708E0,7.449405951E0,-3.748186271E0,-1.028918283E1,1.324423772E1
7.287850708E0,1.199612424E1,-6.181050736E0,-1.078604647E1,1.727573974E1
7.297814708E0,1.246073815E1,-5.926916125E0,-6.535797801E0,1.526810345E1
7.307779708E0,8.601559449E0,-4.751139291E0,-4.584194560E0,1.084320014E1
7.317744708E0,4.670375209E0,-2.754526815E0,-2.468600308E0,5.957668172E0
7.327708708E0,3.462346888E0,-9.920637506E-1,-1.966167486E0,4.103395062E0
7.337673708E0,4.344097945E0,3.694019419E-1,-2.154833162E0,4.863224311E0
7.347637708E0,5.371321880E0,2.367072179E0,-1.302925124E0,6.012631979E0
7.357602708E0,3.269956536E0,-1.309584517E0,5.089511229E0,6.189567990E0
7.367567708E0,8.812055120E-1,-4.178186417E0,9.824992261E0,1.071280719E1
7.377531708E0,-1.420077305E0,-4.628748296E0,1.093913360E1,1.196271600E1
7.387496708E0,-3.735699249E0,-4.589714624E0,8.483140469E0,1.034333609E1
7.397460708E0,-4.459871645E0,-3.726711786E0,4.546174794E0,7.378789948E0
7.407425708E0,-4.877385647E0,-2.789652793E0,-4.111387825E0,6.962367651E0
7.417390708E0,-6.504029878E0,-1.912026654E0,-4.577464999E0,8.179941100E0
7.427354708E0,-7.514881318E0,-3.212614646E0,1.207230762E-1,8.173671644E0
7.437319708E0,-6.399806768E0,-4.381659581E0,1.981106537E0,8.005076543E0
7.447283708E0,-4.273542225E0,-3.124294208E0,2.544010094E0,5.873360606E0
7.457248708E0,-2.341547036E0,-5.273019075E-1,3.325614135E0,4.101292382E0
7.467213708E0,-1.083303996E0,1.197948892E0,4.860817561E0,5.122126166E0
7.477177708E0,-9.530571212E-1,1.318054794E0,6.914020268E0,7.102764432E0
7.487142708E0,-1.177484514E0,1.898048301E0,8.122923918E0,8.424425803E0
7.497106708E0,-1.489554214E0,2.202412248E0,7.287635128E0,7.757513598E0
7.507071708E0,-2.213549001E0,2.571488500E0,4.817544365E0,5.892460097E0
7.517036708E0,-2.053696650E0,3.178990232E0,6.449467170E-1,3.839219334E0
7.527000708E0,-1.342847281E0,1.474410510E-1,-3.152985910E0,3.430203760E0
7.536965708E0,-5.625506777E-1,-2.526398866E0,-1.722107921E0,3.108827783E0
7.546929708E0,3.111027168E-1,-1.922739338E0,1.025005209E0,2.200987765E0
7.556894708E0,1.052705955E0,-1.767484653E0,2.319924910E0,3.100684346E0
7.566859708E0,2.244466007E0,-9.310392845E-1,2.246806648E0,3.309471547E0
7.576823708E0,3.423406186E0,9.529482168E-1,1.631616411E0,3.910241978E0
7.586788708E0,4.382277924E0,2.554479534E0,9.341125810E-1,5.157740960E0
7.596752708E0,3.540411310E0,3.108821306E0,9.656793594E-1,4.809554946E0
7.606717708E0,9.259658747E-1,2.505714925E0,1.383603251E0,3.008384623E0
7.616682708E0,-1.666674708E0,2.182194330E0,1.508448907E0,3.132921126E0
7.626646708E0,-3.673143690E0,1.918409475E0,1.307135119E0,4.345213654E0
7.636611708E0,-4.556782813E0,1.638202715E0,6.816513707E-1,4.890053817E0
7.646575708E0,-4.134668222E0,2.252426991E0,-2.540101377E-1,4.715233802E0
7.656540708E0,-3.344792125E0,2.570026696E0,-7.315486586E-1,4.281102080E0
7.666505708E0,-2.687743134E0,2.220505287E0,-4.476866578E-1,3.514972294E0
7.676469708E0,-2.294904090E0,1.147983849E0,1.126331609E-1,2.568489425E0
7.686434708E0,-1.704363960E0,-5.199355853E-1,7.668697880E-1,1.939917213E0
7.696398708E0,-6.695396675E-1,-2.584604389E0,4.947054344E-1,2.715363085E0
7.706363708E0,1.376208570E0,-3.352466596E0,-1.293895999E0,3.848005868E0
7.716328708E0,3.563708371E0,-2.651233996E0,-3.989725394E0,5.970508167E0
7.726292708E0,4.561410007E0,-1.963324277E0,-5.885029011E0,7.700303236E0
7.736257708E0,3.785526590E0,-2.178112974E0,-5.625361766E0,7.121733123E0
7.746221708E0,2.632049866E0,-2.685884596E0,-3.835563553E0,5.371518438E0
7.756186708E0,1.852724778E0,-2.617354644E0,-2.294905990E0,3.943314334E0
7.766151708E0,1.001182337E0,-3.114124730E0,-1.788655082E0,3.728193384E0
7.776115708E0,3.391700828E-1,-4.243391057E0,-2.052969841E0,4.726107191E0
7.786080708E0,3.087302090E-1,-4.349745478E0,-4.979691163E0,6.619133187E0
7.796044708E0,7.218528056E-1,-4.239548267E0,-5.559533812E0,7.028745065E0
7.806009708E0,1.186515831E0,-2.990984707E0,-4.819553468E0,5.794989644E0
7.815974708E0,9.244165818E-1,-2.888823910E0,-3.137938685E0,4.364230607E0
7.825938708E0,5.882945064E-1,-2.997088616E0,-2.698896990E0,4.075865008E0
7.835903708E0,-3.851275899E-2,-2.510462864E0,-2.816451167E0,3.773102729E0
7.845867708E0,-7.295124388E-1,-1.393261682E0,-2.569323276E0,3.012438980E0
7.855832708E0,-8.166202377E-1,-1.280893984E0,7.173232600E-2,1.520757554E0
7.865796708E0,9.140089034E-1,-1.438672913E0,1.588396571E0,2.329848856E0
7.875761708E0,2.611580811E0,-2.511366844E0,1.864999692E0,4.074989767E0
7.885726708E0,3.222082458E0,-3.459425034E0,1.252483825E0,4.890618842E0
7.895690708E0,3.154966654E0,-3.852483056E0,-5.766565007E-1,5.012780966E0
7.905654292E0,3.329130943E0,-3.334220944E0,-2.749480083E0,5.455252777E0
7.915618292E0,3.110357369E0,-2.971963715E0,-5.116038877E0,6.684365720E0
7.925583292E0,1.477741376E0,-2.905868543E0,-6.655316058E0,7.410871973E0
7.935548292E0,-1.891098739E0,-2.563393030E0,-4.160912572E0,5.240270193E0
7.945512292E0,-5.024468556E0,-2.228354005E0,3.127962166E-1,5.505332625E0
7.955477292E0,-6.098175225E0,-2.138913240E0,3.370040402E0,7.288337481E0
7.965441292E0,-5.413137658E0,-1.988573139E0,4.507776421E0,7.319599081E0
7.975406292E0,-4.805234222E0,-1.491355156E0,4.465491697E0,6.727186055E0
7.985371292E0,-5.180360588E0,-1.894485592E0,3.762302034E0,6.676835184E0
7.995335292E0,-5.468338882E0,-2.261129403E0,2.384782226E0,6.379860702E0
8.005300292E0,-4.978297187E0,-2.035799346E0,4.912947536E-1,5.400860338E0
8.015264292E0,-3.847356510E0,-1.653672109E0,-1.426523129E0,4.423997264E0
8.025229292E0,-2.849130379E0,-1.349277171E0,-2.603700811E0,4.088685695E0
8.035194292E0,-2.415667950E0,-9.582387775E-1,-2.055348927E0,3.313326487E0
8.045158292E0,-2.582559618E0,-4.919800472E-1,-8.268114960E-1,2.755952793E0
8.055123292E0,-2.314214665E0,1.989345556E-1,7.686166437E-1,2.446617261E0
8.065087292E0,-1.410973921E0,1.318490412E0,2.128397315E0,2.873906662E0
8.075052292E0,-3.288503319E-1,2.346858355E0,3.282144764E0,4.048254060E0
8.085017292E0,1.368076116E0,3.088908028E0,4.034280300E0,5.261977062E0
8.094981292E0,2.627541663E0,3.288041389E0,4.251660190E0,5.982625321E0
8.104946292E0,3.997685793E0,2.706117716E0,4.002081437E0,6.270663492E0
8.114910292E0,4.767768772E0,2.277289937E0,4.327624876E0,6.829788108E0
8.124875292E0,1.727882338E0,-6.628637552E-2,7.735245919E0,7.926159264E0
8.134840292E0,-7.839999372E-1,-1.215493462E0,1.087369740E1,1.096947471E1
8.144804292E0,-3.559253085E0,-3.085458755E-1,6.791238095E0,7.673617005E0
8.154769292E0,-4.700919895E0,1.235814291E0,1.991263443E0,5.252715004E0
8.164733292E0,-3.435392978E0,3.727846146E0,-1.539731218E0,5.298068896E0
8.174698292E0,-1.690500212E0,5.230952452E0,-2.662561222E0,6.108181954E0
8.184662292E0,-9.215211868E-4,5.773790996E0,-1.294826438E0,5.917198562E0
8.194627292E0,2.029743969E-1,6.093028505E0,6.065816733E-1,6.126510940E0
8.204592292E0,-1.167928117E0,6.805838007E0,1.573646238E0,7.082361862E0
8.214556292E0,-2.387078281E0,7.574077944E0,1.593014263E0,8.099536645E0
8.224521292E0,-2.741230831E0,8.078831234E0,1.061660527E0,8.597033422E0
8.234485292E0,-1.564754962E0,8.093596623E0,-3.783417499E-1,8.252145592E0
8.244450292E0,-7.909775658E-1,7.198694885E0,-9.450211465E-1,7.303418277E0
8.254415292E0,-1.186974545E0,6.279395056E0,-6.937680441E-1,6.428143195E0
8.264379292E0,-8.587938653E-1,5.734625761E0,-7.685477927E-1,5.849284164E0
8.274344292E0,2.374188825E-3,5.185930645E0,-2.338775456E0,5.688914917E0
8.284308292E0,2.827450950E0,2.648999190E0,-4.828226351E0,6.190593290E0
8.294273292E0,8.626019522E0,-2.369319849E0,-7.920061787E0,1.194777251E1
8.304238292E0,1.164969777E1,-8.976822640E0,-7.374501364E0,1.645241846E1
8.314202292E0,9.811789248E0,-1.564592117E1,-5.315342392E0,1.921767213E1
8.324167292E0,5.791201665E0,-1.703529212E1,-6.310382375E0,1.906725255E1
8.334131292E0,2.309028770E0,-1.456758234E1,-4.866501055E0,1.553154537E1
8.344096292E0,9.791547064E-1,-8.905957310E0,-2.370639858E0,9.267942214E0
8.354061292E0,9.078749549E-1,-1.959819456E0,-5.615958273E-3,2.159898325E0
8.364025292E0,3.851514173E-1,2.605256755E0,2.848797087E0,3.879606838E0
8.373990292E0,3.225309536E-2,4.651995072E0,5.339518290E0,7.081846791E0
8.383954292E0,-2.666143227E-1,4.593127643E0,4.998095859E0,6.793295737E0
8.393919292E0,-8.589460391E-1,1.857444066E0,1.921292152E0,2.807000230E0
8.403884292E0,-2.118729821E0,-2.794134099E0,-1.473104827E0,3.803450966E0
8.413848292E0,-1.819833751E0,-6.363193842E0,-2.179623894E0,6.967983286E0
8.423813292E0,-1.653968709E0,-6.738999070E0,1.796186003E0,7.167705708E0
8.433777292E0,-3.313212191E0,-5.305121459E0,4.462356420E0,7.683379044E0
8.443742292E0,-4.279766001E0,-3.074116327E0,4.606354630E0,6.998935004E0
8.453707292E0,-4.749416116E0,-6.600974375E-1,5.044357860E0,6.959757776E0
8.463671292E0,-6.088842484E0,8.928540426E-1,4.905451405E0,7.869856709E0
8.473636292E0,-7.712149417E0,1.479225107E0,3.838109723E0,8.740505809E0
8.483600292E0,-8.332378784E0,1.653488506E0,2.539051071E0,8.866190883E0
8.493565292E0,-6.799283863E0,2.028753451E0,2.176162050E0,7.421710240E0
8.503529292E0,-4.409939932E0,2.058211139E0,2.621469330E0,5.527739569E0
8.513494292E0,-1.883548375E0,1.575869642E0,3.245224568E0,4.069717694E0
8.523459292E0,4.583270553E-1,9.857657146E-1,3.391141542E0,3.561128851E0
8.533423292E0,1.943532037E0,-1.174647152E-2,2.959956458E0,3.541016378E0
8.543388292E0,2.495105737E0,-1.499754682E0,2.658265858E0,3.942232123E0
8.553352292E0,2.569113068E0,-2.435972260E0,2.536178334E0,4.355054919E0
8.563317292E0,2.543238847E0,-1.765386672E0,2.624747279E0,4.058811675E0
8.573282292E0,1.872341456E0,-3.619444031E-1,2.346132131E0,3.023409045E0
8.583246292E0,1.237705719E0,1.156814314E0,1.875742489E0,2.527557059E0
8.593211292E0,9.762309524E-1,2.799621127E0,1.212371049E0,3.203240373E0
8.603175292E0,1.664828888E0,4.271277598E0,-7.028248695E-1,4.637826037E0
8.613140292E0,1.642340497E0,4.832576387E0,-2.465632846E0,5.668370328E0
8.623105292E0,6.063957684E-1,4.618896908E0,-2.206865487E0,5.154821020E0
8.633069292E0,-4.221555215E-1,3.867948357E0,-8.363576603E-1,3.979790687E0
8.643034292E0,-9.753452455E-1,2.459606121E0,-8.636922240E-2,2.647342113E0
8.652998292E0,-5.860295143E-1,1.358255571E0,1.574111384E-1,1.487638079E0
8.662963292E0,-2.128287826E-1,9.988283944E-1,6.314677155E-1,1.200710510E0
8.672927292E0,-5.212289894E-1,6.686729640E-1,5.805531218E-1,1.027543244E0
8.682892292E0,-6.326908799E-1,3.249151558E-1,4.687595844E-2,7.127867588E-1
8.692857292E0,-8.858823343E-1,9.800576627E-2,-1.810625410E-1,9.094923223E-1
8.702821292E0,-1.330087194E0,2.547421360E-1,1.469749548E-1,1.362214057E0
8.712786292E0,-1.421697569E0,5.577764261E-1,-4.784309522E-1,1.600385795E0
8.722750292E0,-9.744699173E-1,6.641863954E-1,-1.685974467E0,2.057485137E0
8.732715292E0,-5.810341649E-1,4.842254698E-1,-2.432879083E0,2.547739319E0
8.742680292E0,-5.926169144E-1,1.896444994E-1,-2.549278436E0,2.624115163E0
8.752644292E0,-6.437806360E-1,-1.430638254E-1,-2.305826250E0,2.398281772E0
8.762609292E0,-4.989877159E-1,-5.462948334E-1,-2.362777984E0,2.475913284E0
8.772573292E0,-1.634290197E-1,-6.687694430E-1,-2.630850018E0,2.719436233E0
8.782538292E0,5.530452977E-1,-4.128379834E-1,-2.893239727E0,2.974412618E0
8.792503292E0,2.037460832E0,-9.367239475E-3,-3.132900724E0,3.737164880E0
8.802467292E0,3.889348289E0,-3.339105123E-1,-2.812247019E0,4.811159906E0
8.812432292E0,5.217987421E0,-1.260625196E0,-2.119025690E0,5.771207714E0
8.822396292E0,5.974793712E0,-2.228580877E0,-1.826274313E0,6.633250371E0
8.832361292E0,6.043507851E0,-3.103913738E0,-2.376544084E0,7.197654439E0
8.842326292E0,5.833968201E0,-3.357088235E0,-3.454568337E0,7.565663803E0
8.852290292E0,5.200638732E0,-3.230534608E0,-4.469163163E0,7.580001085E0
8.862255292E0,3.714168924E0,-3.076223663E0,-4.273887795E0,6.443936662E0
8.872219292E0,2.721121087E0,-3.046242650E0,-3.151771736E0,5.159240189E0
8.882184292E0,2.298798774E0,-3.014199908E0,-2.083430326E0,4.325570345E0
8.892148292E0,1.847706990E0,-2.965287949E0,-1.058742620E0,3.650738237E0
8.902113833E0,1.236149628E0,-3.119870204E0,-3.436953892E-1,3.373393324E0
8.912078833E0,7.738242470E-1,-3.156683689E0,-2.438742086E-1,3.259283742E0
8.922042833E0,4.402356970E-1,-3.282511677E0,-4.938704520E-1,3.348521824E0
8.932007833E0,-2.425609971E-1,-3.950114601E0,-6.989697272E-1,4.018805777E0
8.941971833E0,-6.603034057E-1,-4.924920294E0,-1.408586649E0,5.164780425E0
8.951936833E0,-8.522083656E-1,-5.590231694E0,-2.355979427E0,6.125976538E0
8.961901833E0,-1.682664358E0,-5.761936351E0,-2.596576563E0,6.540143707E0
8.971865833E0,-2.085902529E0,-5.801813777E0,-1.543129912E0,6.355570973E0
8.981830833E0,-1.548274877E0,-6.047151836E0,2.657677829E-2,6.242267757E0
8.991794833E0,-1.292239045E0,-6.529957602E0,1.747490684E0,6.882147319E0
9.001759833E0,-1.483668407E0,-6.821441887E0,2.968536662E0,7.585878411E0
9.011724833E0,-1.540607131E0,-6.661046330E0,3.070802125E0,7.494853850E0
9.021688833E0,-1.416130288E0,-6.186093374E0,2.066575581E0,6.674122479E0
9.031653833E0,-1.441481184E0,-5.609454415E0,3.077261690E-1,5.799874330E0
9.041617833E0,-2.148746649E0,-4.977071611E0,-5.197962753E-1,5.445965676E0
9.051582833E0,-2.768892839E0,-3.620046294E0,-4.842136292E-1,4.583226545E0
9.061546833E0,-2.204069349E0,-1.675463512E0,-3.921961427E-1,2.796232731E0
9.071511833E0,-1.027877800E0,4.290979207E-1,-2.713444278E-2,1.114178655E0
9.081476833E0,2.366119302E-1,2.381851602E0,6.095583446E-1,2.469972395E0
9.091440833E0,9.697175927E-1,3.640106336E0,1.454423704E0,4.038078090E0
9.101405833E0,7.294552092E-1,3.948939310E0,2.337449892E0,4.646493148E0
9.111369833E0,1.060801864E-1,4.294320306E0,3.131901435E0,5.316130782E0
9.121334833E0,-5.605340461E-1,4.686721686E0,3.312477780E0,5.766460580E0
9.131299833E0,-2.276144760E0,4.672574347E0,3.550961148E0,6.294689117E0
9.141263833E0,-2.791408128E0,5.618827502E0,3.409681016E0,7.140665688E0
9.151228833E0,-2.687494919E0,7.032645655E0,3.384589444E0,8.254464220E0
9.161192833E0,-2.661211100E0,8.302314740E0,3.912691543E0,9.556130476E0
9.171157833E0,-2.604991291E0,9.193842049E0,4.476336235E0,1.055226503E1
9.181122833E0,-2.909511359E0,9.786386604E0,4.865286881E0,1.130971421E1
9.191086833E0,-3.212776614E0,1.001642542E1,4.617067899E0,1.148773380E1
9.201051833E0,-3.284317297E0,1.010291159E1,3.705382898E0,1.125101885E1
9.211015833E0,-3.184145722E0,9.598276999E0,2.973853243E0,1.054084951E1
9.220980833E0,-2.924684006E0,8.469623460E0,2.673321561E0,9.350665552E0
9.230944833E0,-2.449317361E0,7.153518713E0,2.617547602E0,8.001471174E0
9.240909833E0,-2.227372842E0,6.218791589E0,2.474215682E0,7.053814702E0
9.250874833E0,-2.248013805E0,5.631685529E0,2.228309858E0,6.460248664E0
9.260838833E0,-2.435482117E0,5.045679331E0,1.585808447E0,5.822820750E0
9.270803833E0,-2.977757136E0,4.160562909E0,6.841791952E-1,5.161920423E0
9.280767833E0,-3.331555491E0,2.901336951E0,-1.023808577E0,4.534887220E0
9.290732833E0,-3.157058204E0,5.470982409E-1,-4.265504934E0,5.334872569E0
9.300697833E0,5.649300559E-1,-2.886195586E0,-1.025230561E1,1.066578836E1
9.310661833E0,8.622399511E0,-7.640633292E0,-1.471709447E1,1.869004869E1
9.320626833E0,1.330158414E1,-1.434819948E1,-1.113816346E1,2.251358821E1
9.330590833E0,1.247047494E1,-1.974466264E1,-6.027770655E0,2.411842588E1
9.340555833E0,8.678764915E0,-1.951575818E1,-4.318812245E0,2.179077596E1
9.350519833E0,5.900683762E0,-1.328306483E1,-3.520134920E0,1.495490656E1
9.360484833E0,3.278607491E0,-4.300252306E0,-3.255441700E0,6.311841066E0
9.370449833E0,2.033957473E0,1.610501531E0,-3.401747806E0,4.278152209E0
9.380413833E0,1.292675247E0,3.657982444E0,6.703771350E-1,3.937162730E0
9.390378833E0,4.782569245E-1,2.521353888E0,5.102026609E0,5.711097148E0
9.400342833E0,1.363176003E-1,-4.706464809E-1,6.815875922E0,6.833465825E0
9.410307833E0,-2.171704133E-1,-3.151945106E0,6.051143146E0,6.826291402E0
9.420272833E0,-1.818239947E-1,-5.417717198E0,2.350235122E0,5.908326728E0
9.430236833E0,-6.091342753E-1,-6.597109950E0,-1.794709581E0,6.863955619E0
9.440201833E0,-3.847928075E0,-5.349144561E0,-4.142833274E0,7.783505993E0
9.450165833E0,-7.452395048E0,-2.150519963E0,-2.488177371E0,8.145793680E0
9.460130833E0,-9.220617034E0,8.563089448E-1,2.767094528E0,9.664877424E0
9.470094833E0,-9.770454696E0,2.420190040E0,5.568903390E0,1.150355553E1
9.480059833E0,-1.020750191E1,2.273275239E0,5.180245982E0,1.167029665E1
9.490024833E0,-9.778626180E0,1.868539158E0,4.625391702E0,1.097757792E1
9.499988833E0,-8.095695773E0,2.155260301E0,4.842926836E0,9.676744151E0
9.509953833E0,-6.016592533E0,2.488049902E0,5.427275641E0,8.476148825E0
9.519917833E0,-4.360269589E0,2.149197907E0,5.822720497E0,7.585187968E0
9.529882833E0,-3.424309580E0,1.033439818E0,5.825566921E0,6.836016670E0
9.539847833E0,-2.849002617E0,-6.262128228E-1,5.553356813E0,6.272856630E0
9.549811833E0,-2.426406508E0,-2.727819657E0,5.047201946E0,6.229181014E0
9.559776833E0,-8.869635576E-1,-4.239963419E0,3.561843694E0,5.608094565E0
9.569740833E0,1.110959499E0,-4.705829217E0,1.093885556E0,4.957382902E0
9.579705833E0,2.639547751E0,-3.693866807E0,-9.251673643E-1,4.633335620E0
9.589670833E0,3.052883917E0,-1.830866717E0,-1.119213209E0,3.731596354E0
9.599634833E0,2.605261725E0,-7.328023016E-2,1.390922503E-1,2.610001016E0
9.609599833E0,1.838689268E0,1.129096758E0,8.220647994E-1,2.308988576E0
9.619563833E0,1.688284702E0,2.272142633E0,6.601588333E-1,2.906672851E0
9.629528833E0,2.069097923E0,3.490444513E0,1.716590488E-1,4.061260389E0
9.639492833E0,2.609102468E0,4.514263907E0,-3.817553544E-1,5.227975848E0
9.649457833E0,2.782116025E0,5.104899346E0,-6.341562653E-1,5.848275052E0
9.659422833E0,2.197607883E0,4.849615173E0,-3.040470096E-1,5.332981560E0
9.669386833E0,1.545456958E0,4.418115801E0,5.802309036E-1,4.716444884E0
9.679351833E0,7.678497814E-1,4.043482940E0,2.155908757E0,4.646212451E0
9.689315833E0,-2.536989562E-1,3.169795486E0,2.465936317E0,4.024028889E0
9.699280833E0,-8.571497744E-1,1.522783940E0,7.778586066E-1,1.912757349E0
9.709245833E0,-5.257495814E-1,9.286840260E-1,-1.238732636E-2,1.067248841E0
9.719209833E0,-9.987232907E-1,9.136484957E-1,4.003049883E-1,1.411540247E0
9.729174833E0,-1.660274492E0,5.973065275E-1,-6.728157163E-2,1.765733074E0
9.739138833E0,-2.526014411E0,2.366911966E-1,-1.033758564E0,2.739603675E0
9.749103833E0,-3.108856974E0,2.426413232E-1,-2.466553198E0,3.975896273E0
9.759067833E0,-2.906966066E0,5.327865958E-1,-4.281004441E0,5.202048855E0
9.769032833E0,-2.659624751E0,4.771357208E-1,-4.896508673E0,5.592589695E0
9.778997833E0,-1.793276575E0,2.698174274E-1,-3.929846982E0,4.328087293E0
9.788961833E0,-4.181992223E-1,-1.842802638E-1,-2.069895191E0,2.119744303E0
9.798926833E0,1.713336074E0,-1.196692910E0,-9.171679348E-1,2.282277687E0
9.808890833E0,4.495478850E0,-2.038437025E0,-9.473536009E-1,5.026135139E0
9.818855833E0,6.758296636E0,-2.356988656E0,-1.892877900E0,7.403577222E0
9.828820833E0,8.059278730E0,-2.605921583E0,-3.376542506E0,9.118324420E0
9.838784833E0,7.977729952E0,-2.728669258E0,-4.539301100E0,9.575754047E0
9.848749833E0,6.460383922E0,-2.405774315E0,-4.405589896E0,8.181291634E0
9.858713833E0,4.742509385E0,-2.156245556E0,-3.304272675E0,6.169198334E0
9.868678833E0,3.148254636E0,-2.146247987E0,-1.988091329E0,4.297719721E0
9.878642833E0,1.955493394E0,-2.105693454E0,-6.991965991E-1,2.957494754E0
9.888607833E0,1.822988032E0,-2.379910911E0,-1.738992633E-1,3.002915627E0
9.898572833E0,2.158440601E0,-3.052456486E0,-3.838909037E-1,3.758154953E0
9.908536792E0,2.361334453E0,-3.738072926E0,-5.411808586E-1,4.454432211E0
9.918501792E0,2.183982847E0,-4.151908445E0,-5.609918100E-1,4.724704924E0
9.928465792E0,1.814632799E0,-4.229567070E0,-8.722882158E-1,4.684337363E0
9.938430792E0,1.197572696E0,-4.088588946E0,-1.674847800E0,4.577756556E0
9.948395792E0,-2.645075709E-2,-4.055418862E0,-2.512463197E0,4.770701531E0
9.958359792E0,-1.485295102E0,-3.688041226E0,-3.038271140E0,5.003882607E0
9.968324792E0,-2.594743753E0,-2.867763993E0,-3.312855803E0,5.092325504E0
9.978288792E0,-3.010385769E0,-2.170948965E0,-3.506478748E0,5.105960742E0
9.988253792E0,-2.913483080E0,-1.700283773E0,-3.100871431E0,4.582003077E0
9.998217792E0,-2.748071196E0,-1.475621468E0,-1.482709463E0,3.453662023E0
1.000818279E1,-2.385794964E0,-1.620683287E0,5.355189997E-1,2.933498343E0
1.001814779E1,-2.362031295E0,-2.362014338E0,1.766083660E0,3.778538747E0
1.002811179E1,-2.803106944E0,-3.605924683E0,2.193987579E0,5.066920451E0
1.003807679E1,-3.361299984E0,-4.695817614E0,2.896998317E0,6.460777035E0
1.004804079E1,-3.431311913E0,-5.402248973E0,3.421479528E0,7.257046064E0
1.005800579E1,-2.996907645E0,-5.686167546E0,2.659513654E0,6.956074300E0
1.006796979E1,-2.394991611E0,-5.422066941E0,7.027145764E-1,5.968969970E0
1.007793479E1,-2.352108424E0,-4.860405040E0,-1.282689811E0,5.549886877E0
1.008789979E1,-2.306576009E0,-3.784478184E0,-2.132264371E0,4.918243524E0
1.009786379E1,-1.659939447E0,-2.037236592E0,-1.697086662E0,3.128231934E0
1.010782879E1,-5.138494378E-1,-3.448103070E-1,-5.321222059E-1,8.161430234E-1
1.011779279E1,2.309714794E0,2.128614539E0,4.155058340E0,5.208674697E0
1.012775779E1,2.071773025E0,1.955869077E0,2.812713920E0,4.003626719E0
1.013772279E1,-1.941880783E-1,5.561187404E-1,2.381392595E-1,6.353639667E-1
1.014768679E1,-8.282580972E-2,1.456036220E0,-6.737954172E-1,1.606518550E0
1.015765179E1,5.733079465E-1,2.241572805E0,1.371858241E0,2.689856070E0
1.016761579E1,-1.692084807E-1,2.299854342E0,2.756345591E0,3.593800568E0
1.017758079E1,-8.449296784E-1,2.310687479E0,3.489593743E0,4.269712786E0
1.018754479E1,-1.286769998E0,2.543801349E0,3.784058646E0,4.737700093E0
1.019750979E1,-1.822100717E0,3.428419588E0,3.754381396E0,5.400878777E0
1.020747479E1,-2.150884244E0,4.636569532E0,3.646413728E0,6.278567761E0
1.021743879E1,-2.363189774E0,5.837430922E0,3.726227052E0,7.317447213E0
1.022740379E1,-2.493127624E0,6.664604360E0,3.720009123E0,8.029390046E0
1.023736779E1,-2.616917565E0,7.253556971E0,3.759923094E0,8.579007399E0
1.024733279E1,-2.620677617E0,7.743401030E0,3.754322046E0,8.995729249E0
1.025729779E1,-2.373867229E0,8.214048096E0,3.700806575E0,9.316748416E0
1.026726179E1,-2.123990561E0,8.667905467E0,3.671654696E0,9.650127941E0
1.027722679E1,-1.932050298E0,8.912692718E0,3.597188066E0,9.803503038E0
1.028719079E1,-1.861590911E0,8.573102805E0,3.274379954E0,9.364036336E0
1.029715579E1,-2.003090460E0,7.460864155E0,2.557342916E0,8.137374768E0
1.030711979E1,-2.112852346E0,6.089970412E0,1.246859973E0,6.565557436E0
1.031708479E1,-1.954677269E0,4.879143028E0,-6.738822484E-1,5.299143062E0
1.032704979E1,-1.459142991E0,3.674866864E0,-3.023420675E0,4.977430794E0
1.033701379E1,-1.013679811E0,2.181503774E0,-5.845812321E0,6.321394400E0
1.034697879E1,6.580710118E-1,-7.155477530E-1,-9.694699924E0,9.743319386E0
1.035694279E1,6.391370405E0,-5.882571427E0,-1.135372107E1,1.429549734E1
1.036690779E1,9.445690983E0,-1.335886697E1,-1.049127079E1,1.943571886E1
1.037687179E1,8.171658121E0,-1.907256496E1,-6.795769687E0,2.183394642E1
1.038683679E1,5.837253751E0,-1.818878170E1,-3.653150890E0,1.944867149E1
1.039680179E1,5.288056945E0,-1.201954585E1,-1.961406391E0,1.327705328E1
1.040676579E1,3.654237303E0,-4.290841212E0,-8.476769927E-1,5.699414431E0
1.041673079E1,2.053751614E0,9.637439311E-1,6.724765778E-2,2.269629992E0
1.042669479E1,1.285463437E0,3.308930567E0,1.966002595E0,4.057906350E0
1.043665979E1,3.166369602E-2,2.228942235E0,2.564420678E0,3.397858073E0
1.044662479E1,-9.985244854E-1,-1.858173214E0,1.924516599E0,2.855454952E0
1.045658879E1,-1.926690887E0,-4.851978618E0,2.284889856E0,5.698645096E0
1.046655379E1,-2.183095386E0,-6.466486661E0,2.118076687E0,7.146160091E0
1.047651779E1,-1.788078547E0,-5.270062723E0,3.601161834E0,6.628661445E0
1.048648279E1,-2.514116789E0,-1.768750575E0,3.817341582E0,4.901158902E0
1.049644679E1,-5.341587619E0,9.512297201E-1,2.685567969E0,6.053897223E0
1.050641179E1,-8.703921976E0,1.945494363E0,2.542037244E0,9.273896669E0
1.051637679E1,-1.162328355E1,1.169247249E0,5.655739220E0,1.297903101E1
1.052634079E1,-1.178364929E1,1.384176278E-1,6.558610128E0,1.348661992E1
1.053630579E1,-9.446509008E0,-1.266255480E-1,4.733894098E0,1.056703931E1
1.054626979E1,-6.646970912E0,3.254449135E-1,4.045880299E0,7.788278635E0
1.055623479E1,-4.426888964E0,7.628926581E-1,4.371757029E0,6.268302053E0
1.056619879E1,-2.764431706E0,8.009755737E-1,4.880050223E0,5.665556875E0
1.057616379E1,-2.125813138E0,1.159421003E-1,5.308684752E0,5.719672881E0
1.058612879E1,-2.192810242E0,-1.312392935E0,4.975768851E0,5.593663168E0
1.059609279E1,-1.551517451E0,-2.710217199E0,3.258047512E0,4.513020857E0
1.060605779E1,-3.965326205E-1,-4.055996566E0,1.411095397E0,4.312717993E0
1.061602179E1,8.917150050E-1,-4.389137585E0,-1.044381420E-1,4.480021397E0
1.062598679E1,2.117528510E0,-2.475491252E0,2.192388658E-1,3.264973141E0
1.063595079E1,2.586534263E0,-2.596631527E-1,9.996867657E-1,2.785131608E0
1.064591579E1,2.660918447E0,1.181214160E0,6.934844542E-1,2.992770383E0
1.065588079E1,2.564921784E0,2.112351093E0,-1.189019608E-1,3.324904296E0
1.066584479E1,2.110741501E0,2.837185394E0,-1.085557513E-1,3.537885667E0
1.067580979E1,1.849107544E0,3.351963735E0,-1.241949335E-1,3.830180671E0
1.068577379E1,1.742484736E0,3.387659233E0,-6.335797298E-1,3.861853364E0
1.069573879E1,1.576372795E0,3.284420793E0,-8.328667995E-1,3.737116300E0
1.070570279E1,1.286031056E0,3.227998670E0,-3.785147909E-1,3.495300379E0
1.071566779E1,9.136296384E-1,3.046678852E0,4.430715966E-1,3.211430146E0
1.072563279E1,3.201770107E-1,2.518689896E0,1.052318723E0,2.748397134E0
1.073559679E1,-2.562604386E-2,1.969348664E0,1.246693035E0,2.330929938E0
1.074556179E1,-6.643379845E-2,1.481949910E0,1.163199474E0,1.885105302E0
1.075552579E1,-1.790208760E-1,1.155439634E0,6.641021955E-1,1.344663879E0
1.076549079E1,-3.581967033E-1,9.074369985E-1,-4.296457682E-1,1.065993560E0
1.077545579E1,-5.734237213E-1,9.106260699E-1,-1.198909004E0,1.611036127E0
1.078541979E1,-7.262089813E-1,1.082776285E0,-1.614174752E0,2.074932311E0
1.079538479E1,-6.253384448E-1,1.227907101E0,-1.708062324E0,2.194602680E0
1.080534879E1,-3.676285545E-1,1.081681686E0,-1.782669287E0,2.117332239E0
1.081531379E1,-7.261664428E-2,9.922455990E-1,-1.918228358E0,2.160885128E0
1.082527779E1,3.908164191E-1,1.007614421E0,-2.274023098E0,2.517777858E0
1.083524279E1,1.167471157E0,1.041234741E0,-1.993318886E0,2.533866387E0
1.084520779E1,1.583900500E0,8.224354398E-1,-1.416393852E0,2.278445169E0
1.085517179E1,2.192443330E0,6.152873003E-1,-1.025447990E0,2.497384591E0
1.086513679E1,2.760525473E0,4.316654330E-1,-1.002330438E0,2.968417464E0
1.087510079E1,2.940938096E0,-2.359889460E-1,-1.378857212E0,3.256693857E0
1.088506579E1,3.310632691E0,-1.034240887E0,-1.853430098E0,3.932575004E0
1.089502979E1,3.886653600E0,-1.878689924E0,-2.557411328E0,5.017559639E0
1.090499433E1,4.610143041E0,-2.579431357E0,-3.443637552E0,6.305991165E0
1.091495933E1,5.105665331E0,-2.974144142E0,-3.573886034E0,6.905506009E0
1.092492333E1,5.229516960E0,-3.491468945E0,-3.201375713E0,7.055991035E0
1.093488833E1,4.935424232E0,-4.118049558E0,-2.768397872E0,6.998626386E0
1.094485233E1,4.817744924E0,-4.389557415E0,-2.267439718E0,6.900736434E0
1.095481733E1,5.086892846E0,-4.469235084E0,-1.721545711E0,6.986720310E0
1.096478133E1,5.349851489E0,-4.721202716E0,-1.536631901E0,7.298760418E0
1.097474633E1,4.935126609E0,-4.908544582E0,-1.131966571E0,7.051994958E0
1.098471133E1,3.853799264E0,-4.877809278E0,-1.347566861E-1,6.217953963E0
1.099467533E1,2.472891872E0,-5.042797238E0,2.990172529E-1,5.624447485E0
1.100464033E1,1.133276640E0,-5.319362352E0,-7.249100223E-1,5.486841197E0
1.101460433E1,-4.077070516E-1,-5.365066529E0,-2.029044058E0,5.750407263E0
1.102456933E1,-1.832761361E0,-4.742249184E0,-2.872238283E0,5.839323101E0
1.103453333E1,-2.515119587E0,-3.566721441E0,-3.329282386E0,5.489212109E0
1.104449833E1,-2.469168073E0,-2.267553154E0,-3.596621178E0,4.916733893E0
1.105446333E1,-2.133176537E0,-1.216382239E0,-3.263859644E0,4.084459286E0
1.106442733E1,-2.116675986E0,-6.331914747E-1,-2.210092565E0,3.125021252E0
1.107439233E1,-2.149030969E0,-6.990866715E-1,-5.057034624E-1,2.315770341E0
1.108435633E1,-2.404207261E0,-1.258320224E0,1.518918931E0,3.109774439E0
1.109432133E1,-3.174406600E0,-2.295361342E0,2.665227553E0,4.738035337E0
1.110428533E1,-4.043470661E0,-3.378034131E0,3.172533152E0,6.150263098E0
1.111425033E1,-4.500676732E0,-4.121768972E0,2.570342445E0,6.622063937E0
1.112421533E1,-4.595587275E0,-4.554129054E0,9.924269358E-1,6.545565297E0
1.113417933E1,-4.827377627E0,-4.655774712E0,-7.378390932E-1,6.747163808E0
1.114414433E1,-4.577223217E0,-4.337282138E0,-1.806451668E0,6.559440247E0
1.115410833E1,-4.070326923E0,-2.924959118E0,-1.065163887E0,5.124209325E0
1.116407333E1,-3.399961774E0,-1.245660417E0,-7.256730840E-2,3.621695177E0
1.117403733E1,-1.728731939E0,5.223060465E-1,6.849238381E-1,1.931434282E0
1.118400233E1,1.250692750E-1,1.825630535E0,1.539582552E0,2.391418744E0
1.119396733E1,1.662201734E0,2.117372097E0,2.183906249E0,3.466356258E0
1.120393133E1,3.155977053E0,2.022785198E0,2.730004177E0,4.637324005E0
1.121389633E1,2.613431747E0,1.453031920E0,2.446848081E0,3.863727836E0
1.122386033E1,1.161049891E0,8.335317010E-1,1.908148781E0,2.384081315E0
1.123382533E1,1.717339662E-1,4.371547991E-1,1.855116582E0,1.913649499E0
1.124378933E1,-6.675039594E-1,8.600435615E-1,2.256605119E0,2.505494588E0
1.125375433E1,-8.713744421E-1,2.229875450E0,3.160133254E0,3.964603401E0
1.126371933E1,-1.263141545E0,3.877364128E0,4.011659177E0,5.720392338E0
1.127368333E1,-1.979528666E0,5.157940609E0,4.485095364E0,7.116106062E0
1.128364833E1,-2.494875064E0,6.041170719E0,4.426239630E0,7.893778722E0
1.129361233E1,-2.605281313E0,6.885037959E0,4.078280013E0,8.415676222E0
1.130357733E1,-2.494442663E0,7.723557919E0,3.718128074E0,8.927489429E0
1.131354133E1,-2.516296339E0,8.358618164E0,3.616388568E0,9.448624829E0
1.132350633E1,-2.537212706E0,8.788439385E0,3.616054107E0,9.836155878E0
1.133347133E1,-2.406232737E0,9.180630265E0,3.588694985E0,1.014655901E1
1.134343533E1,-2.070942428E0,9.214547040E0,3.380755133E0,1.003126039E1
1.135340033E1,-1.591765005E0,8.679091775E0,2.548709794E0,9.184567027E0
1.136336433E1,-1.412268202E0,7.702375211E0,8.416251245E-1,7.875875711E0
1.137332933E1,-1.202628564E0,6.802596896E0,-1.172511749E0,7.006884029E0
1.138329333E1,-6.885792980E-1,6.024512002E0,-2.856736729E0,6.702971807E0
1.139325833E1,-4.335235320E-1,4.753677567E0,-5.455957403E0,7.249335435E0
1.140322333E1,3.320402219E0,1.382437901E0,-1.006038713E1,1.068398777E1
1.141318733E1,1.235759561E1,-7.020266515E0,-1.486322692E1,2.056477147E1
1.142315233E1,1.180137220E1,-1.844166442E1,-1.106832899E1,2.453314654E1
1.143311633E1,5.727443626E0,-2.395717923E1,-3.305834466E0,2.485314042E1
1.144308133E1,1.098236615E0,-2.032185767E1,-3.948893702E-1,2.035534230E1
1.145304533E1,1.243305743E0,-1.156677723E1,-3.707649279E-1,1.163931318E1
1.146301033E1,1.137586476E0,-2.611462405E0,-9.491212142E-1,3.002443998E0
1.147297533E1,1.967743018E-1,2.823909876E0,7.070081869E-1,2.917712749E0
1.148293933E1,-1.619263583E0,5.389927720E0,3.219757897E0,6.483839626E0
1.149290433E1,-4.767445421E0,4.288481861E0,3.069181277E0,7.109112900E0
1.150286833E1,-7.753896782E0,-5.045503914E-2,8.890457511E-1,7.804861522E0
1.151283333E1,-8.535034508E0,-4.675137182E0,-2.978191292E0,1.017709905E1
1.152279733E1,-4.698362322E0,-6.958523426E0,-1.937343929E0,8.616783523E0
1.153276233E1,-2.716336822E-1,-5.187977756E0,3.660870676E0,6.355381354E0
1.154272733E1,-1.129131403E0,-2.143796250E0,5.450252860E0,5.964566733E0
1.155269133E1,-5.374639590E0,-2.211007655E-2,5.702528640E0,7.836202682E0
1.156265633E1,-7.415782122E0,6.496946561E-1,5.758093561E0,9.411246946E0
1.157262033E1,-7.622830859E0,1.153100163E-1,4.701269266E0,8.956717000E0
1.158258533E1,-6.852443240E0,-2.910533452E-1,3.583105924E0,7.738174104E0
1.159254933E1,-5.507236315E0,7.960282445E-2,3.543964370E0,6.549478750E0
1.160251433E1,-4.103360767E0,6.817373979E-1,4.514405117E0,6.138582005E0
1.161247933E1,-2.711714964E0,9.916199470E-1,5.473030103E0,6.187953351E0
1.162244333E1,-1.458849607E0,8.365108573E-1,5.690329009E0,5.933619201E0
1.163240833E1,-7.088502060E-1,1.764040643E-1,5.582819763E0,5.630405271E0
1.164237233E1,-3.414901118E-1,-1.092371566E0,5.113067322E0,5.239594314E0
1.165233733E1,2.627861506E-1,-2.646072659E0,3.807781677E0,4.644346927E0
1.166230133E1,7.910708289E-1,-3.292655427E0,2.308386161E0,4.098294704E0
1.167226633E1,9.390737242E-1,-2.812592590E0,1.144439413E0,3.178408109E0
1.168223133E1,1.608412905E0,-1.155099326E0,4.995498526E-1,2.042252820E0
1.169219533E1,2.530313284E0,8.609031022E-1,-2.721761942E-2,2.672897354E0
1.170216033E1,2.738251382E0,2.368229343E0,-2.324899721E-1,3.627751706E0
1.171212433E1,2.638763347E0,3.307906135E0,-4.038462082E-1,4.250694856E0
1.172208933E1,2.483197882E0,3.906690838E0,-7.041217089E-1,4.682338348E0
1.173205333E1,2.040891394E0,4.142465776E0,-8.956402409E-1,4.703980424E0
1.174201833E1,1.335562235E0,3.869449922E0,-1.036891429E0,4.222737621E0
1.175198333E1,5.357496724E-1,3.320474725E0,-1.289941381E0,3.602294946E0
1.176194733E1,-4.530951130E-1,2.510725404E0,-1.125670874E0,2.788578877E0
1.177191233E1,-1.421955138E0,1.907589203E0,7.802290678E-2,2.380533670E0
1.178187633E1,-1.878405164E0,1.689833629E0,1.409846724E0,2.893373713E0
1.179184133E1,-2.161636835E0,1.184410248E0,1.187932611E0,2.736180793E0
1.180180533E1,-1.962885444E0,1.108962455E0,9.052530634E-1,2.429444402E0
1.181177033E1,-1.627680943E0,1.218691304E0,-1.729493100E-2,2.033433761E0
1.182173433E1,-1.434618746E0,1.240458734E0,-1.361179764E0,2.334454790E0
1.183169933E1,-7.959558121E-1,1.325250962E0,-2.456257421E0,2.902246765E0
1.184166433E1,1.569685042E-2,1.207593289E0,-3.138087789E0,3.362457868E0
1.185162833E1,3.694443342E-1,5.671015656E-1,-3.331795519E0,3.399846273E0
1.186159333E1,9.682796162E-1,4.573282778E-2,-3.035342855E0,3.186371471E0
1.187155733E1,1.473083338E0,-1.266524452E-1,-2.477724888E0,2.885331174E0
1.188152233E1,2.066357918E0,-3.418919617E-1,-1.938148360E0,2.853619495E0
1.189148633E1,3.432550938E0,-7.204933280E-1,-1.661836576E0,3.881136095E0
1.190145133E1,5.064589226E0,-1.395178984E0,-1.820019547E0,5.559591674E0
1.191141692E1,6.313742770E0,-2.237314863E0,-2.608165745E0,7.188285895E0
1.192138092E1,6.220134695E0,-2.746897953E0,-3.643666121E0,7.714390889E0
1.193134592E1,4.795112692E0,-2.521084916E0,-3.828350428E0,6.633644690E0
1.194130992E1,3.558399684E0,-2.053593008E0,-3.011579186E0,5.094022158E0
1.195127492E1,3.045509116E0,-1.748633230E0,-2.539260401E0,4.333669038E0
1.196123892E1,3.312856387E0,-1.479574186E0,-2.651349771E0,4.493752644E0
1.197120392E1,3.969301654E0,-1.603498321E0,-2.777716872E0,5.103163088E0
1.198116892E1,4.410672880E0,-2.340762632E0,-2.286205772E0,5.491806787E0
1.199113292E1,4.448672765E0,-3.159151214E0,-9.984418935E-1,5.546874073E0
1.200109792E1,4.088711153E0,-3.637289733E0,2.731193501E-1,5.479236231E0
1.201106192E1,3.297283206E0,-3.665766258E0,8.427615309E-1,5.002016173E0
1.202102692E1,1.946849163E0,-3.763686070E0,1.369400364E-1,4.239611665E0
1.203099092E1,1.703478107E-1,-3.935715832E0,-1.307903589E0,4.150841997E0
1.204095592E1,-1.196076467E0,-4.194232931E0,-2.452973624E0,5.003925298E0
1.205091992E1,-2.542591852E0,-4.037358567E0,-3.568197863E0,5.957942053E0
1.206088492E1,-3.566116839E0,-3.243156407E0,-3.715050684E0,6.085791188E0
1.207084992E1,-3.527250981E0,-2.716439222E0,-2.789234717E0,5.253605604E0
1.208081392E1,-2.918140972E0,-2.364805799E0,-1.138164035E0,3.924700061E0
1.209077892E1,-2.309109900E0,-2.314547811E0,6.574001169E-1,3.334860569E0
1.210074292E1,-1.859991405E0,-2.861521506E0,2.096895733E0,4.005601711E0
1.211070792E1,-1.681246408E0,-3.837425306E0,1.658554534E0,4.505910076E0
1.212067192E1,-1.683538955E0,-4.839158598E0,1.655691737E0,5.384521750E0
1.213063692E1,-1.903394995E0,-5.532106862E0,1.902975165E0,6.152108038E0
1.214060192E1,-2.712169000E0,-5.897423939E0,2.169197724E0,6.844040369E0
1.215056592E1,-3.630478896E0,-5.856516234E0,1.027534569E0,6.966705584E0
1.216053092E1,-4.187183527E0,-5.194238954E0,-5.546623452E-1,6.694794584E0
1.217049492E1,-4.127816747E0,-3.794427806E0,-1.315537860E0,5.759096573E0
1.218045992E1,-3.334120080E0,-2.016732745E0,-1.727332846E0,4.262305296E0
1.219042392E1,-1.801388417E0,-1.410582304E-1,-9.101224785E-1,2.023170922E0
1.220038892E1,-3.337196738E-1,1.299614430E0,2.496305001E-1,1.364801038E0
1.221035392E1,5.774665593E-1,1.977794967E0,9.904073806E-1,2.286054972E0
1.222031792E1,1.230197748E0,2.260701386E0,1.632379765E0,3.047756709E0
1.223028292E1,1.567382408E0,2.378259657E0,2.072478930E0,3.522495639E0
1.224024692E1,1.210716068E0,2.366113236E0,2.638744344E0,3.745303319E0
1.225021192E1,5.155281003E-1,2.236195706E0,3.310849038E0,4.028406858E0
1.226017592E1,-5.811820994E-1,2.119287645E0,3.997665328E0,4.561850593E0
1.227014092E1,-9.880021285E-1,2.253978258E0,4.599188575E0,5.216234441E0
1.228010592E1,-6.429607102E-1,2.696380933E0,4.613739371E0,5.382421350E0
1.229006992E1,-1.091708199E0,3.425907624E0,4.590699587E0,5.831225647E0
1.230003492E1,-2.081352518E0,4.522228984E0,4.639330587E0,6.804849123E0
1.230999892E1,-2.723716374E0,5.700666302E0,4.554347155E0,7.788344187E0
1.231996392E1,-2.948659052E0,6.582378475E0,4.541677993E0,8.523446227E0
1.232992792E1,-3.251107159E0,7.334951967E0,4.515494746E0,9.206568900E0
1.233989292E1,-3.400780092E0,8.014129454E0,4.266664145E0,9.695153380E0
1.234985692E1,-3.385678781E0,8.640833443E0,3.894836778E0,1.006462006E1
1.235982192E1,-3.658682941E0,8.973047093E0,3.730619481E0,1.038359556E1
1.236978692E1,-4.159872937E0,8.604942064E0,3.561486137E0,1.019969383E1
1.237975092E1,-4.506888229E0,7.479810888E0,3.061702688E0,9.253844378E0
1.238971592E1,-4.446521282E0,6.306036140E0,2.213981549E0,8.027412884E0
1.239967992E1,-4.332037185E0,5.278908976E0,8.640032959E-1,6.883307914E0
1.240964492E1,-4.537576171E0,4.022917113E0,-1.108613377E0,6.164615416E0
1.241960892E1,-4.525471265E0,1.841571799E0,-4.766688499E0,6.825876948E0
1.242957392E1,-1.629120089E0,-1.995019695E0,-1.268265987E1,1.294156085E1
1.243953892E1,5.697883027E0,-7.741766149E0,-1.830589325E1,2.067623132E1
1.244950292E1,1.162323327E1,-1.421602201E1,-1.179618104E1,2.182532292E1
1.245946792E1,1.204439535E1,-1.805051844E1,-3.242348030E0,2.194086361E1
1.246943192E1,8.847410309E0,-1.703714451E1,-1.007216810E0,1.922382501E1
1.247939692E1,5.644824808E0,-1.195396816E1,-1.278534633E0,1.328141757E1
1.248936092E1,4.688754178E0,-4.509175660E0,-1.802840720E0,6.750356697E0
1.249932592E1,3.313225639E0,1.290022073E0,-1.016873194E0,3.698060597E0
1.250929092E1,1.920956522E0,4.119244144E0,6.986156783E-1,4.598511731E0
1.251925492E1,2.402734932E-1,4.421315398E0,3.029612876E0,5.365101618E0
1.252921992E1,-1.976549510E0,2.522968889E0,4.743409564E0,5.724688138E0
1.253918392E1,-3.687964627E0,2.139864582E-1,3.799857531E0,5.299602867E0
1.254914892E1,-5.323320917E0,-2.838388166E0,4.873920295E-1,6.052416374E0
1.255911292E1,-6.174216510E0,-6.940939679E0,-2.910573213E0,9.734938601E0
1.256907792E1,-3.644470698E0,-8.251879581E0,-2.120194256E0,9.266655652E0
1.257904192E1,-1.141952373E0,-5.588986237E0,4.425093868E-1,5.721593916E0
1.258900692E1,-3.763757698E0,-2.045776450E0,3.112380798E0,5.295090889E0
1.259897192E1,-6.397214112E0,5.788714260E-1,3.831517864E0,7.479302753E0
1.260893592E1,-7.137974474E0,1.184700855E0,4.222068308E0,8.377353789E0
1.261890092E1,-7.179199099E0,7.771639574E-1,4.687268400E0,8.609028318E0
1.262886492E1,-6.540322376E0,9.063377219E-1,4.641912718E0,8.071221626E0
1.263882992E1,-5.514644737E0,1.408220614E0,4.482441898E0,7.244768957E0
1.264879392E1,-4.393426518E0,1.965308238E0,4.562854269E0,6.632063941E0
1.265875892E1,-3.284045109E0,2.178974268E0,4.575187509E0,6.038644043E0
1.266872392E1,-2.501271626E0,1.677864963E0,4.356353124E0,5.296168721E0
1.267868792E1,-2.235915624E0,6.037454814E-1,4.133433290E0,4.738047915E0
1.268865292E1,-2.186763929E0,-9.400714785E-1,3.650733651E0,4.358156383E0
1.269861692E1,-1.363929709E0,-2.354644507E0,2.605664306E0,3.767511311E0
1.270858192E1,4.012071405E-1,-2.838078849E0,1.242780225E0,3.124125703E0
1.271854592E1,2.250697531E0,-2.348646433E0,3.545530839E-1,3.272229719E0
1.272851092E1,2.975064201E0,-1.149321107E0,1.589555342E-1,3.193307513E0
1.273847492E1,2.867840299E0,3.384432739E-1,5.125881203E-1,2.932882271E0
1.274843992E1,2.538064353E0,1.689449467E0,8.113621290E-1,3.155046540E0
1.275840492E1,2.174551873E0,2.781942070E0,1.004942316E0,3.671210507E0
1.276836892E1,2.037661392E0,3.907083187E0,1.042882560E0,4.528241050E0
1.277833392E1,1.534073744E0,4.417529325E0,-2.186156988E-2,4.676368840E0
1.278829792E1,1.139457512E0,4.207878578E0,-2.334760466E0,4.945271679E0
1.279826292E1,8.444176085E-1,3.886615008E0,-3.053045300E0,5.013970774E0
1.280822692E1,-4.917401652E-1,3.750951419E0,-6.936996317E-1,3.846123258E0
1.281819192E1,-1.720336068E0,2.838517975E0,8.035477638E-2,3.320120084E0
1.282815692E1,-1.458836305E0,1.272763431E0,-4.464343303E-1,1.986814971E0
1.283812092E1,-2.772937504E-1,7.940980786E-1,4.710335666E-1,9.640312253E-1
1.284808592E1,1.312058182E-1,7.863084179E-1,1.257882852E0,1.489216292E0
1.285804992E1,6.341860861E-2,7.029756546E-1,1.153296044E0,1.352142173E0
1.286801492E1,2.712153505E-1,8.722958171E-1,1.931252738E-1,9.336782799E-1
1.287797892E1,7.851382439E-1,1.200128734E0,-1.228932118E0,1.888656980E0
1.288794392E1,8.778234825E-1,1.343583738E0,-2.572096025E0,3.031743606E0
1.289790892E1,1.125596907E0,9.774305087E-1,-4.249867433E0,4.503744220E0
1.290787304E1,1.166419681E0,2.660787177E-1,-5.280262606E0,5.414102506E0
1.291783804E1,9.622758414E-1,-2.336366111E-1,-4.239466406E0,4.353577411E0
1.292780204E1,1.503141974E0,-2.862767547E-1,-2.400512259E0,2.846726064E0
1.293776704E1,2.760211478E0,-4.599203485E-1,-1.468588584E0,3.160228877E0
1.294773104E1,3.824381922E0,-1.070317622E0,-1.214929790E0,4.153014724E0
1.295769604E1,4.471311430E0,-1.767530846E0,-1.395296367E0,5.006360270E0
1.296766004E1,4.914401153E0,-2.258113409E0,-1.758066689E0,5.686933563E0
1.297762504E1,5.212170610E0,-2.467715625E0,-2.233484936E0,6.184237854E0
1.298759004E1,5.113060305E0,-2.549761416E0,-2.752345219E0,6.341929767E0
1.299755404E1,4.509829963E0,-2.710315433E0,-3.318709450E0,6.220788411E0
1.300751904E1,3.768803845E0,-2.981802240E0,-3.393709931E0,5.883221407E0
1.301748304E1,3.406567082E0,-3.616115211E0,-2.693861075E0,5.651360543E0
1.302744804E1,3.398071370E0,-4.357175535E0,-1.757477143E0,5.798326792E0
1.303741204E1,3.472418132E0,-4.737846816E0,-9.058665825E-1,5.943523736E0
1.304737704E1,3.403274807E0,-5.175350693E0,-2.323513931E-1,6.198428945E0
1.305734204E1,2.964501206E0,-5.458089298E0,2.420267808E-1,6.215913702E0
1.306730604E1,1.744568392E0,-5.557359232E0,3.059906423E-1,5.832785851E0
1.307727104E1,6.981372298E-1,-5.327106405E0,-9.085602486E-1,5.448939343E0
1.308723504E1,1.677880459E-1,-4.636766583E0,-2.602419686E0,5.319806895E0
1.309720004E1,-5.448409232E-1,-3.517213066E0,-3.920790814E0,5.295303579E0
1.310716404E1,-1.085730152E0,-2.354535749E0,-4.624969241E0,5.302168333E0
1.311712904E1,-1.278128105E0,-1.749991538E0,-4.142547637E0,4.675123823E0
1.312709404E1,-1.605024736E0,-1.441491271E0,-2.318256115E0,3.166751159E0
1.313705804E1,-1.732086779E0,-1.089030467E0,2.831128263E-1,2.065493849E0
1.314702304E1,-1.607614614E0,-1.091076407E0,3.407987078E0,3.922913254E0
1.315698704E1,-2.241512871E0,-2.182991890E0,1.918569689E0,3.670251108E0
1.316695204E1,-2.901723745E0,-3.041599376E0,1.640733390E0,4.512575042E0
1.317691604E1,-3.527002475E0,-3.788443766E0,2.029080895E0,5.559606272E0
1.318688104E1,-3.981312127E0,-4.636357278E0,2.088448845E0,6.458194302E0
1.319684604E1,-4.131079493E0,-5.107998371E0,1.387037905E0,6.714263868E0
1.320681004E1,-4.075739982E0,-4.921531833E0,-2.488200760E-1,6.394923253E0
1.321677504E1,-4.319538470E0,-4.246866642E0,-1.414238860E0,6.220479115E0
1.322673904E1,-3.882111775E0,-2.761136507E0,-1.269611636E0,4.930170418E0
1.323670404E1,-2.543156986E0,-6.817151785E-1,-2.091563657E-1,2.641236344E0
1.324666804E1,-1.026645573E0,1.111966170E0,9.063396223E-1,1.764063890E0
1.325663304E1,2.114628730E-1,2.312915853E0,1.996187968E0,3.062525542E0
1.326659704E1,1.044752865E0,2.939369581E0,2.521943872E0,4.011434030E0
1.327656204E1,6.148928326E-1,3.501063641E0,3.196449434E0,4.780463241E0
1.328652704E1,1.271037187E0,3.366996342E0,2.215230806E0,4.226043945E0
1.329649104E1,1.177412374E0,2.796717399E0,1.751857384E0,3.503845374E0
1.330645604E1,5.383250785E-1,2.325324229E0,2.114630630E0,3.188822567E0
1.331642004E1,4.422793720E-1,1.770590694E0,2.337208695E0,2.965324085E0
1.332638504E1,-4.237480838E-1,1.920661238E0,3.388425218E0,3.917898351E0
1.333634904E1,-9.422343636E-1,2.921061364E0,4.037217356E0,5.071442504E0
1.334631404E1,-1.514197158E0,4.452844754E0,4.626551205E0,6.597393083E0
1.335627904E1,-1.901511899E0,6.013474213E0,4.499343567E0,7.747368079E0
1.336624304E1,-1.914891205E0,7.621929218E0,4.379734385E0,8.996815360E0
1.337620804E1,-1.789807568E0,8.882676621E0,4.176054229E0,9.977213239E0
1.338617204E1,-2.080287448E0,9.644125017E0,3.883080366E0,1.060259668E1
1.339613704E1,-2.535411764E0,9.963084784E0,3.660775659E0,1.091295788E1
1.340610104E1,-2.629847513E0,9.900444732E0,3.400628357E0,1.079347845E1
1.341606604E1,-2.636417152E0,9.528033228E0,3.113164325E0,1.036464687E1
1.342603004E1,-2.361074398E0,8.629664676E0,1.876717950E0,9.141545548E0
1.343599504E1,-2.021250450E0,7.477320558E0,-2.495954168E-1,7.749714446E0
1.344596004E1,-1.772518521E0,6.471134028E0,-1.961332716E0,6.990294953E0
1.345592404E1,-2.154946159E0,4.937158517E0,-3.961556432E0,6.686797180E0
1.346588904E1,-1.122473324E0,1.783789029E0,-9.847887619E0,1.007088577E1
1.347585304E1,7.652214287E0,-5.985616323E0,-1.527074043E1,1.809915742E1
1.348581804E1,1.162783269E1,-1.893902625E1,-1.153288092E1,2.503798216E1
1.349578204E1,8.214063299E0,-2.366440212E1,-5.425878156E0,2.563035149E1
1.350574704E1,5.843081086E0,-1.893014550E1,-2.324288395E0,1.994728858E1
1.351571204E1,5.635727125E0,-1.158742726E1,-1.278973466E0,1.294857768E1
1.352567604E1,4.046546881E0,-3.350604842E0,-1.016040551E0,5.351021666E0
1.353564104E1,2.522923281E0,2.822546305E0,-2.583144924E-1,3.794553452E0
1.354560504E1,1.649067719E0,5.335101303E0,2.814612511E0,6.253380992E0
1.355557004E1,-3.880167722E-1,5.532835425E0,5.227256427E0,7.621485066E0
1.356553404E1,-2.945916416E0,2.544334615E0,5.368005924E0,6.630803101E0
1.357549904E1,-5.256586645E0,-2.016387759E0,3.370837086E0,6.562016871E0
1.358546304E1,-8.106268124E0,-8.011315774E0,-1.835503851E0,1.154390912E1
1.359542804E1,-7.476557497E0,-1.130742632E1,-2.768422138E0,1.383549649E1
1.360539304E1,-3.009851041E0,-9.253617550E0,-3.701480466E-1,9.737846303E0
1.361535704E1,-3.770210978E0,-4.432606371E0,2.313019641E0,6.261992488E0
1.362532204E1,-6.972647960E0,5.169459039E-1,5.260727059E0,8.749874389E0
1.363528604E1,-8.084553319E0,3.191381067E0,6.745801721E0,1.100230686E1
1.364525104E1,-8.549691723E0,3.384995241E0,6.087906929E0,1.102805659E1
1.365521504E1,-8.289213468E0,1.514102579E0,4.911499765E0,9.753276192E0
1.366518004E1,-6.700876393E0,-1.584004873E-1,3.718716011E0,7.665225628E0
1.367514504E1,-4.932119971E0,-1.292680802E0,3.226865188E0,6.034027677E0
1.368510904E1,-3.057712548E0,-2.056434170E0,3.200017405E0,4.880434295E0
1.369507404E1,-1.575920951E0,-2.288372165E0,3.547124498E0,4.505803615E0
1.370503804E1,-8.497838907E-1,-2.030900549E0,3.881252819E0,4.462153420E0
1.371500304E1,-5.751714176E-1,-1.518502024E0,3.837221239E0,4.166645820E0
1.372496704E1,3.048872362E-1,-1.081500422E0,3.389815686E0,3.571197247E0
1.373493204E1,6.049357552E-1,-8.193557113E-1,2.979270688E0,3.148546471E0
1.374489704E1,9.764090002E-1,-3.979743612E-1,2.711393659E0,2.909194683E0
1.375486104E1,1.612059229E0,1.871705425E-1,2.095584787E0,2.650517566E0
1.376482604E1,2.190677471E0,9.131163990E-1,1.199745887E0,2.659368258E0
1.377479004E1,2.670808720E0,1.762491716E0,1.495958962E-2,3.199971884E0
1.378475504E1,3.147778088E0,2.709289831E0,-9.220332567E-1,4.254280621E0
1.379471904E1,3.552846583E0,3.614590257E0,-1.187868876E0,5.205671334E0
1.380468404E1,3.551754323E0,4.333262762E0,-1.344599984E0,5.761950542E0
1.381464804E1,2.995724460E0,4.764972634E0,-1.215381269E0,5.758166450E0
1.382461304E1,2.179176290E0,4.684117336E0,-1.051691902E0,5.272174160E0
1.383457804E1,1.361076414E0,4.412819393E0,-6.749253917E-1,4.667014923E0
1.384454204E1,3.839389971E-1,4.003716611E0,1.558914471E-1,4.025103477E0
1.385450704E1,-8.545603350E-1,3.294645234E0,1.159518067E0,3.595753431E0
1.386447104E1,-1.895527274E0,2.441155817E0,1.595815664E0,3.478346303E0
1.387443604E1,-2.350931087E0,1.678811043E0,1.372435654E0,3.198259388E0
1.388440004E1,-2.214392023E0,1.483623383E0,7.791309607E-1,2.776997556E0
1.389436504E1,-1.904540464E0,1.189801381E0,-5.336719008E-1,2.308182706E0
1.390433004E1,-1.348934378E0,6.653751343E-1,-2.702884791E0,3.093207756E0
1.391429329E1,-4.996567105E-1,1.713088006E-1,-4.480381631E0,4.511410322E0
1.392425829E1,2.533534223E-1,-3.450909734E-2,-4.848453332E0,4.855190886E0
1.393422229E1,7.008636403E-1,1.408605945E-1,-3.942057137E0,4.006353208E0
1.394418729E1,1.161147393E0,3.306945437E-1,-2.548655707E0,2.820153908E0
1.395415129E1,1.821894749E0,-3.650416732E-3,-1.361062381E0,2.274160198E0
1.396411629E1,2.927598843E0,-1.177070239E0,-1.082459658E0,3.335872936E0
1.397408129E1,4.669656294E0,-2.563881857E0,-1.841537154E0,5.636527226E0
1.398404529E1,6.207650889E0,-3.310875936E0,-2.766147571E0,7.559656170E0
1.399401029E1,6.614356313E0,-3.394890484E0,-3.374968436E0,8.164888412E0
1.400397429E1,5.871450022E0,-2.884723257E0,-3.977017640E0,7.655861999E0
1.401393929E1,4.564207900E0,-2.307490221E0,-4.178424398E0,6.604221023E0
1.402390329E1,3.533419501E0,-2.020632838E0,-3.374210637E0,5.287088789E0
1.403386829E1,3.068324075E0,-2.327005304E0,-2.204094345E0,4.437070902E0
1.404383229E1,3.232982837E0,-3.245474828E0,-1.412197305E0,4.793702756E0
1.405379729E1,3.838799694E0,-4.351790834E0,-1.155545468E0,5.916903911E0
1.406376229E1,4.333564478E0,-5.213537689E0,-8.760099685E-1,6.835799133E0
1.407372629E1,3.962008422E0,-5.865101116E0,-3.425084044E-1,7.086200240E0
1.408369129E1,2.701604835E0,-5.991858811E0,-2.441667156E-1,6.577283488E0
1.409365529E1,1.305592916E0,-5.895523009E0,-8.208023125E-1,6.093888812E0
1.410362029E1,-1.212043020E-1,-5.535264943E0,-1.724265982E0,5.798874171E0
1.411358429E1,-1.253415141E0,-4.553130350E0,-2.882275613E0,5.532590551E0
1.412354929E1,-1.754540526E0,-3.291053874E0,-3.977068511E0,5.452203408E0
1.413351429E1,-1.696588771E0,-2.342581701E0,-4.190707060E0,5.091967021E0
1.414347829E1,-1.551166033E0,-1.843785555E0,-2.539566795E0,3.500722888E0
1.415344329E1,-1.377716128E0,-1.538326424E0,1.904262265E-2,2.065166468E0
1.416340729E1,-1.351176201E0,-1.650354983E0,1.840338621E0,2.817125297E0
1.417337229E1,-2.235874109E0,-2.359693578E0,2.566009659E0,4.141460175E0
1.418333629E1,-3.703973134E0,-3.149155399E0,2.989521149E0,5.707349070E0
1.419330129E1,-5.121705413E0,-3.870546275E0,3.052559981E0,7.108524266E0
1.420326529E1,-6.131990842E0,-4.541685010E0,2.235063100E0,7.951334572E0
1.421323029E1,-6.640779296E0,-4.931128868E0,9.107050073E-1,8.321380004E0
1.422319529E1,-6.586811249E0,-4.654059724E0,-1.056428146E0,8.134026971E0
1.423315929E1,-5.780438111E0,-3.315129785E0,-2.567311249E0,7.141052954E0
1.424312429E1,-4.359452733E0,-1.174170020E0,-1.789618995E0,4.856566639E0
1.425308829E1,-2.674988602E0,9.239489508E-1,-3.368873298E-1,2.850041887E0
1.426305329E1,-5.770092705E-1,2.524809592E0,1.256755070E0,2.878721328E0
1.427301729E1,1.157891079E0,3.409647687E0,2.214436170E0,4.227308440E0
1.428298229E1,2.009938281E0,3.698401907E0,2.573301721E0,4.933549463E0
1.429294729E1,2.675091221E0,3.638509462E0,2.500509149E0,5.162112954E0
1.430291129E1,2.680514221E0,3.150368112E0,2.149937873E0,4.661781696E0
1.431287629E1,2.335021836E0,2.403817837E0,2.326683414E0,4.079720931E0
1.432284029E1,1.776621512E0,1.635234084E0,2.906897069E0,3.778944968E0
1.433280529E1,1.050277606E0,1.349068426E0,3.305573680E0,3.721543500E0
1.434276929E1,3.448497026E-1,1.489596899E0,4.094722091E0,4.370877399E0
1.435273429E1,-3.780773096E-3,1.998790564E0,5.017601001E0,5.401064508E0
1.436269929E1,-5.304759955E-1,3.102503389E0,5.586137474E0,6.411853393E0
1.437266329E1,-1.165282690E0,4.490868613E0,5.777293478E0,7.409649423E0
1.438262829E1,-1.761456320E0,5.658748198E0,5.541526726E0,8.113733912E0
1.439259229E1,-2.376657958E0,6.850922964E0,5.105449569E0,8.868442017E0
1.440255729E1,-2.878436039E0,8.225193474E0,4.204052160E0,9.675394373E0
1.441252129E1,-3.419383886E0,9.411662527E0,2.835794634E0,1.040736801E1
1.442248629E1,-3.799368703E0,9.659832392E0,2.382346568E0,1.065003003E1
1.443245029E1,-3.500657845E0,9.057420661E0,1.976928702E0,9.909577260E0
1.444241529E1,-2.642290972E0,7.959253920E0,3.490062690E-1,8.393642232E0
1.445238029E1,-1.927001812E0,6.679034704E0,-2.064596591E0,7.251579114E0
1.446234429E1,-1.579864021E0,5.719629407E0,-4.679899447E0,7.557221031E0
1.447230929E1,-1.407261086E0,4.442640193E0,-8.182860217E0,9.416827331E0
1.448227329E1,5.069226653E0,7.643082690E-1,-1.190833415E1,1.296493919E1
1.449223829E1,1.275584596E1,-5.649463404E0,-1.140245878E1,1.801788303E1
1.450220229E1,1.087379915E1,-1.409425023E1,-8.345854277E0,1.966063786E1
1.451216729E1,5.717148433E0,-1.926045471E1,-4.126922708E0,2.051054346E1
1.452213229E1,2.800575685E0,-1.735102773E1,-1.669422169E0,1.765469789E1
1.453209629E1,2.812892844E0,-1.019850187E1,4.480446535E-1,1.058879363E1
1.454206129E1,1.294936511E0,-2.973807927E0,-1.667266885E0,3.646940227E0
1.455202529E1,7.260161693E-1,1.483195367E0,-4.838205501E-1,1.720770263E0
1.456199029E1,-8.631930180E-1,2.176229001E0,2.576847180E0,3.481553711E0
1.457195429E1,-3.891154494E0,-1.435042377E0,5.270483723E0,6.706595902E0
1.458191929E1,-6.010730699E0,-5.445457558E0,4.472729380E0,9.262137964E0
1.459188329E1,-5.817757965E0,-8.437628666E0,-1.227327642E-1,1.024963163E1
1.460184829E1,-2.392354224E0,-7.803314525E0,-2.674899432E-1,8.166188045E0
1.461181329E1,-7.427465151E-1,-3.085594411E0,1.146068301E0,3.374320347E0
1.462177729E1,-3.958821397E0,1.198624245E0,3.198329021E0,5.228601674E0
1.463174229E1,-6.782725133E0,3.509368442E0,6.596641588E0,1.009141751E1
1.464170629E1,-8.797251724E0,3.616716304E0,8.240500315E0,1.258483691E1
1.465167129E1,-1.030702152E1,2.114582976E0,5.718138367E0,1.197511002E1
1.466163529E1,-9.824026301E0,2.035994643E-1,3.400956093E0,1.039805019E1
1.467160029E1,-7.647597325E0,-9.777556139E-1,2.677894668E0,8.161670831E0
1.468156529E1,-5.072088865E0,-1.415985716E0,3.059643591E0,6.090362871E0
1.469152929E1,-3.219151833E0,-1.362536902E0,4.221172515E0,5.480669917E0
1.470149429E1,-2.089476932E0,-1.296410156E0,4.901400746E0,5.483641347E0
1.471145829E1,-1.490437143E0,-1.831471903E0,4.420816338E0,5.011916730E0
1.472142329E1,-6.327124415E-1,-2.422416075E0,3.627664339E0,4.407762837E0
1.473138729E1,-1.734664962E-1,-2.550545527E0,3.093529083E0,4.013140329E0
1.474135229E1,1.038461407E0,-1.901435593E0,2.880253353E0,3.604125246E0
1.475131629E1,2.360783499E0,-8.331674194E-1,2.781729524E0,3.742390389E0
1.476128129E1,3.215321322E0,1.025952458E-1,2.430194042E0,4.031706843E0
1.477124629E1,3.446512628E0,8.947684211E-1,1.779717028E0,3.980760294E0
1.478121029E1,3.427570572E0,1.638254755E0,1.092413081E0,3.952908424E0
1.479117529E1,3.614356661E0,2.444951245E0,1.115262830E-1,4.365065723E0
1.480113929E1,3.676898772E0,3.104474486E0,-7.733058914E-1,4.873945877E0
1.481110429E1,3.323165029E0,3.514708704E0,-1.120035474E0,4.964985654E0
1.482106829E1,3.014042033E0,4.032861473E0,-1.000421176E0,5.133153374E0
1.483103329E1,2.814407858E0,4.245586687E0,-1.038865449E0,5.198570893E0
1.484099829E1,2.644273471E0,4.205739666E0,-1.075487804E0,5.083020986E0
1.485096229E1,2.107963196E0,3.659886298E0,-9.563308311E-1,4.330455543E0
1.486092729E1,9.301173247E-1,2.438022879E0,-8.493513429E-1,2.744170457E0
1.487089129E1,5.397871748E-2,1.481148841E0,-2.572763010E-1,1.504296077E0
1.488085629E1,-4.157200760E-1,1.099026867E0,3.507019615E-1,1.226244307E0
1.489082029E1,-7.856174232E-1,6.368120706E-1,3.388800609E-1,1.066566475E0
1.490078529E1,-1.029976366E0,3.215915984E-1,3.109104896E-1,1.122914869E0
1.491075004E1,-1.119242591E0,4.317543107E-1,3.421036309E-1,1.247457678E0
1.492071504E1,-1.153435939E0,6.232541317E-1,-4.513611212E-1,1.386573849E0
1.493068004E1,-1.294462156E0,5.356809676E-1,-1.674199929E0,2.183009797E0
1.494064404E1,-1.444040657E0,3.042914414E-1,-3.077037596E0,3.412624659E0
1.495060904E1,-1.541545901E0,7.279257238E-2,-4.232532778E0,4.505107794E0
1.496057304E1,-7.913162658E-1,-3.641178131E-2,-4.722556347E0,4.788532729E0
1.497053804E1,9.106316248E-1,-1.372189486E-1,-4.611976728E0,4.703021192E0
1.498050204E1,3.378245800E0,-1.162117739E0,-3.858251919E0,5.258247826E0
1.499046704E1,5.325890184E0,-2.403595058E0,-2.843637212E0,6.498357335E0
1.500043204E1,6.339289255E0,-3.255591096E0,-2.281577116E0,7.482717139E0
1.501039604E1,6.780646448E0,-3.903701157E0,-2.097801905E0,8.100421088E0
1.502036104E1,6.891635957E0,-4.098920977E0,-1.989351550E0,8.261556689E0
1.503032504E1,6.451603743E0,-3.897068076E0,-1.939143702E0,7.782712171E0
1.504029004E1,5.795693496E0,-3.525587448E0,-1.675419073E0,6.987621844E0
1.505025404E1,5.114113973E0,-3.358188681E0,-1.267875305E0,6.248127779E0
1.506021904E1,4.291730574E0,-3.693820029E0,-1.119745890E0,5.772095684E0
1.507018304E1,3.827195603E0,-4.294236690E0,-1.150195997E0,5.866075840E0
1.508014804E1,3.061181701E0,-4.901722636E0,-1.184516083E0,5.899219995E0
1.509011304E1,1.632394676E0,-5.609048034E0,-1.383360007E0,6.003317177E0
1.510007704E1,-8.331229806E-2,-6.315011031E0,-1.814437795E0,6.571034148E0
1.511004204E1,-1.465107882E0,-6.592081929E0,-2.195927685E0,7.100998780E0
1.512000604E1,-2.213735819E0,-6.218900932E0,-2.475739759E0,7.050151944E0
1.512997104E1,-2.393115239E0,-4.983257965E0,-2.289228197E0,5.983345739E0
1.513993504E1,-2.516424685E0,-3.615477864E0,-1.129886132E0,4.547605530E0
1.514990004E1,-2.723724560E0,-2.709720186E0,2.178391886E-1,3.848209048E0
1.515986504E1,-3.392708888E0,-2.219974360E0,1.353757893E0,4.274508181E0
1.516982904E1,-3.905302709E0,-2.312157469E0,2.424504701E0,5.145452794E0
1.517979404E1,-4.460936131E0,-2.698439738E0,3.139357220E0,6.085810705E0
1.518975804E1,-5.655198353E0,-2.950156524E0,3.134017543E0,7.106810669E0
1.519972304E1,-6.871857165E0,-3.220993121E0,2.080556127E0,7.869303107E0
1.520968704E1,-7.466455847E0,-3.406130002E0,1.995901747E-1,8.209112056E0
1.521965204E1,-6.757002062E0,-2.691472780E0,-1.831634164E0,7.500399076E0
1.522961604E1,-5.466926780E0,-1.269256856E0,-2.642072579E0,6.203132184E0
1.523958104E1,-4.202852896E0,1.555838835E-1,-1.811612128E0,4.579314065E0
1.524954604E1,-3.291651460E0,1.561763819E0,-2.064662080E-1,3.649205921E0
1.525951004E1,-2.244268371E0,2.875826719E0,1.492131228E0,3.941265716E0
1.526947504E1,-6.274193227E-1,3.924276339E0,2.380143045E0,4.632351531E0
1.527943904E1,8.222921830E-1,4.458469775E0,2.756792903E0,5.306036589E0
1.528940404E1,1.808270152E0,4.452534851E0,3.216169753E0,5.782616659E0
1.529936804E1,2.541919715E0,4.307488820E0,3.250437068E0,5.964994292E0
1.530933304E1,3.022240414E0,3.815516959E0,2.800677134E0,5.615683324E0
1.531929804E1,2.887801524E0,2.832674267E0,2.801556263E0,4.920585193E0
1.532926204E1,1.881653000E0,2.118909330E0,3.093957976E0,4.195589437E0
1.533922704E1,8.844125636E-1,1.982434148E0,3.349865462E0,3.991720099E0
1.534919104E1,5.906844096E-1,2.244584706E0,3.622207717E0,4.302029442E0
1.535915604E1,2.615980694E-1,3.034814267E0,3.943898133E0,4.983258339E0
1.536912004E1,-1.738648378E-1,4.275995716E0,4.130927466E0,5.948019004E0
1.537908504E1,-8.433044448E-1,5.357852234E0,4.059234754E0,6.774594434E0
1.538904904E1,-1.749180091E0,6.042631354E0,3.889459679E0,7.396007116E0
1.539901404E1,-2.576745147E0,6.466742769E0,3.738897384E0,7.901754947E0
1.540897904E1,-2.892847379E0,6.747626637E0,3.752248916E0,8.244901644E0
1.541894304E1,-2.994776042E0,6.811432039E0,3.781331797E0,8.346421995E0
1.542890804E1,-3.111699598E0,6.647129372E0,3.624031756E0,8.185389999E0
1.543887204E1,-3.190324183E0,6.290010676E0,3.067595804E0,7.691069283E0
1.544883704E1,-3.049754780E0,5.810798024E0,1.923364698E0,6.838545873E0
1.545880104E1,-2.753638038E0,5.274080930E0,-8.528193265E-2,5.950271011E0
1.546876604E1,-2.772759895E0,4.505400113E0,-2.397821225E0,5.808302182E0
1.547873104E1,-3.056433469E0,3.356308801E0,-4.930517249E0,6.701984383E0
1.548869504E1,-1.779956033E0,7.954493701E-1,-9.712131643E0,9.905881295E0
1.549866004E1,4.019747630E0,-4.925078754E0,-1.403608915E1,1.540865245E1
1.550862404E1,9.428343464E0,-1.254674134E1,-1.162162411E1,1.952886391E1
1.551858904E1,9.480949109E0,-1.690680774E1,-5.819106917E0,2.023834354E1
1.552855304E1,6.412753088E0,-1.670071677E1,-3.189089836E0,1.817161624E1
1.553851804E1,4.017911020E0,-1.317836810E1,-2.091101142E0,1.393505288E1
1.554848204E1,2.920222581E0,-6.890602754E0,-1.544155806E0,7.641500074E0
1.555844704E1,1.579063830E0,-9.537574714E-1,-1.726708218E0,2.526779999E0
1.556841204E1,-1.983653292E-1,1.420384576E0,-1.054093353E0,1.779874699E0
1.557837604E1,-2.300911373E0,3.858349568E-1,4.664408711E-1,2.379207609E0
1.558834104E1,-4.063140402E0,-2.410479569E0,3.273024862E0,5.747365782E0
1.559830504E1,-5.031800380E0,-4.833002649E0,3.618598231E0,7.859464538E0
1.560827004E1,-4.638985309E0,-6.122048821E0,1.316283380E0,7.793091069E0
1.561823404E1,-2.177181074E0,-4.253133103E0,1.823575823E0,5.114165367E0
1.562819904E1,-5.764485225E-1,-3.792761350E-1,3.316297766E0,3.387325517E0
1.563816304E1,-2.822678160E0,2.756478615E0,3.412974460E0,5.216711706E0
1.564812804E1,-5.180058872E0,4.284847232E0,2.660134335E0,7.229746911E0
1.565809304E1,-7.407832832E0,4.215544862E0,3.615506516E0,9.258439022E0
1.566805704E1,-9.158838862E0,2.681588647E0,4.949848144E0,1.075063922E1
1.567802204E1,-9.387438097E0,7.326631379E-1,3.510598111E0,1.004913371E1
1.568798604E1,-7.896840155E0,-2.326548636E-1,2.096243184E0,8.173643509E0
1.569795104E1,-5.591480659E0,1.735991549E-1,2.255610216E0,6.031796588E0
1.570791504E1,-3.720398840E0,6.963998759E-1,3.249528411E0,4.988564444E0
1.571788004E1,-2.629125674E0,5.712577665E-1,3.629225545E0,4.517733425E0
1.572784404E1,-1.763365143E0,-1.096563435E-1,3.445878789E0,3.872410331E0
1.573780904E1,-7.351002574E-1,-1.038423400E0,3.067995754E0,3.321339111E0
1.574777404E1,5.779154793E-1,-1.655567191E0,2.978749993E0,3.456564848E0
1.575773804E1,2.060639341E0,-1.644629974E0,3.350867967E0,4.263725880E0
1.576770304E1,3.406517380E0,-1.192288202E0,3.691895710E0,5.162945453E0
1.577766704E1,4.272169006E0,-5.323632574E-1,3.511967529E0,5.555965675E0
1.578763204E1,4.435812984E0,8.574064672E-2,2.638156114E0,5.161749313E0
1.579759604E1,4.202184559E0,8.958992726E-1,1.554009972E0,4.569019323E0
1.580756104E1,4.069952116E0,1.809679331E0,4.721416140E-1,4.479103394E0
1.581752604E1,4.070399720E0,2.775942242E0,-4.788588953E-1,4.950082328E0
1.582749004E1,3.915734142E0,3.766840058E0,-1.117257900E0,5.547100424E0
1.583745504E1,3.390550681E0,4.493759476E0,-1.599786508E0,5.852266656E0
1.584741904E1,2.537417359E0,4.571792908E0,-2.244949572E0,5.690305425E0
1.585738404E1,1.082243603E0,3.951467646E0,-2.236198629E0,4.667540261E0
1.586734804E1,-5.859566434E-1,2.717266603E0,-1.555590913E0,3.185395747E0
1.587731304E1,-1.554771280E0,1.410251352E0,-7.665840054E-1,2.234675288E0
1.588727704E1,-1.878758629E0,2.396183127E-1,-4.525189430E-1,1.947286398E0
1.589724204E1,-1.587234436E0,-2.002039862E-1,-3.647832263E-1,1.640872205E0
1.590720642E1,-9.318928318E-1,1.388468134E-1,1.533280095E-1,9.545743376E-1
1.591717042E1,-5.996623707E-1,4.675152969E-1,5.391559313E-1,9.321237203E-1
1.592713542E1,-3.769378334E-1,5.924942690E-1,2.134046237E-1,7.339435418E-1
1.593709942E1,2.103176227E-1,5.507410562E-1,-3.722694165E-1,6.972329108E-1
1.594706442E1,1.155320204E0,4.477446914E-1,-1.591967611E0,2.017325199E0
1.595702842E1,1.606955341E0,3.745059764E-1,-3.278011075E0,3.669866047E0
1.596699342E1,1.458132154E0,2.917234361E-1,-4.203185602E0,4.458477448E0
1.597695742E1,1.117516055E0,1.238346720E-1,-4.047804033E0,4.201058753E0
1.598692242E1,8.284592414E-1,-2.062903529E-1,-3.081743435E0,3.197818479E0
1.599688742E1,8.774966231E-1,-6.470838743E-1,-1.776775732E0,2.084622236E0
1.600685142E1,1.375715357E0,-1.450500661E0,-1.282342340E0,2.375067744E0
1.601681642E1,3.087564923E0,-2.634422666E0,-2.148670342E0,4.592387634E0
1.602678042E1,5.005289689E0,-3.491243243E0,-3.021464489E0,6.809622009E0
1.603674542E1,5.435005075E0,-3.999186773E0,-3.001186929E0,7.385113269E0
1.604670942E1,5.486692708E0,-3.721920578E0,-2.999488313E0,7.276910045E0
1.605667442E1,5.876199131E0,-3.154509110E0,-2.942419488E0,7.289614283E0
1.606663942E1,5.938321704E0,-2.746245403E0,-2.698400561E0,7.077209483E0
1.607660342E1,5.685974003E0,-2.738156365E0,-2.542457074E0,6.803814270E0
1.608656842E1,5.298885988E0,-3.230618223E0,-2.512258544E0,6.695261743E0
1.609653242E1,5.043873711E0,-4.026345336E0,-2.184415249E0,6.813500477E0
1.610649742E1,4.629382719E0,-4.363960644E0,-1.508262965E0,6.538363254E0
1.611646142E1,3.399348401E0,-4.365388534E0,-1.041900739E0,5.630074934E0
1.612642642E1,1.797764605E0,-4.519528740E0,-1.053607303E0,4.976764607E0
1.613639042E1,4.102880126E-1,-4.596789170E0,-1.194110779E0,4.767043893E0
1.614635542E1,-6.246514700E-1,-4.278963763E0,-1.886237510E0,4.717797398E0
1.615632042E1,-1.179296274E0,-3.720916611E0,-2.966753846E0,4.902814346E0
1.616628442E1,-1.828498009E0,-3.444670755E0,-2.705463413E0,4.746440125E0
1.617624942E1,-2.724075100E0,-3.434680202E0,-1.642605668E0,4.681427840E0
1.618621342E1,-2.792516467E0,-3.149350696E0,1.088365456E-1,4.210511064E0
1.619617842E1,-2.703286495E0,-3.249584252E0,1.964604818E0,4.661247448E0
1.620614242E1,-3.402285165E0,-3.730963297E0,2.981689389E0,5.863966497E0
1.621610742E1,-4.872391248E0,-4.225450045E0,3.122182778E0,7.165378556E0
1.622607142E1,-6.811209260E0,-4.935411369E0,2.323812285E0,8.726451770E0
1.623603642E1,-8.343207242E0,-5.680339626E0,6.570258951E-1,1.011469468E1
1.624600142E1,-8.537159386E0,-5.560978659E0,-1.310012387E0,1.027247324E1
1.625596542E1,-7.582144178E0,-4.125946223E0,-2.924120042E0,9.113880655E0
1.626593042E1,-6.458869493E0,-2.034815260E0,-2.815647175E0,7.333848736E0
1.627589442E1,-5.175333152E0,1.516299963E-1,-1.343262433E0,5.348964278E0
1.628585942E1,-3.840914340E0,1.732441120E0,-1.799275964E-2,4.213585046E0
1.629582342E1,-1.926747166E0,3.341679652E0,1.728296321E0,4.226841104E0
1.630578842E1,1.149526052E-1,4.493686970E0,3.020728909E0,5.415832330E0
1.631575242E1,1.950717680E0,5.153228922E0,3.571300396E0,6.566220702E0
1.632571742E1,3.467727495E0,5.110165933E0,3.607037116E0,7.151898112E0
1.633568242E1,4.046989223E0,4.295185109E0,2.957003321E0,6.600803401E0
1.634564642E1,3.762070777E0,3.440087122E0,2.306049467E0,5.595108585E0
1.635561142E1,3.019153377E0,2.701663308E0,2.114097072E0,4.569866318E0
1.636557542E1,1.445845107E0,2.339102023E0,2.166125889E0,3.500566771E0
1.637554042E1,4.237707417E-1,2.681536607E0,2.730198305E0,3.850221162E0
1.638550442E1,-8.527250402E-2,3.827554622E0,3.556421278E0,5.225473959E0
1.639546942E1,-5.833029576E-1,5.326791825E0,3.888929336E0,6.621081850E0
1.640543342E1,-8.684505419E-1,6.490596485E0,4.136575291E0,7.745534469E0
1.641539842E1,-1.084096367E0,7.348166090E0,4.591537786E0,8.732298039E0
1.642536342E1,-1.208839696E0,8.085066120E0,4.897651512E0,9.529773235E0
1.643532742E1,-1.407183025E0,8.767817425E0,4.903255483E0,1.014380110E1
1.644529242E1,-1.891005037E0,9.296564180E0,4.315132885E0,1.042220598E1
1.645525642E1,-2.665077572E0,9.209091588E0,2.719601980E0,9.965251691E0
1.646522142E1,-3.359678552E0,8.186963793E0,8.584113112E-1,8.891045276E0
1.647518542E1,-3.817520215E0,6.736947867E0,-9.678358126E-1,7.803629496E0
1.648515042E1,-4.162584291E0,5.407861716E0,-3.279300094E0,7.571385964E0
1.649511442E1,-4.031625664E0,3.695094137E0,-6.672499856E0,8.627281177E0
1.650507942E1,-3.924709253E-1,-1.800708532E-2,-1.252180647E1,1.252796851E1
1.651504442E1,7.319686641E0,-7.463512943E0,-1.502984917E1,1.830787274E1
