"Time (s)","Linear Acceleration x (m/s^2)","Linear Acceleration y (m/s^2)","Linear Acceleration z (m/s^2)","Absolute acceleration (m/s^2)"
1.794333279E-3,-1.100948846E-1,-6.984227201E-1,-1.646858933E0,1.792221952E0
1.176133333E-2,-2.363269150E-1,-8.111508983E-1,-1.156186908E0,1.431986158E0
2.172833332E-2,-5.457937270E-2,-9.539185622E-1,-6.459243715E-1,1.153324683E0
3.169533331E-2,2.528613791E-1,-1.260910248E0,-3.789241326E-1,1.340677824E0
4.166233330E-2,4.805776843E-1,-1.373866467E0,-7.740427136E-2,1.457551166E0
5.162933329E-2,7.286770910E-1,-1.431756241E0,2.872035384E-2,1.606773505E0
6.159633328E-2,1.013022510E0,-1.448992079E0,8.265156269E-2,1.769922013E0
7.156333333E-2,1.161965126E0,-1.254129817E0,2.341453189E-1,1.725638601E0
8.153033332E-2,1.466073550E0,-9.338295758E-1,3.039382696E-3,1.738222819E0
9.149633331E-2,1.975328319E0,-7.270834324E-1,-4.249154073E-1,2.147353112E0
1.014633333E-1,2.422838829E0,-7.457597315E-1,-9.320397431E-1,2.700926443E0
1.114303333E-1,2.507309168E0,-8.910066149E-1,-1.232049268E0,2.932309236E0
1.213973333E-1,1.982042092E0,-9.808673559E-1,-6.401718807E-1,2.302262292E0
1.313643333E-1,1.607956823E0,-1.047385720E0,-4.001483560E-2,1.919412195E0
1.413313333E-1,1.502181568E0,-1.372519561E0,3.388823998E-1,2.062813780E0
1.512983333E-1,1.220670002E0,-1.688719004E0,9.202225202E-1,2.277853510E0
1.612653333E-1,1.415868479E0,-1.661630900E0,9.409538233E-1,2.377203167E0
1.712323333E-1,1.588360464E0,-1.412616112E0,8.581970108E-1,2.292351490E0
1.811993333E-1,1.369425507E0,-1.236954936E0,8.686044699E-1,2.039572862E0
1.911663333E-1,1.202122926E0,-1.321713105E0,5.612373930E-1,1.872701918E0
2.011333333E-1,1.018590522E0,-1.381577191E0,6.079572308E-1,1.820959686E0
2.110993333E-1,1.508626077E0,-7.831830081E-1,1.318737749E0,2.151371078E0
2.210663333E-1,2.490659222E0,-5.937435997E-1,1.774567970E0,3.115285910E0
2.310333333E-1,3.046784102E0,-9.288838546E-1,1.584934580E0,3.557771241E0
2.410003333E-1,3.030923822E0,-1.505628064E0,1.760587277E0,3.814850277E0
2.509673333E-1,3.100166842E0,-2.059418004E0,2.413577424E0,4.435943298E0
2.609343333E-1,3.234885813E0,-2.155331783E0,2.817134707E0,4.800644673E0
2.709013333E-1,3.530517821E0,-1.999729334E0,3.196725422E0,5.165513229E0
2.808683333E-1,3.842615587E0,-1.633475241E0,3.663530867E0,5.554763211E0
2.908353333E-1,4.027479696E0,-1.266955684E0,3.859918376E0,5.720554105E0
3.008023333E-1,3.882086924E0,-1.114415569E0,3.463319280E0,5.320441841E0
3.107693333E-1,3.366769470E0,-1.204500550E0,2.359728661E0,4.284189258E0
3.207363333E-1,2.539828166E0,-7.814632688E-1,-3.957161665E-2,2.657626359E0
3.307033333E-1,9.710927117E-1,2.614772514E-2,-2.976262588E0,3.130789637E0
3.406693333E-1,-3.783350256E-1,6.054161771E-1,-3.287516894E0,3.364139335E0
3.506363333E-1,-6.140795580E-1,9.651662663E-1,-2.879520405E0,3.098431440E0
3.606033333E-1,-1.107864641E0,3.726345751E-1,-1.483535675E0,1.888676438E0
3.705703333E-1,-2.226339639E0,-1.296098061E0,1.482843364E0,2.972420363E0
3.805373333E-1,-7.126855409E-1,-3.040692180E0,-4.269401227E0,5.289755802E0
3.905043333E-1,3.438284133E-1,-3.423273454E0,-4.271354781E0,5.484659587E0
4.004713333E-1,8.032847853E-1,-3.551027222E0,-4.034006358E0,5.433991909E0
4.104383333E-1,1.028495997E0,-3.498166931E0,-4.500770288E0,5.792400976E0
4.204053333E-1,1.435160783E0,-3.081405758E0,-5.171776875E0,6.188862898E0
4.303723333E-1,1.633678139E0,-2.366629107E0,-5.724959144E0,6.406636777E0
4.403393333E-1,1.784223916E0,-1.718308985E0,-6.120109885E0,6.602407572E0
4.503063333E-1,9.063625726E-1,-8.653800228E-1,-4.506894661E0,4.677870796E0
4.602723333E-1,-7.784290025E-1,-3.600636461E-1,-2.381714192E0,2.531434383E0
4.702393333E-1,-6.319752538E-1,-1.408175151E0,-1.918812933E0,2.462558233E0
4.802063333E-1,-2.116111730E-1,-2.825687429E0,-1.269524658E0,3.104993010E0
4.901733333E-1,-9.305127427E-2,-3.619509519E0,-5.518964660E-1,3.662526097E0
5.001409166E-1,-5.860374811E-1,-3.907955006E0,8.923166835E-1,4.051145681E0
5.101079167E-1,-1.009054151E0,-3.951650664E0,2.437898918E0,4.751534950E0
5.200749167E-1,-1.133823062E0,-3.847582505E0,2.749051482E0,4.862790343E0
5.300419166E-1,-1.191906087E0,-4.047616337E0,3.765013973E0,5.655012674E0
5.400089166E-1,-2.527957441E0,-5.008416195E0,3.767186213E0,6.757698837E0
5.499759166E-1,-2.983127511E0,-4.569627099E0,4.234720221E0,6.907488467E0
5.599429166E-1,-2.017075392E0,-2.990208197E0,4.789893467E0,5.996083524E0
5.699099167E-1,-8.532923663E-1,-2.013409919E0,4.523800131E0,5.024608939E0
5.798759167E-1,4.113896281E-1,-1.069720110E0,4.287404219E0,4.437947440E0
5.898429166E-1,1.046053432E0,-3.346938930E-1,4.595142594E0,4.724572281E0
5.998099166E-1,1.117692933E0,-5.520641349E-2,4.948712615E0,5.073661576E0
6.097769166E-1,8.487397242E-1,-1.557370075E-1,5.131202461E0,5.203253966E0
6.197439166E-1,5.970030570E-1,-3.227174067E-1,5.265281455E0,5.308836782E0
6.297109167E-1,5.178469598E-1,-4.793631811E-1,5.181165749E0,5.228999240E0
6.396779167E-1,3.583495349E-1,-5.962351349E-1,4.774269122E0,4.824681997E0
6.496449166E-1,2.323683500E-1,-3.943897987E-1,4.140111102E0,4.165340119E0
6.596119166E-1,2.260510182E-1,1.476604678E-2,3.887885608E0,3.894479632E0
6.695789166E-1,1.560750496E-1,3.162453429E-1,3.874468587E0,3.890485493E0
6.795459166E-1,3.890035629E-2,4.654561269E-1,3.767797832E0,3.796638401E0
6.895129167E-1,2.145518839E-2,4.773397887E-1,3.583006521E0,3.614726730E0
6.994799167E-1,7.245869637E-3,5.291354482E-1,3.271347588E0,3.313872639E0
7.094459166E-1,2.324010944E-1,8.423748837E-1,2.798511325E0,2.931769321E0
7.194129166E-1,6.049137551E-1,1.358859150E0,2.299519882E0,2.738651224E0
7.293799166E-1,8.940609080E-1,1.820746356E0,1.912810766E0,2.788065140E0
7.393469166E-1,1.101571575E0,2.171402855E0,1.685063471E0,2.961062173E0
7.493139167E-1,1.242733301E0,2.362628003E0,1.671398528E0,3.149598415E0
7.592809167E-1,1.383360007E0,2.322948651E0,1.880109043E0,3.293111805E0
7.692479166E-1,1.525042720E0,2.115804751E0,2.030691803E0,3.305464300E0
7.792149166E-1,1.434572260E0,1.748056694E0,2.316076857E0,3.236960269E0
7.891819166E-1,1.104581137E0,1.242273125E0,2.498902334E0,3.001308861E0
7.991489166E-1,5.708408600E-1,7.692808874E-1,2.401067891E0,2.585107230E0
8.091159167E-1,2.314211011E-2,4.515601458E-1,2.223611913E0,2.269117022E0
8.190819166E-1,-3.691417408E-1,2.978697369E-1,1.944359418E0,2.001380911E0
8.290489166E-1,-4.960701746E-1,3.006632441E-1,1.555880935E0,1.660496760E0
8.390159166E-1,-3.466533494E-1,5.025977138E-1,1.257249599E0,1.397658599E0
8.489829166E-1,-2.729070961E-2,7.693561703E-1,1.138845236E0,1.374635286E0
8.589499166E-1,3.319019938E-1,9.489042825E-1,1.248474097E0,1.602892960E0
8.689169167E-1,5.433127534E-1,1.025369491E0,1.468164514E0,1.871384082E0
8.788839167E-1,5.860360193E-1,9.749045116E-1,1.655444984E0,2.008575395E0
8.888509166E-1,3.852882421E-1,7.636434406E-1,1.773405544E0,1.968899580E0
8.988179166E-1,3.366300523E-2,5.206387129E-1,1.716996285E0,1.794512220E0
9.087849166E-1,-3.670577931E-1,3.082333419E-1,1.588408411E0,1.659150535E0
9.187519166E-1,-7.092532253E-1,1.776641393E-1,1.460178387E0,1.633011208E0
9.287179167E-1,-9.250318551E-1,6.286136895E-2,1.349862478E0,1.637609292E0
9.386849166E-1,-9.500363034E-1,-1.009530553E-1,1.247989948E0,1.571699528E0
9.486519166E-1,-8.329042947E-1,-3.493097395E-1,1.228191860E0,1.524533405E0
9.586189166E-1,-7.313141853E-1,-5.483589005E-1,1.367188947E0,1.644604371E0
9.685859166E-1,-6.871951890E-1,-6.626824915E-1,1.566498309E0,1.834476019E0
9.785529166E-1,-6.372395021E-1,-7.352537468E-1,1.724074924E0,1.979673357E0
9.885199167E-1,-5.280105901E-1,-7.426402420E-1,1.849886540E0,2.062132372E0
9.984869167E-1,-3.414703774E-1,-7.939314330E-1,2.106506217E0,2.276905264E0
1.008453917E0,-7.724756598E-2,-9.794422433E-1,2.494005291E0,2.680547833E0
1.018420917E0,2.783584553E-1,-1.108554027E0,2.823292410E0,3.045875160E0
1.028387917E0,5.016875947E-1,-8.197656012E-1,2.745776457E0,2.909122623E0
1.038354917E0,7.224883980E-1,-4.867339253E-1,2.399341793E0,2.552594844E0
1.048320917E0,9.313187814E-1,-2.702433971E-1,2.161694577E0,2.369242413E0
1.058287917E0,1.482988375E0,-1.156707895E-1,1.964811809E0,2.464370041E0
1.068254917E0,1.920682873E0,-9.511285633E-2,1.481038914E0,2.427250588E0
1.078221917E0,2.019442930E0,1.488905758E-2,7.882678199E-1,2.167887817E0
1.088188917E0,2.182392551E0,2.092721406E-1,2.466519284E-1,2.206234178E0
1.098155917E0,2.420694070E0,3.904767689E-1,-2.154962093E-1,2.461436675E0
1.108122917E0,2.370799195E0,5.622425294E-1,-8.612878489E-1,2.584303048E0
1.118089917E0,1.961091810E0,7.832050082E-1,-1.422908819E0,2.546362245E0
1.128056917E0,1.600141434E0,9.767162713E-1,-1.520504111E0,2.413785416E0
1.138023917E0,1.466298083E0,1.054471376E0,-1.419409845E0,2.297099097E0
1.147990917E0,1.206786373E0,1.108970349E0,-1.503020936E0,2.223785179E0
1.157956917E0,7.282245165E-1,1.102702719E0,-1.465609866E0,1.973392133E0
1.167923917E0,2.970531732E-1,1.001529223E0,-1.264117153E0,1.639906567E0
1.177890917E0,-1.386637956E-1,7.616752678E-1,-7.938992733E-1,1.108897163E0
1.187857917E0,-5.853811312E-1,3.812217960E-1,-4.182291162E-1,8.141969787E-1
1.197824917E0,-9.176766425E-1,1.144314721E-1,-2.719762194E-1,9.639481552E-1
1.207791917E0,-1.032518004E0,-4.767556518E-2,-8.024367929E-2,1.036728237E0
1.217758917E0,-9.847515151E-1,-1.860028535E-1,-4.784367263E-2,1.003305350E0
1.227725917E0,-1.121288386E0,-1.557724562E-1,-7.176638603E-2,1.134329369E0
1.237692917E0,-1.190213025E0,1.227029434E-1,-1.273751611E-1,1.203281966E0
1.247659917E0,-9.231958294E-1,3.642844588E-1,-3.026015961E-1,1.037574784E0
1.257626917E0,-6.491318616E-1,4.789492348E-1,-7.643509537E-1,1.111304154E0
1.267592917E0,-2.409111321E-1,7.286095557E-1,-9.655594915E-1,1.233375527E0
1.277559917E0,3.405541188E-1,1.118430559E0,-1.068960484E0,1.584152941E0
1.287526917E0,6.759474850E-1,1.461447233E0,-1.330566666E0,2.088813221E0
1.297493917E0,7.066564769E-1,1.661959660E0,-1.565454581E0,2.390004463E0
1.307460917E0,7.093964821E-1,1.604217236E0,-1.937567877E0,2.613603946E0
1.317427917E0,5.500964007E-1,1.420287220E0,-2.509236118E0,2.935317314E0
1.327394917E0,3.167553663E-2,1.053946588E0,-2.630416154E0,2.833883536E0
1.337361917E0,-5.452201152E-1,7.261037314E-1,-2.196511238E0,2.376794737E0
1.347328917E0,-8.836636814E-1,7.088526911E-1,-1.603957912E0,1.963673757E0
1.357295917E0,-7.212917653E-1,9.296093479E-1,-6.084197456E-1,1.324616902E0
1.367262917E0,-1.316754958E-1,8.412102646E-1,3.766331935E-1,9.310347511E-1
1.377228917E0,5.056280333E-1,6.950275344E-1,1.354452542E0,1.604139854E0
1.387195917E0,7.886987597E-1,2.482587433E-1,2.281015198E0,2.426254000E0
1.397162917E0,5.943533912E-1,-6.740582496E-2,2.721508173E0,2.786468416E0
1.407129917E0,4.593604776E-1,-1.480544239E-1,2.840098477E0,2.880814385E0
1.417096917E0,7.158892304E-1,-1.173770070E-1,2.513651935E0,2.616241733E0
1.427063917E0,8.260066268E-1,-2.778702128E-1,1.526316828E0,1.757595477E0
1.437030917E0,1.008486825E0,-5.539704734E-1,6.201773268E-1,1.307114715E0
1.446997917E0,1.292956790E0,-8.070370898E-1,6.069936097E-2,1.525362429E0
1.456964917E0,1.635068315E0,-8.803453866E-1,-1.970195925E-1,1.867424192E0
1.466931917E0,2.145672036E0,-7.808424407E-1,-1.071426255E-1,2.285848409E0
1.476898917E0,2.365141136E0,-6.591611521E-1,1.331481171E-1,2.458884796E0
1.486864917E0,2.186831464E0,-4.398601596E-1,3.338029236E-1,2.255467403E0
1.496831917E0,2.231332869E0,-2.548675588E-1,1.274794169E0,2.582422122E0
1.506798917E0,3.006574846E0,-3.575051969E-1,2.530769075E0,3.946149310E0
1.516765917E0,2.852533751E0,-8.681092107E-1,3.242407964E0,4.404971260E0
1.526732917E0,2.341708127E0,-7.140220682E-1,2.928652219E0,3.817123038E0
1.536699917E0,1.876499557E0,-1.941953874E-1,1.281691545E0,2.280722616E0
1.546666917E0,9.703056765E-1,4.529637699E-1,-5.949074149E-1,1.224983312E0
1.556633917E0,-1.787476283E-1,8.882060909E-1,-2.125567555E0,2.310605593E0
1.566600917E0,-1.679176202E0,9.916256480E-1,-3.608774616E0,4.101976154E0
1.576567917E0,-3.372914017E0,7.265878078E-1,-4.031257582E0,5.306177202E0
1.586533917E0,-4.984900448E0,7.367725611E-2,-3.945539154E0,6.357825102E0
1.596500917E0,-5.997801921E0,-4.662038030E-1,-4.034019222E0,7.243223381E0
1.606467917E0,-6.467880052E0,-8.392662115E-1,-3.867734933E0,7.582691716E0
1.616434917E0,-5.685225559E0,-1.050337102E0,-3.101932701E0,6.561020056E0
1.626401917E0,-4.263998692E0,-9.380509731E-1,-2.569501031E0,5.065960918E0
1.636368917E0,-3.069256121E0,-8.920376252E-1,-2.944551968E0,4.345854410E0
1.646335917E0,-1.875825958E0,-5.521598100E-1,-3.306858898E0,3.841733886E0
1.656302917E0,-9.633758488E-1,-8.450980783E-2,-3.517470928E0,3.647990771E0
1.666269917E0,-6.936332658E-1,1.173156112E-2,-3.013640914E0,3.092457970E0
1.676236917E0,-6.192631146E-1,-2.526928331E-1,-2.078986296E0,2.183924104E0
1.686203917E0,-5.580880827E-1,-1.015418115E0,-8.972406238E-1,1.465461358E0
1.696169917E0,-3.026796564E-1,-1.461533187E0,1.907110900E0,2.421727940E0
1.706136917E0,-7.672365546E-2,-1.894000712E0,4.437256662E0,4.825181022E0
1.716103917E0,4.718472067E-1,-1.907776898E0,5.138709117E0,5.501689183E0
1.726070917E0,7.491324055E-1,-1.465906612E0,4.461340758E0,4.755380418E0
1.736037917E0,8.195276195E-1,-7.249826740E-1,2.907128034E0,3.106222594E0
1.746004917E0,8.371213067E-1,-1.633235505E-1,5.712308693E-1,1.026523926E0
1.755971917E0,5.510380948E-1,1.129439405E-1,-1.286157648E0,1.403780898E0
1.765938917E0,7.904812834E-1,4.174713171E-1,-2.087733731E0,2.271073555E0
1.775905917E0,7.354478744E-1,4.044980997E-1,-1.682147464E0,1.879926163E0
1.785872917E0,2.674317634E-1,-1.325826913E-2,-6.672099906E-1,7.189330298E-1
1.795838917E0,-5.098538160E-2,-4.927445707E-1,-4.166018361E-1,6.472664142E-1
1.805805917E0,-7.843747437E-2,-7.493545997E-1,-9.035404140E-1,1.176465058E0
1.815772917E0,4.488351971E-1,-5.772459000E-1,-1.539327468E0,1.704169861E0
1.825739917E0,9.598882771E-1,-3.437314957E-1,-1.644132961E0,1.934608498E0
1.835706917E0,1.344203542E0,-9.487867534E-2,-1.454518282E0,1.982803208E0
1.845673917E0,1.410430276E0,1.594389528E-2,-1.553429198E0,2.098263578E0
1.855640917E0,1.203503746E0,1.078226566E-1,-1.381053865E0,1.835035904E0
1.865607917E0,9.051057136E-1,2.276072547E-1,-8.258607388E-1,1.246221238E0
1.875574917E0,1.010257947E0,4.608319294E-1,-1.679332030E-1,1.123026601E0
1.885541917E0,3.858185846E-1,2.078714401E-1,-2.219263923E-1,4.912411214E-1
1.895507917E0,-2.023212630E-1,-4.734893972E-1,7.631610453E-2,5.205288181E-1
1.905474917E0,-3.949197757E-1,-8.619035608E-1,5.660566682E-1,1.104200855E0
1.915441917E0,1.046417713E-1,-5.559485865E-1,1.191843814E0,1.319287841E0
1.925408917E0,5.487804848E-1,-2.169574285E-1,1.585944394E0,1.692173209E0
1.935375917E0,8.435228384E-1,-8.998163223E-2,1.678129842E0,1.880358275E0
1.945342917E0,1.094894639E0,3.820629179E-2,1.665040850E0,1.993141998E0
1.955309917E0,6.463477099E-1,-6.498712420E-2,7.029300463E-1,9.571307844E-1
1.965276917E0,2.350066137E-1,-2.126644027E-1,-3.075401545E-1,4.416279014E-1
1.975243917E0,3.417346716E-2,-2.604998893E-1,-7.982934558E-1,8.404168369E-1
1.985210917E0,1.122981155E-1,-3.528560758E-1,-5.837409872E-1,6.912827331E-1
1.995176917E0,3.714706868E-1,-4.190114737E-1,4.729888755E-1,7.329935624E-1
2.005143917E0,3.829528642E-1,-1.706387097E-1,1.594298311E0,1.648501614E0
2.015110917E0,2.371086878E-1,2.021364909E-1,2.071620851E0,2.094920676E0
2.025077917E0,3.913424492E-1,7.913662595E-1,1.873780309E0,2.071343071E0
2.035044917E0,6.367535985E-1,1.287425909E0,1.728243404E0,2.247163964E0
2.045011917E0,4.709756792E-1,1.322612699E0,1.250998633E0,1.880457396E0
2.054978917E0,5.153665709E-1,8.212238967E-1,-1.375765058E-1,9.792541478E-1
2.064945917E0,1.282944895E0,2.264731872E-1,-1.110656978E0,1.711956960E0
2.074912917E0,1.922348160E0,1.148159266E-1,-1.533362138E0,2.461667035E0
2.084879917E0,2.046007123E0,5.152069420E-1,-1.274158577E0,2.464764374E0
2.094845917E0,1.533917331E0,5.171996731E-1,-6.580567592E-1,1.747408533E0
2.104812917E0,9.522059128E-1,-2.998890728E-1,-5.100321561E-1,1.121054127E0
2.114779917E0,9.185975790E-2,-9.357878083E-1,-6.340554008E-1,1.134091393E0
2.124746917E0,-3.910354704E-1,-9.493334681E-1,-6.737123868E-1,1.228019199E0
2.134713917E0,-5.345278966E-1,-4.996024776E-1,-3.477982342E-1,8.101150039E-1
2.144680917E0,-1.181826071E0,-2.470857918E-1,-3.292859495E-2,1.207828028E0
2.154647917E0,-8.697388297E-1,-4.693583393E-1,1.206477056E0,1.559592821E0
2.164614917E0,-9.892936322E-1,-8.149346316E-1,5.824164467E-1,1.407845610E0
2.174581917E0,-1.404051841E0,-1.173662481E0,-6.095583446E-1,1.928835547E0
2.184548917E0,-1.979609358E0,-1.178101103E0,-1.009522221E0,2.515136285E0
2.194514917E0,-2.124301340E0,-8.327908587E-1,-7.963299608E-1,2.416679169E0
2.204481917E0,-1.949210853E0,3.927726781E-1,-4.806259239E-1,2.045652611E0
2.214448917E0,-1.624438369E0,1.972230756E0,-6.675847971E-1,2.640864183E0
2.224415917E0,-1.409690604E-1,2.931458298E0,-5.624917670E-1,2.988263211E0
2.234382917E0,1.972809046E0,3.088951297E0,-4.349657477E-1,3.690906508E0
2.244349917E0,2.160716484E0,2.810543141E0,1.259164269E-1,3.547351606E0
2.254316917E0,1.393232153E0,2.429018167E0,1.026772823E0,2.982530388E0
2.264283917E0,8.725522175E-1,1.745090986E0,1.337787977E0,2.365664092E0
2.274250917E0,6.578757879E-1,1.093698884E0,1.168563636E0,1.730467790E0
2.284217917E0,1.080153516E0,4.886974204E-1,1.032550895E0,1.572169882E0
2.294183917E0,1.475769988E0,-1.707369429E-1,1.044696220E0,1.816160332E0
2.304150917E0,1.102878574E0,-7.767078745E-1,1.051728154E0,1.710481915E0
2.314117917E0,6.639995769E-1,-7.299161160E-1,8.601914229E-1,1.309046316E0
2.324084917E0,6.128899419E-1,-4.818339586E-1,5.197687934E-1,9.369939398E-1
2.334051917E0,6.077098936E-1,-4.667411256E-1,9.893956661E-2,7.726238612E-1
2.344018917E0,4.422300361E-1,-7.868048465E-1,-1.165894601E-1,9.100672357E-1
2.353985917E0,1.140921874E-1,-9.994522923E-1,1.089615481E-1,1.011827323E0
2.363952917E0,-3.079616656E-1,-1.032219504E0,2.956849247E-1,1.117025992E0
2.373919917E0,-5.426530413E-1,-1.036128368E0,3.954471946E-3,1.169636677E0
2.383886917E0,-4.219588358E-1,-8.040243119E-1,-4.315571865E-1,1.005358622E0
2.393852917E0,-1.770056697E-1,-5.651825094E-1,-5.765780749E-1,8.265618867E-1
2.403819917E0,-1.984545723E-1,-2.821152914E-1,-4.759259319E-1,5.877744019E-1
2.413786917E0,-5.070158334E-1,8.157450557E-3,-4.726743684E-1,6.932190547E-1
2.423753917E0,-6.672098444E-1,2.296043712E-1,-3.052720561E-1,7.688160846E-1
2.433720917E0,-7.754235336E-1,5.660742098E-1,1.244269584E-1,9.680928341E-1
2.443687917E0,-8.545997306E-1,1.143810107E0,3.651200259E-1,1.473755371E0
2.453654917E0,-2.095976295E-1,8.940071136E-1,1.214972475E0,1.522937294E0
2.463621917E0,9.355428100E-1,2.907019275E-1,1.387941885E0,1.698861571E0
2.473588917E0,1.218651397E0,1.175593817E0,-4.475885707E-1,1.751418733E0
2.483554917E0,1.572850578E0,8.571959674E-1,-7.237034494E-1,1.931939583E0
2.493521917E0,1.784121297E0,3.737218648E-1,-2.564009911E-1,1.840787414E0
2.503488542E0,1.307254987E0,8.879640162E-1,1.271710932E-1,1.585423660E0
2.513455542E0,8.463998146E-1,1.722461092E0,2.965298474E-1,1.941956439E0
2.523422542E0,5.922880085E-1,2.390662771E0,2.728930628E-1,2.478012145E0
2.533389542E0,3.380401084E-1,2.910048133E0,2.777205241E-1,2.942750404E0
2.543356542E0,1.243677553E-1,2.990268424E0,3.963453269E-1,3.018983637E0
2.553323542E0,2.745689845E-2,2.402816793E0,4.782285655E-1,2.450098974E0
2.563290542E0,-6.887033321E-3,1.242741487E0,5.891022992E-1,1.375316456E0
2.573257542E0,-3.134914505E-1,5.226159489E-1,5.726763010E-1,8.362789399E-1
2.583223542E0,-1.202717734E0,1.270967166E0,4.803832644E-1,1.814567598E0
2.593190542E0,-1.891747487E0,2.040007002E0,3.831031376E-1,2.808399035E0
2.603157542E0,-1.614969242E0,2.665783623E0,5.390483791E-1,3.163084117E0
2.613124542E0,-4.182894156E-1,4.193182186E0,6.064679450E-1,4.257410745E0
2.623091542E0,2.185681354E-1,6.350006617E0,6.334452438E-1,6.385264986E0
2.633058542E0,-7.122838372E-1,6.225928701E0,7.799805611E-1,6.314895575E0
2.643025542E0,-7.915891115E-1,5.966188365E0,7.773270947E-1,6.068463919E0
2.652992542E0,-4.853823049E-2,6.870146855E0,6.121262956E-1,6.897533789E0
2.662959542E0,6.853090234E-1,7.907235335E0,5.674746180E-1,7.957138088E0
2.672925542E0,6.516993009E-1,8.060014894E0,6.236265993E-1,8.110330585E0
2.682892542E0,1.011066324E0,6.928306185E0,6.813818872E-1,7.034768154E0
2.692859542E0,2.649935330E0,3.011673326E0,2.335910028E-1,4.018320324E0
2.702826542E0,8.553709783E-1,-8.966681814E0,1.620549386E0,9.152006478E0
2.712793542E0,-1.545713066E0,-2.788669058E1,2.102934737E0,2.800855360E1
2.722760542E0,-2.010533235E0,-3.690012673E1,3.807495164E0,3.715048608E1
2.732727542E0,-2.553263313E0,-3.117210540E1,3.567634776E0,3.147931585E1
2.742694542E0,-1.296439392E0,-1.646305202E1,9.513069034E-1,1.654139721E1
2.752661542E0,1.585098302E-1,-3.729383379E0,1.554330619E-1,3.735985170E0
2.762628542E0,5.221317995E-1,2.267543798E0,-4.605652599E-1,2.372023788E0
2.772594542E0,6.918569548E-1,5.732831835E0,-8.530134541E-1,5.837093356E0
2.782561542E0,9.389112447E-1,7.495528203E0,-9.399264675E-1,7.612355689E0
2.792528542E0,1.051569768E0,8.070180278E0,-1.059241242E0,8.207045797E0
2.802495542E0,1.066723485E0,7.719820964E0,-1.351859302E0,7.909554872E0
2.812462542E0,1.042059491E0,6.219627741E0,-1.600701597E0,6.506297167E0
2.822429542E0,1.130963847E0,3.930987189E0,-1.590687071E0,4.388852340E0
2.832396542E0,9.625506605E-1,1.351892631E0,-1.396582900E0,2.169000059E0
2.842363542E0,2.001977004E-3,2.325431818E-1,-6.137717021E-1,6.563505478E-1
2.852330542E0,-7.733100575E-1,2.629399323E-1,2.261048492E-1,8.475076731E-1
2.862296542E0,-9.167099516E-1,3.782043403E-1,7.443504795E-1,1.239940843E0
2.872263542E0,-7.846031506E-1,1.221107374E0,1.205571833E0,1.886825050E0
2.882230542E0,-4.136023972E-1,2.237075127E0,1.716380865E0,2.849830756E0
2.892197542E0,-8.871921837E-2,2.614932727E0,2.355333163E0,3.520417387E0
2.902164542E0,8.293516727E-1,2.553318862E0,3.162231528E0,4.148128450E0
2.912131542E0,2.106262241E0,3.169172757E0,4.602515348E0,5.971862701E0
2.922098542E0,3.573553328E0,3.836220195E0,6.500481788E0,8.351235373E0
2.932065542E0,5.223626475E0,3.318828149E0,8.537678618E0,1.054480204E1
2.942032542E0,7.124245797E0,1.944990917E0,9.790833997E0,1.226369839E1
2.951998542E0,6.879781896E0,1.602312505E-1,9.898285940E0,1.205541943E1
2.961965542E0,5.072435020E0,-2.146576601E0,9.696212014E0,1.115140868E1
2.971932542E0,3.724412076E0,-4.674138477E0,9.342077152E0,1.109023090E1
2.981899542E0,3.644223653E0,-6.341292511E0,7.942476504E0,1.079700374E1
2.991866542E0,4.149763101E0,-7.257033725E0,5.213786781E0,9.852342101E0
3.001833542E0,5.257919226E0,-7.176165563E0,2.447132110E0,9.226674501E0
3.011800542E0,6.202550948E0,-5.955983804E0,3.548441291E-1,8.606468247E0
3.021767542E0,7.011120300E0,-4.011196954E0,-1.403278693E0,8.198457170E0
3.031734542E0,6.454805678E0,-2.673986682E0,-2.788646195E0,7.522716844E0
3.041700542E0,5.073454190E0,-2.163480316E0,-3.666402727E0,6.622921821E0
3.051667542E0,4.946864895E0,-2.217682836E0,-4.777274006E0,7.225782752E0
3.061634542E0,5.518356550E0,-2.458268863E0,-5.817008936E0,8.386473501E0
3.071601542E0,6.102150162E0,-3.048720115E0,-6.379011145E0,9.339310153E0
3.081568542E0,5.665856073E0,-3.611804643E0,-6.916449201E0,9.642838139E0
3.091535542E0,4.271840100E0,-3.580852407E0,-7.571575921E0,9.402121235E0
3.101502542E0,2.955814290E0,-3.246012188E0,-8.446887147E0,9.519628969E0
3.111469542E0,2.251624461E0,-2.549183711E0,-1.089896439E1,1.141733660E1
3.121436542E0,2.015048162E0,-5.120371664E-1,-1.252393837E1,1.269533904E1
3.131402542E0,1.936228719E0,9.037801498E-1,-1.097938232E1,1.118537600E1
3.141369542E0,1.985292851E0,1.364275864E0,-8.452122159E0,8.788686212E0
3.151336542E0,1.977225448E0,1.353699421E0,-5.960815943E0,6.424425990E0
3.161303542E0,1.783115138E0,1.001740893E0,-4.249610448E0,4.716160872E0
3.171270542E0,1.561191669E0,6.701061165E-1,-3.097260776E0,3.532617436E0
3.181237542E0,1.164341142E0,3.435040390E-1,-2.222586311E0,2.532503748E0
3.191204542E0,9.463760926E-1,2.841220558E-2,-1.594851166E0,1.854719710E0
3.201171542E0,1.015597624E0,-1.932668495E-1,-1.070787739E0,1.488414254E0
3.211138542E0,1.349004691E0,-1.747808772E-1,-5.642946097E-1,1.472681370E0
3.221104542E0,1.758739703E0,-3.712280273E-2,-9.502924114E-2,1.761696343E0
3.231071542E0,2.094350732E0,1.340246147E-1,2.871564683E-1,2.118189421E0
3.241038542E0,2.281161525E0,3.696913791E-1,4.691320521E-1,2.358061598E0
3.251005542E0,2.152919806E0,5.748947346E-1,4.499040681E-1,2.273319449E0
3.260972542E0,1.960328895E0,7.836830181E-1,3.590207952E-1,2.141481819E0
3.270939542E0,1.762367170E0,9.609881383E-1,4.780727372E-1,2.063489711E0
3.280906542E0,1.428728553E0,9.293985558E-1,8.356919548E-1,1.898269738E0
3.290873542E0,1.278633889E0,7.479056597E-1,1.139382010E0,1.868812153E0
3.300840542E0,1.482435667E0,5.844391447E-1,1.379527742E0,2.107672036E0
3.310806542E0,1.495458732E0,3.015841806E-1,1.828781307E0,2.381552205E0
3.320773542E0,1.365713841E0,1.977119029E-2,2.486396894E0,2.836852959E0
3.330740542E0,1.217140330E0,-3.680939198E-2,2.870775894E0,3.118355295E0
3.340707542E0,8.654344019E-1,-1.157450491E-1,2.868921157E0,2.998846816E0
3.350674542E0,7.684701709E-1,-2.173474377E-1,2.662961172E0,2.780134622E0
3.360641542E0,7.841247752E-1,-3.984637731E-1,2.417233542E0,2.572283623E0
3.370608542E0,8.165540180E-1,-5.090685350E-1,2.214902777E0,2.414892451E0
3.380575542E0,9.630112749E-1,-4.708020169E-1,2.015548976E0,2.282867261E0
3.390542542E0,1.068306034E0,-4.376155597E-1,1.678590895E0,2.037265951E0
3.400508542E0,1.007715139E0,-5.812325317E-1,1.238193377E0,1.698953765E0
3.410475542E0,1.179682044E0,-7.366690654E-1,8.532607913E-1,1.631681652E0
3.420442542E0,1.530196017E0,-8.520574343E-1,6.268340895E-1,1.860221142E0
3.430409542E0,1.702187919E0,-9.507496637E-1,4.951515770E-1,2.011602276E0
3.440376542E0,1.907656738E0,-1.062255481E0,6.597527441E-1,2.280967913E0
3.450343542E0,2.308170837E0,-1.429465302E0,1.159176443E0,2.952069391E0
3.460310542E0,2.694346102E0,-1.978822907E0,1.765848164E0,3.780669352E0
3.470277542E0,3.098622884E0,-2.488057503E0,2.299451323E0,4.591227538E0
3.480243542E0,3.359606923E0,-3.025306694E0,2.819447865E0,5.328107125E0
3.490210542E0,2.886653716E0,-3.362893935E0,3.117895600E0,5.418772764E0
3.500177917E0,2.132296238E0,-3.034011444E0,3.105824608E0,4.837154037E0
3.510144917E0,1.317750739E0,-1.879027308E0,2.797065893E0,3.618119435E0
3.520111917E0,-1.822913334E-2,-2.937588519E-1,2.363971986E0,2.382223775E0
3.530078917E0,-1.483634785E0,1.373884009E0,1.893057117E0,2.769908788E0
3.540045917E0,-2.162154606E0,2.639977521E0,1.301876133E0,3.652297266E0
3.550012917E0,-2.452925093E0,3.544984417E0,8.875804389E-1,4.401312879E0
3.559979917E0,-2.330736997E0,4.051656763E0,7.065611672E-1,4.727312784E0
3.569945917E0,-2.055635440E0,4.057130342E0,6.819421235E-1,4.599020410E0
3.579912917E0,-1.883975953E0,3.529375859E0,7.399785894E-1,4.068590378E0
3.589879917E0,-1.972301508E0,2.371244752E0,8.004002076E-1,3.186442437E0
3.599846917E0,-2.081333076E0,7.932133949E-1,7.581732973E-1,2.352862429E0
3.609813917E0,-2.094801260E0,-8.595184815E-1,5.570683283E-1,2.331799619E0
3.619780917E0,-2.211405412E0,-2.351288205E0,3.043621197E-1,3.242145342E0
3.629747917E0,-2.375025124E0,-3.386966922E0,-4.040601432E-2,4.136897620E0
3.639714917E0,-2.313534196E0,-3.737898095E0,-6.067806979E-1,4.437623852E0
3.649680917E0,-2.376950319E0,-3.186772876E0,-1.337103853E0,4.194432131E0
3.659647917E0,-2.542050108E0,-1.743652571E0,-2.160543845E0,3.764344929E0
3.669614917E0,-2.304925925E0,4.009435773E-3,-2.544898871E0,3.433541883E0
3.679581917E0,-1.795699661E0,1.409968931E0,-2.578489956E0,3.444003500E0
3.689548917E0,-1.347718011E0,2.340018867E0,-2.453516246E0,3.648530403E0
3.699515917E0,-1.035562942E0,2.793490321E0,-2.226251931E0,3.719163406E0
3.709482917E0,-8.670735227E-1,2.846878908E0,-1.903333599E0,3.532593212E0
3.719449917E0,-8.675296786E-1,2.646647440E0,-1.475158369E0,3.151736447E0
3.729416917E0,-9.435754956E-1,2.266134034E0,-1.187668317E0,2.726949616E0
3.739382917E0,-1.346158267E0,1.839198999E0,-1.241588270E0,2.595445331E0
3.749349917E0,-1.794554923E0,1.447275336E0,-1.139706531E0,2.571762867E0
3.759316917E0,-1.656216963E0,1.254285645E0,-7.065817056E-1,2.194434965E0
3.769283917E0,-1.471369958E0,1.067127382E0,-5.406206954E-1,1.896301964E0
3.779250917E0,-1.382671205E0,8.279411781E-1,-2.169767243E-1,1.626144260E0
3.789217917E0,-1.210945352E0,5.065244114E-1,1.562620874E-1,1.321882545E0
3.799184917E0,-9.388227325E-1,2.228169233E-1,5.095093419E-1,1.091162350E0
3.809151917E0,-5.868610615E-1,-6.022632122E-3,7.618495148E-1,9.616947857E-1
3.819117917E0,-4.732950503E-1,-2.258539671E-1,9.590374341E-1,1.093055817E0
3.829084917E0,-2.100384182E-1,-3.779581726E-1,1.275433270E0,1.346736256E0
3.839051917E0,2.441345559E-1,-4.371162075E-1,1.477358530E0,1.559891178E0
3.849018917E0,5.430360340E-1,-4.343247467E-1,1.543552081E0,1.692949836E0
3.858985917E0,8.275526306E-1,-2.664494312E-1,1.381299156E0,1.632123161E0
3.868952917E0,9.550067291E-1,3.494237602E-2,1.277289615E0,1.595220230E0
3.878919917E0,1.050011412E0,3.033722591E-1,1.265639184E0,1.672244371E0
3.888886917E0,1.203102043E0,5.217774582E-1,1.225731206E0,1.795027362E0
3.898853917E0,1.420809230E0,6.199200493E-1,1.246016513E0,1.988858187E0
3.908819917E0,1.745499415E0,5.756297296E-1,1.233968909E0,2.213774393E0
3.918786917E0,2.093920523E0,4.409736156E-1,1.237552083E0,2.471941756E0
3.928753917E0,2.391117246E0,3.171231562E-1,1.213947458E0,2.700310577E0
3.938720917E0,2.637894158E0,2.297400266E-1,1.178904949E0,2.898462170E0
3.948687917E0,2.939594406E0,1.405501074E-1,1.083356767E0,3.136021602E0
3.958654917E0,3.222728867E0,-6.887727678E-2,9.241144270E-1,3.353313720E0
3.968621917E0,3.598166013E0,-4.955404168E-1,7.646300121E-1,3.711740564E0
3.978588917E0,4.069335235E0,-1.155971146E0,6.155147570E-1,4.274882099E0
3.988554917E0,4.635111821E0,-1.781792205E0,5.263757086E-1,4.993607558E0
3.998521917E0,5.041954070E0,-2.198474733E0,5.189324954E-1,5.524842344E0
4.008488917E0,5.123335617E0,-2.350946143E0,5.749964762E-1,5.666227719E0
4.018455917E0,5.218458706E0,-2.194246611E0,3.198565833E-1,5.670038597E0
4.028422917E0,5.076712258E0,-1.884162333E0,4.018390784E-1,5.429967744E0
4.038389917E0,5.043831026E0,-1.611099701E0,6.163953477E-1,5.330648824E0
4.048356917E0,5.327084770E0,-1.726688045E0,9.119016400E-1,5.673697943E0
4.058323917E0,5.674990593E0,-2.055424941E0,7.613554251E-1,6.083580525E0
4.068290917E0,5.992137138E0,-2.483462761E0,3.435496473E-1,6.495484672E0
4.078256917E0,6.219989099E0,-2.925653767E0,8.487101957E-2,6.874221225E0
4.088223917E0,6.232865252E0,-3.081165145E0,-1.025733188E-2,6.952862225E0
4.098190917E0,6.391495535E0,-2.929520531E0,-5.622705960E-1,7.053329281E0
4.108157917E0,6.993421948E0,-2.347527861E0,-1.785297026E0,7.589869766E0
4.118124917E0,7.823227218E0,-1.498091149E0,-3.979179356E0,8.903989530E0
4.128091917E0,7.324883062E0,-5.458060062E-1,-4.356935214E0,8.540181528E0
4.138058917E0,6.156291870E0,2.435277611E-1,-2.153390361E0,6.526586046E0
4.148025917E0,5.049362492E0,7.270761234E-1,-1.083535253E0,5.215242076E0
4.157991917E0,3.972752388E0,1.098263220E0,-6.652599442E-1,4.175106518E0
4.167958917E0,3.088063690E0,1.121528122E0,-9.912667751E-2,3.286911739E0
4.177925917E0,2.566484160E0,5.519812506E-1,4.462939972E-1,2.662837317E0
4.187892917E0,2.226340808E0,-4.735543013E-1,1.125258645E0,2.539104978E0
4.197859917E0,1.869090550E0,-1.785791700E0,1.824680947E0,3.164176360E0
4.207826917E0,1.315833144E0,-3.170521125E0,2.317475658E0,4.141776731E0
4.217793917E0,8.313867230E-1,-4.389418252E0,2.770330085E0,5.256702887E0
4.227760917E0,7.123925954E-1,-5.132240927E0,3.303036281E0,6.144709010E0
4.237726917E0,1.018688389E-1,-6.276324098E0,4.522940006E0,7.736899104E0
4.247693917E0,-6.962868053E-1,-6.686082353E0,5.033812407E0,8.398081917E0
4.257660917E0,-1.614892936E0,-6.065236105E0,4.882748421E0,7.952119236E0
4.267627917E0,-2.759061038E0,-5.056715366E0,4.569733518E0,7.352907760E0
4.277594917E0,-3.388753831E0,-3.257189725E0,3.973688235E0,6.154927751E0
4.287561917E0,-4.254564502E0,-1.516661321E0,3.422433209E0,5.666977125E0
4.297528917E0,-4.829114835E0,9.361976981E-3,2.651790066E0,5.509303794E0
4.307495917E0,-4.823495661E0,1.483064974E0,1.727719347E0,5.333910972E0
4.317461917E0,-4.497627409E0,2.741926065E0,1.138787202E0,5.389215819E0
4.327428917E0,-4.126633270E0,3.701548879E0,6.315038221E-1,5.579369438E0
4.337395917E0,-3.990927581E0,4.379375074E0,1.461675274E-1,5.926870502E0
4.347362917E0,-4.477052811E0,4.457478672E0,-3.724062413E-1,6.328649492E0
4.357329917E0,-4.672628142E0,4.255402408E0,-6.219835317E-1,6.350493439E0
4.367296917E0,-5.109505783E0,3.978803380E0,-6.101647009E-1,6.504631169E0
4.377263917E0,-5.893170674E0,3.497483976E0,-1.037905337E0,6.931024617E0
4.387230917E0,-6.753949816E0,2.820418503E0,-1.766248259E0,7.529291571E0
4.397196917E0,-7.315094823E0,2.430879335E0,-2.501546445E0,8.104166905E0
4.407163917E0,-7.354607967E0,2.483499014E0,-2.940010436E0,8.300704010E0
4.417130917E0,-7.332956897E0,2.596912778E0,-3.021938405E0,8.345557175E0
4.427097917E0,-7.170535280E0,2.765264642E0,-2.894166803E0,8.212153568E0
4.437064917E0,-6.850635281E0,3.002240013E0,-2.765273120E0,7.974420623E0
4.447031917E0,-6.323587142E0,3.245360223E0,-2.914514821E0,7.682090468E0
4.456998917E0,-5.829396263E0,3.340221357E0,-3.348994811E0,7.506977138E0
4.466964917E0,-5.403493261E0,3.196972175E0,-4.623200458E0,7.796945106E0
4.476931917E0,-4.714690672E0,2.410220538E0,-6.098386309E0,8.076372128E0
4.486898917E0,-3.329490254E0,1.221711391E0,-5.949457726E0,6.926336067E0
4.496865917E0,-1.891218168E0,7.362925047E-1,-4.822173606E0,5.231843948E0
4.506833292E0,-4.606006721E-1,8.204275060E-1,-4.087542295E0,4.194431581E0
4.516800292E0,1.712363974E0,2.954685777E-1,-2.977536696E0,3.447494284E0
4.526767292E0,4.245170950E0,-1.412377399E0,-1.510677280E0,4.722121574E0
4.536734292E0,7.587523032E0,-3.774102885E0,2.068005225E-1,8.476858191E0
4.546701292E0,1.076596480E1,-6.025692555E0,2.083154191E0,1.251217408E1
4.556667292E0,1.160304634E1,-7.683217978E0,3.045508824E0,1.424561852E1
4.566634292E0,1.023449148E1,-8.795233265E0,2.939910448E0,1.381101074E1
4.576601292E0,9.049269058E0,-8.495746481E0,2.796187642E0,1.272342894E1
4.586568292E0,8.205580743E0,-6.047076992E0,2.533852311E0,1.050329010E1
4.596535292E0,7.442389292E0,-1.523996653E0,1.452639133E0,7.734460849E0
4.606502292E0,5.231538343E0,2.220391851E0,9.418560487E-1,5.760748755E0
4.616469292E0,2.667323779E0,4.290777478E0,1.190621746E0,5.190661581E0
4.626435292E0,1.509054386E0,4.970853097E0,1.620567074E0,5.441770235E0
4.636402292E0,1.619563253E0,3.757030184E0,2.186280949E0,4.638759029E0
4.646369292E0,2.312964385E0,8.872798920E-1,2.611109818E0,3.599300534E0
4.656336292E0,3.070477604E0,-2.082453695E0,2.879444391E0,4.696343909E0
4.666303292E0,2.070912753E0,-4.254861540E0,3.154110914E0,5.686909707E0
4.676270292E0,1.631133431E-1,-5.048025234E0,3.168224339E0,5.962114573E0
4.686237292E0,-2.493581660E-1,-3.968029885E0,2.658457062E0,4.782764327E0
4.696204292E0,-9.540572874E-1,-1.945108446E0,1.908320689E0,2.887102359E0
4.706170292E0,-2.121535461E0,-6.455653524E-1,1.129839354E0,2.488815844E0
4.716137292E0,-2.352660839E0,-1.490905505E-1,3.518386602E-1,2.383491443E0
4.726104292E0,-1.958121425E0,-1.329534048E-1,-6.958478987E-2,1.963863072E0
4.736071292E0,-1.864492300E0,-7.225334215E-1,-3.577455175E-1,2.031346336E0
4.746038292E0,-2.794621173E0,-1.784341591E0,-9.112283331E-1,3.438621742E0
4.756005292E0,-3.998062938E0,-2.573579464E0,-1.890269165E0,5.116730991E0
4.765972292E0,-4.723563237E0,-2.383893449E0,-2.448926620E0,5.830286376E0
4.775938292E0,-5.215194790E0,-1.813225082E0,-2.628275489E0,6.115053061E0
4.785905292E0,-5.980895866E0,-1.152947550E0,-3.043340092E0,6.808988348E0
4.795872292E0,-6.453256166E0,-5.279509485E-2,-3.337506495E0,7.265414790E0
4.805839292E0,-6.890265954E0,9.092771173E-1,-3.003766136E0,7.571338111E0
4.815806292E0,-7.384424674E0,1.585801138E0,-2.417940617E0,7.930380182E0
4.825773292E0,-7.178051875E0,2.569429110E0,-2.093792616E0,7.906349486E0
4.835740292E0,-6.971715329E0,3.502117310E0,-1.421026016E0,7.930255684E0
4.845707292E0,-7.652269251E0,3.916695424E0,-3.880604070E-1,8.605133271E0
4.855673292E0,-8.232480274E0,4.074585450E0,-7.349236715E-1,9.214992721E0
4.865640292E0,-7.544496880E0,4.233164277E0,-4.349819738E-1,8.661889072E0
4.875607292E0,-6.698183166E0,4.484246056E0,-5.613450549E-1,8.080175040E0
4.885574292E0,-6.241987494E0,4.398938688E0,3.194374841E-1,7.642977807E0
4.895541292E0,-4.349189993E0,4.011297526E0,1.389896317E-1,5.918215910E0
4.905508292E0,-2.509938076E0,3.700507489E0,-3.175066604E-1,4.482672786E0
4.915475292E0,-1.937376527E0,3.053331814E0,-5.886375187E-1,3.663708108E0
4.925442292E0,-1.762054490E0,2.134950582E0,-5.730013331E-1,2.826867620E0
4.935408292E0,-1.484708042E0,1.130143994E0,-3.308185778E-1,1.894999828E0
4.945375292E0,-1.214411800E0,9.428050518E-2,1.091159876E-1,1.222943634E0
4.955342292E0,-1.090744066E0,-8.508610940E-1,5.926883235E-1,1.504980621E0
4.965309292E0,-8.955610111E-1,-1.537579150E0,1.157504286E0,2.122732988E0
4.975276292E0,-5.727165006E-1,-2.067170827E0,1.695733470E0,2.734357588E0
4.985243292E0,-1.428004083E-1,-2.353212524E0,2.048812909E0,3.123401267E0
4.995210292E0,4.436615076E-1,-2.505478113E0,2.350452054E0,3.463940092E0
5.005177292E0,1.073424760E0,-2.460694288E0,2.404702667E0,3.604143727E0
5.015143292E0,1.728614118E0,-2.276623939E0,2.280336336E0,3.656645613E0
5.025110292E0,2.355084364E0,-2.063498191E0,1.974556194E0,3.701799469E0
5.035077292E0,3.295830173E0,-1.840909894E0,1.672483186E0,4.129000578E0
5.045044292E0,4.123527522E0,-1.652146570E0,1.450237828E0,4.672928126E0
5.055011292E0,4.973285539E0,-1.474452025E0,1.086792445E0,5.299876946E0
5.064978292E0,5.895577973E0,-1.348895348E0,5.617557487E-1,6.073954875E0
5.074945292E0,6.564063241E0,-1.468073882E0,-2.766194934E-1,6.731915441E0
5.084911292E0,9.626279315E0,-1.657923034E0,-5.103308319E0,1.102078573E1
5.094878292E0,1.342673443E1,-2.058257917E0,-1.057712429E1,1.721595717E1
5.104845292E0,1.089867203E1,-2.799451557E0,-5.687206596E0,1.260802522E1
5.114812292E0,8.062235667E0,-3.364262184E0,-6.171373594E-1,8.757782967E0
5.124779292E0,7.561489474E0,-3.344030233E0,8.559287296E-1,8.312116172E0
5.134746292E0,8.186455670E0,-3.042478797E0,1.733801767E0,8.903976765E0
5.144713292E0,9.968002292E0,-1.920513303E0,2.168388469E0,1.038033475E1
5.154679292E0,1.128012216E1,-6.091997641E-1,2.225878294E0,1.151376630E1
5.164646292E0,1.154843335E1,4.819655210E-1,2.391361659E0,1.180327133E1
5.174613292E0,1.047628555E1,1.597842894E0,2.248597504E0,1.083336750E1
5.184580292E0,9.530478534E0,2.521646249E0,1.875128970E0,1.003517960E1
5.194547292E0,9.136052848E0,3.231057349E0,1.002851717E0,9.742325430E0
5.204514292E0,9.037968729E0,3.697807245E0,-5.113935341E-1,9.778557179E0
5.214481292E0,8.915359048E0,3.889568437E0,-1.560706204E0,9.851303134E0
5.224448292E0,8.066542726E0,3.738761144E0,-1.689626053E0,9.049987991E0
5.234414292E0,6.766517236E0,3.311445454E0,-1.195798359E0,7.627670694E0
5.244381292E0,5.681111459E0,2.397126283E0,-6.010903338E-1,6.195365317E0
5.254348292E0,4.803977948E0,7.337922353E-1,1.430667490E-1,4.861802470E0
5.264315292E0,4.058763761E0,-1.636833297E0,1.182899913E0,4.533435641E0
5.274282292E0,2.680359270E0,-4.850286434E0,2.537374089E0,6.094905378E0
5.284249292E0,4.291419210E-1,-8.881442859E0,4.103370708E0,9.792948545E0
5.294216292E0,-1.641513116E0,-1.273296346E1,6.105442729E0,1.421616526E1
5.304182292E0,-4.065506770E0,-1.616925867E1,7.511615063E0,1.828654237E1
5.314149292E0,-6.137691877E0,-1.837365780E1,8.197723255E0,2.103485748E1
5.324116292E0,-6.161323400E0,-1.769520770E1,6.449475356E0,1.981610492E1
5.334083292E0,-5.471423873E0,-1.431497444E1,3.243667162E0,1.566449326E1
5.344050292E0,-4.862294568E0,-9.890816706E0,9.926934958E-2,1.102179740E1
5.354017292E0,-4.349378858E0,-5.801087553E0,-1.564045987E0,7.417273966E0
5.363984292E0,-3.704249707E0,-8.954893827E-1,-3.944956772E0,5.485075301E0
5.373951292E0,-3.182973356E0,3.438349915E0,-7.261233780E0,8.641706170E0
5.383917292E0,-3.728863269E0,3.317433588E0,-8.158746300E0,9.564252615E0
5.393884292E0,-1.891291112E0,3.813876815E0,-1.414932749E1,1.477586231E1
5.403851292E0,5.006845048E-1,4.862104826E0,-2.098212994E1,2.154392084E1
5.413818292E0,-2.249174916E0,3.523964846E0,-1.626036647E1,1.678918205E1
5.423785292E0,-4.977255798E0,2.391993012E0,-1.177615199E1,1.300663145E1
5.433752292E0,-6.122230670E0,2.343076960E0,-7.155644175E0,9.704378475E0
5.443719292E0,-5.417859285E0,3.018814530E0,-4.662983744E0,7.759501131E0
5.453685292E0,-5.050339562E0,3.412592930E0,-3.253280569E0,6.909092173E0
5.463652292E0,-4.930212024E0,3.629719343E0,-2.081216132E0,6.466321497E0
5.473619292E0,-4.810561912E0,3.749880209E0,-1.692053817E0,6.329783062E0
5.483586292E0,-4.654026394E0,3.909485807E0,-1.567472456E0,6.277022452E0
5.493553292E0,-4.567511576E0,4.084576002E0,-1.297201284E0,6.263278238E0
5.503519542E0,-4.639493725E0,4.199631665E0,-8.931385097E-1,6.321353062E0
5.513486542E0,-4.628633983E0,4.300934676E0,-3.560936791E-1,6.328435379E0
5.523452542E0,-4.440616472E0,4.454514134E0,1.819945872E-3,6.289815111E0
5.533419542E0,-4.405992184E0,4.576796955E0,2.347312099E-1,6.357274277E0
5.543386542E0,-4.424792444E0,4.593517068E0,4.218953204E-1,6.391962366E0
5.553353542E0,-4.233496399E0,4.487620484E0,6.277038628E-1,6.201229032E0
5.563320542E0,-4.084160265E0,3.783632677E0,1.066814994E0,5.668715510E0
5.573287542E0,-3.238086872E0,2.758890592E0,1.525277193E0,4.519198425E0
5.583254542E0,-1.149475328E0,2.161551905E0,1.333302578E0,2.787704420E0
5.593220542E0,1.661994597E0,6.737904471E-1,1.059995825E0,2.083221245E0
5.603187542E0,5.453854744E0,-2.293614194E0,1.732875276E0,6.165067264E0
5.613154542E0,9.565985166E0,-5.804849067E0,2.350834754E0,1.143375568E1
5.623121542E0,1.117559032E1,-9.116161205E0,2.208449205E0,1.459025229E1
5.633088542E0,1.002480331E1,-1.135193650E1,1.679528204E0,1.523758375E1
5.643055542E0,8.783654609E0,-1.137167903E1,8.180453503E-1,1.439225036E1
5.653022542E0,7.819821800E0,-8.844970266E0,-6.141000232E-1,1.182202313E1
5.662988542E0,5.833178827E0,-4.226715968E0,-1.570291106E0,7.372714375E0
5.672955542E0,2.694442873E0,-1.819378692E-1,-1.712883646E0,3.197982828E0
5.682922542E0,6.783389962E-1,2.048405943E0,-1.742042833E0,2.773233480E0
5.692889542E0,9.434505844E-1,2.499421567E0,-1.297424940E0,2.969935799E0
5.702856542E0,1.707922283E0,8.451138657E-1,-5.498698211E-1,1.983323673E0
5.712823542E0,1.867179826E0,-2.342690459E0,2.729724388E-1,3.008167722E0
5.722790542E0,2.593382229E0,-5.489326878E0,9.100901726E-1,6.138941691E0
5.732756542E0,1.939893169E0,-7.636165434E0,1.166464997E0,7.964599716E0
5.742723542E0,2.132513170E-1,-7.478378904E0,6.360566103E-1,7.508408298E0
5.752690542E0,-7.813996804E-1,-4.446588818E0,-5.869706967E-1,4.552721403E0
5.762657542E0,-1.716601744E0,-1.333810117E0,-1.737629062E0,2.783006599E0
5.772624542E0,-2.318719507E0,5.173177868E-1,-2.299735936E0,3.306488049E0
5.782591542E0,-3.171451125E0,1.312636179E0,-2.694076545E0,4.363389097E0
5.792558542E0,-3.592050410E0,1.374001538E0,-2.935584386E0,4.838218893E0
5.802524542E0,-3.886419419E0,1.052295334E0,-3.125808344E0,5.097279586E0
5.812491542E0,-4.455841452E0,4.197300965E-1,-3.778238035E0,5.857113543E0
5.822458542E0,-4.842567817E0,-8.258958220E-2,-4.512357715E0,6.619566167E0
5.832425542E0,-4.802918140E0,-1.580052155E-1,-4.875582658E0,6.845750109E0
5.842392542E0,-4.890167368E0,6.845744669E-2,-4.721691251E0,6.797999087E0
5.852359542E0,-5.726712724E0,1.931475663E-1,-4.424657666E0,7.239484793E0
5.862326542E0,-6.790746928E0,3.592704713E-1,-4.252302799E0,8.020311603E0
5.872292542E0,-8.110899704E0,3.251677555E-1,-4.040437126E0,9.067389935E0
5.882259542E0,-8.240085163E0,3.264237374E-1,-3.252482716E0,8.864772967E0
5.892226542E0,-7.691107042E0,7.464245600E-1,-2.125965896E0,8.014362616E0
5.902193542E0,-7.323937567E0,1.347044120E0,-1.174373649E0,7.538815743E0
5.912160542E0,-6.377045311E0,2.103097290E0,-4.954065887E-1,6.733138407E0
5.922127542E0,-4.929842480E0,2.659369227E0,3.482185028E-2,5.601500168E0
5.932094542E0,-3.849965830E0,2.909029548E0,6.655055273E-1,4.871097146E0
5.942060542E0,-3.662745294E0,2.868820000E0,2.355072523E0,5.214613876E0
5.952027542E0,-3.553058252E0,2.325487951E0,5.792220250E0,7.182056292E0
5.961994542E0,-3.951184641E0,1.633064182E0,6.323074926E0,7.632826162E0
5.971961542E0,-3.975022862E0,1.293889421E0,4.084857253E0,5.844742541E0
5.981928542E0,-2.429865136E0,1.404864312E0,2.847075959E0,3.997965712E0
5.991895542E0,-1.138816000E0,1.499575757E0,1.798141020E0,2.603639848E0
6.001862542E0,-3.299747515E-1,1.248612676E0,1.453139509E0,1.944101691E0
6.011828542E0,1.038156328E-1,7.319556248E-1,1.841635534E0,1.984479317E0
6.021795542E0,1.881331404E-1,7.183889151E-3,2.501154097E0,2.508229954E0
6.031762542E0,2.017097904E-1,-6.568937480E-1,2.893132723E0,2.973619543E0
6.041729542E0,5.298125558E-1,-1.042545687E0,2.993870893E0,3.214166420E0
6.051696542E0,9.681723929E-1,-1.195193099E0,3.102922634E0,3.463231612E0
6.061663542E0,1.412782757E0,-1.121225236E0,3.257548744E0,3.723536621E0
6.071630542E0,1.845468383E0,-9.964918470E-1,3.107194610E0,3.748787524E0
6.081596542E0,2.200244392E0,-7.933069503E-1,2.696073954E0,3.569205243E0
6.091563542E0,2.602405360E0,-5.665946120E-1,2.229049239E0,3.473068329E0
6.101530542E0,3.100063638E0,-3.624086720E-1,1.743400118E0,3.575077423E0
6.111497542E0,3.591499602E0,-2.220626324E-1,1.267520818E0,3.815074079E0
6.121464542E0,4.120640167E0,-1.295643586E-1,9.515331906E-1,4.231061063E0
6.131431542E0,4.576306958E0,-4.174151838E-2,6.135033149E-1,4.617435874E0
6.141398542E0,4.943450705E0,2.674516439E-3,2.548595189E-1,4.950016707E0
6.151364542E0,5.405435706E0,-1.034933782E-1,-4.771634951E-2,5.406636931E0
6.161331542E0,5.900060449E0,-4.329635149E-1,-2.405234617E-1,5.920812633E0
6.171298542E0,6.338099931E0,-8.456208193E-1,-3.570929682E-1,6.404225222E0
6.181265542E0,6.681888145E0,-1.225596281E0,-5.211310485E-1,6.813317327E0
6.191232542E0,7.063999595E0,-1.686726419E0,-5.901495355E-1,7.286522680E0
6.201199542E0,7.527009028E0,-2.122527003E0,-5.513839576E-1,7.839962375E0
6.211166542E0,8.374838925E0,-2.320737088E0,-1.095301167E0,8.759191304E0
6.221132542E0,9.560365992E0,-2.343185719E0,-2.945103360E0,1.027447084E1
6.231099542E0,1.023309868E1,-1.984248539E0,-4.004770280E0,1.116654538E1
6.241066542E0,1.001345738E1,-1.417888985E0,-2.235349906E0,1.035743825E1
6.251033542E0,9.970669792E0,-6.338633198E-1,-7.519753218E-1,1.001905713E1
6.261000542E0,1.012236645E1,9.149430692E-2,-1.627611946E-1,1.012408835E1
6.270967542E0,9.910915926E0,7.481986052E-1,2.451848620E-1,9.942141180E0
6.280934542E0,9.388004107E0,1.479183007E0,1.911865564E-1,9.505743306E0
6.290900542E0,8.762209945E0,2.041724330E0,-1.659771632E-1,8.998472636E0
6.300867542E0,8.063534918E0,2.304298811E0,-4.719164962E-1,8.399588892E0
6.310834542E0,7.044503224E0,2.339231247E0,-6.709054309E-1,7.452995545E0
6.320801542E0,5.973907859E0,2.044476614E0,-5.523409275E-1,6.338181145E0
6.330768542E0,5.040844268E0,1.437639710E0,-3.577133578E-1,5.254034423E0
6.340735542E0,4.223731549E0,4.008383274E-1,-9.796658993E-2,4.243839890E0
6.350701542E0,3.243160793E0,-1.373961777E0,4.176555043E-1,3.546871722E0
6.360668542E0,1.892018944E0,-4.187930802E0,1.479640260E0,4.827818905E0
6.370635542E0,2.108325431E-1,-7.957880409E0,2.907270706E0,8.474935629E0
6.380602542E0,-1.545170883E0,-1.144758525E1,4.911685706E0,1.255226743E1
6.390569542E0,-3.401404867E0,-1.420569231E1,6.188592474E0,1.586410811E1
6.400536542E0,-5.266568427E0,-1.620657326E1,6.778177754E0,1.833939621E1
6.410503542E0,-6.351938537E0,-1.643133204E1,6.165369673E0,1.866407188E1
6.420469542E0,-6.131602587E0,-1.439553971E1,3.979880437E0,1.614520245E1
6.430436542E0,-5.244629089E0,-1.048676142E1,1.493927931E0,1.181990355E1
6.440403542E0,-4.924582910E0,-6.278163632E0,-1.302882585E0,8.084822723E0
6.450370542E0,-3.507425412E0,-8.274008954E-1,-4.309493830E0,5.617683004E0
6.460337542E0,-3.547921766E0,2.385859283E0,-6.748737023E0,7.989087857E0
6.470304542E0,-4.232873378E0,2.442033484E0,-8.379082249E0,9.699987831E0
6.480271542E0,-1.697015326E0,3.819719937E0,-1.485887308E1,1.543555087E1
6.490237542E0,-9.520918190E-1,4.765259732E0,-1.538977687E1,1.613875495E1
6.500205167E0,-2.122920082E0,4.370201962E0,-1.273381599E1,1.362921584E1
6.510172167E0,-3.120077488E0,3.926349177E0,-1.020456193E1,1.137032038E1
6.520139167E0,-3.764530993E0,3.918653657E0,-6.977266091E0,8.843629469E0
6.530106167E0,-3.993665248E0,4.004439327E0,-4.758518769E0,7.391102578E0
6.540073167E0,-4.149132771E0,3.943939356E0,-3.355845702E0,6.635635672E0
6.550039167E0,-4.030300977E0,3.740786619E0,-2.588136692E0,6.077438773E0
6.560006167E0,-3.593832934E0,3.556698729E0,-1.882815719E0,5.395436594E0
6.569973167E0,-3.298907855E0,3.356953164E0,-9.521664441E-1,4.801931749E0
6.579940167E0,-3.296394721E0,3.082635135E0,-1.794016394E-1,4.516751320E0
6.589907167E0,-3.419593801E0,2.960787347E0,7.210108066E-1,4.580364621E0
6.599874167E0,-3.909146669E0,2.997937632E0,1.579784938E0,5.173468679E0
6.609841167E0,-4.471802012E0,3.090115478E0,2.051704942E0,5.809932880E0
6.619807167E0,-4.504248211E0,3.438186777E0,1.979260571E0,6.002237306E0
6.629774167E0,-4.267758744E0,3.884942120E0,1.735712345E0,6.026544392E0
6.639741167E0,-4.090213595E0,4.141592202E0,1.031124905E0,5.911501653E0
6.649708167E0,-3.987007608E0,4.058907310E0,-1.046081498E-1,5.690509738E0
6.659675167E0,-3.639950508E0,3.577491428E0,-5.481764674E-1,5.133048028E0
6.669642167E0,-3.328766661E0,2.443653747E0,-7.196603921E-1,4.191663417E0
6.679608167E0,-1.925324685E0,1.561727566E0,-4.485232481E-1,2.519333490E0
6.689575167E0,2.321691062E-1,9.296417999E-1,-5.121280906E-1,1.086467464E0
6.699542167E0,2.769437799E0,-1.578894407E-1,-5.476858860E-1,2.827485567E0
6.709509167E0,6.395198577E0,-2.353031260E0,1.559981588E-1,6.816132069E0
6.719476167E0,1.043870900E1,-5.388670569E0,9.532271290E-1,1.178613839E1
6.729443167E0,1.259941189E1,-8.751198469E0,1.173702242E0,1.538526020E1
6.739410167E0,1.175669363E1,-1.147730314E1,9.167419651E-1,1.645566007E1
6.749376167E0,9.822829961E0,-1.195076973E1,5.094746241E-1,1.547799890E1
6.759343167E0,7.996349825E0,-9.070524856E0,-5.646398878E-1,1.210515799E1
6.769310167E0,5.475923890E0,-3.547236764E0,-1.387533165E0,6.670373258E0
6.779277167E0,2.809368728E0,6.997175860E-1,-1.398461903E0,3.215253185E0
6.789244167E0,1.612415032E0,2.337339672E0,-4.944423097E-1,2.882275521E0
6.799211167E0,2.845844828E0,1.816128225E0,-4.909271099E-1,3.411475332E0
6.809177167E0,3.732674485E0,-4.114808446E-1,-3.373901904E-1,3.770412104E0
6.819144167E0,3.359785263E0,-3.474302689E0,2.253932065E-1,4.838361116E0
6.829111167E0,1.364120621E0,-5.572093046E0,6.209121756E-1,5.770145398E0
6.839078167E0,-8.878537962E-1,-6.075714315E0,7.058675413E-1,6.180682631E0
6.849045167E0,-2.078917737E0,-4.442396364E0,3.201694094E-1,4.915210358E0
6.859012167E0,-2.520932304E0,-1.767847180E0,-4.933325082E-1,3.118294453E0
6.868979167E0,-2.703617447E0,1.193697381E-1,-1.279844409E0,2.993626254E0
6.878945167E0,-3.050273135E0,1.048297008E0,-1.818615046E0,3.702762955E0
6.888912167E0,-3.667637367E0,1.169224445E0,-2.274494676E0,4.471238719E0
6.898879167E0,-4.642040772E0,7.389705294E-1,-2.777685882E0,5.459868023E0
6.908846167E0,-5.675822652E0,1.793335193E-1,-3.356683900E0,6.596548347E0
6.918813167E0,-6.234928150E0,5.819149017E-3,-3.789780731E0,7.296355316E0
6.928780167E0,-6.535017782E0,1.518153530E-1,-3.535231261E0,7.431511649E0
6.938746167E0,-6.528127424E0,7.489119655E-1,-3.407651448E0,7.401986570E0
6.948713167E0,-6.882056463E0,1.243154300E0,-3.766780124E0,7.943347297E0
6.958680167E0,-7.868636110E0,1.440728794E0,-3.959455235E0,8.925716747E0
6.968647167E0,-8.637564265E0,1.483910481E0,-3.909844242E0,9.596686341E0
6.978614167E0,-8.729716383E0,1.588054070E0,-3.648329276E0,9.593756843E0
6.988581167E0,-8.142311531E0,2.140172145E0,-2.875779064E0,8.896498137E0
6.998548167E0,-7.409390531E0,2.898020995E0,-2.302975148E0,8.282589465E0
7.008514167E0,-6.339258850E0,3.249450350E0,-1.848887397E0,7.359586602E0
7.018481167E0,-5.406796353E0,3.089713774E0,-1.027914272E0,6.311607225E0
7.028448167E0,-4.525667147E0,3.098017990E0,-6.970380264E-1,5.528583960E0
7.038415167E0,-3.981862643E0,3.031136953E0,-1.547863233E-1,5.006693533E0
7.048382167E0,-3.867156352E0,2.531922730E0,1.579607036E-1,4.624984599E0
7.058349167E0,-3.359925304E0,1.866200271E0,4.971992719E-1,3.875436571E0
7.068315167E0,-2.454709370E0,1.286456441E0,7.246314756E-1,2.864552154E0
7.078282167E0,-1.511340355E0,7.364731836E-1,1.338403105E0,2.148921890E0
7.088249167E0,-1.069969567E0,3.114952111E-1,2.107892591E0,2.384339598E0
7.098216167E0,-8.431141180E-1,-1.996765673E-2,2.769416165E0,2.894979450E0
7.108183167E0,-7.122329664E-1,-4.811170900E-1,3.428804920E0,3.534890752E0
7.118150167E0,-4.605826919E-1,-1.012784529E0,4.074976044E0,4.224132890E0
7.128117167E0,-1.447373716E-1,-1.644974375E0,4.703686212E0,4.985133257E0
7.138083167E0,3.408041603E-1,-2.079040090E0,5.102684421E0,5.520502103E0
7.148050167E0,1.079362388E0,-2.121385041E0,4.857295491E0,5.409123510E0
7.158017167E0,1.838661201E0,-1.967833065E0,4.193466361E0,4.983793947E0
7.167984167E0,2.329728937E0,-1.689631315E0,3.470559302E0,4.508577688E0
7.177951167E0,2.969841176E0,-1.446007660E0,2.790974849E0,4.324400001E0
7.187918167E0,3.670545187E0,-1.108094729E0,2.303352585E0,4.472830092E0
7.197884167E0,4.280864693E0,-6.916718173E-1,1.852582106E0,4.715535270E0
7.207851167E0,4.766222184E0,-3.249876612E-1,1.294181197E0,4.949484403E0
7.217818167E0,5.091492850E0,-1.009241116E-1,8.319662552E-1,5.160005133E0
7.227785167E0,5.592294592E0,-3.046399355E-3,5.077663600E-1,5.615300059E0
7.237752167E0,6.138135096E0,-1.282317781E-1,2.960971534E-1,6.146610397E0
7.247719167E0,6.732523863E0,-4.932611722E-1,7.942273021E-2,6.751036374E0
7.257685167E0,7.288468941E0,-1.071005840E0,-1.239741281E-2,7.366748721E0
7.267652167E0,8.181497816E0,-1.802647469E0,1.296298474E-1,8.378737871E0
7.277619167E0,9.413266418E0,-2.427985548E0,4.148877248E-2,9.721441241E0
7.287586167E0,1.122537234E1,-2.921920905E0,-2.013055577E0,1.177280760E1
7.297553167E0,1.216782422E1,-3.062678588E0,-4.956031575E0,1.349067068E1
7.307520167E0,1.073988738E1,-2.641106619E0,-4.244274572E0,1.184628599E1
7.317487167E0,1.013148693E1,-2.002197737E0,-2.005804591E0,1.052041232E1
7.327453167E0,1.001818544E1,-1.137865827E0,-9.638809021E-1,1.012856576E1
7.337420167E0,1.061122759E1,1.207450032E-3,-1.008116989E-1,1.061170653E1
7.347387167E0,1.097473612E1,1.108335634E0,7.060811108E-1,1.105313491E1
7.357354167E0,1.067947980E1,2.158328335E0,8.016672993E-1,1.092484967E1
7.367321167E0,9.848887492E0,2.766100209E0,-4.099146679E-2,1.023003302E1
7.377288167E0,8.599457960E0,3.024206833E0,-9.837015013E-1,9.168651636E0
7.387254167E0,6.950930232E0,2.974940532E0,-1.539443096E0,7.715930748E0
7.397221167E0,5.646432207E0,2.263051967E0,-1.622485399E0,6.295717572E0
7.407188167E0,4.875395547E0,1.003089260E0,-1.311105378E0,5.147297069E0
7.417155167E0,4.337138296E0,-8.098434609E-1,-7.454143073E-1,4.474623730E0
7.427122167E0,3.443377935E0,-3.044629987E0,3.854002163E-2,4.596532247E0
7.437089167E0,1.559544801E0,-6.388374292E0,1.098439221E0,6.667088930E0
7.447055167E0,-8.744291007E-1,-1.032436319E1,2.383454177E0,1.063193093E1
7.457022167E0,-2.809522802E0,-1.354001371E1,3.716737021E0,1.431920122E1
7.466989167E0,-4.227939205E0,-1.595757192E1,6.107030248E0,1.760157351E1
7.476956167E0,-5.458868147E0,-1.702503142E1,6.473868771E0,1.901478144E1
7.486923167E0,-5.682747509E0,-1.603207363E1,4.496022933E0,1.759361323E1
7.496890167E0,-5.260380903E0,-1.321278247E1,1.923185919E0,1.435088401E1
7.506856042E0,-4.731264020E0,-9.185829025E0,-1.258239824E0,1.040900963E1
7.516823042E0,-4.059470397E0,-5.301807842E0,-2.970282348E0,7.308285950E0
7.526790042E0,-3.257286496E0,-4.646115696E-1,-5.878239809E0,6.736429506E0
7.536757042E0,-3.805958515E0,2.769597428E0,-8.101726007E0,9.369842818E0
7.546724042E0,-4.776766175E0,2.741760589E0,-8.133554741E0,9.822904812E0
7.556691042E0,-4.774858521E0,3.092221645E0,-9.596822212E0,1.115616893E1
7.566658042E0,-3.614749593E0,4.030810270E0,-1.330237819E1,1.436200235E1
7.576624042E0,-3.443315662E0,4.169252456E0,-1.304906745E1,1.412505753E1
7.586591042E0,-4.361018033E0,3.887283930E0,-1.075653791E1,1.224061120E1
7.596558042E0,-5.282507352E0,3.805393674E0,-8.168796494E0,1.044581931E1
7.606525042E0,-5.749115746E0,3.709223934E0,-5.617862127E0,8.852742452E0
7.616492042E0,-5.574222018E0,3.958052781E0,-3.893301884E0,7.867396804E0
7.626459042E0,-5.399063995E0,4.182668892E0,-2.666643748E0,7.331821054E0
7.636425042E0,-5.345739727E0,4.267220800E0,-2.095969534E0,7.153963578E0
7.646392042E0,-5.210913459E0,4.253301503E0,-1.961041817E0,7.006416899E0
7.656359042E0,-5.100850734E0,4.218176694E0,-1.833048020E0,6.868169907E0
7.666326042E0,-5.168149847E0,4.167794745E0,-1.735613819E0,6.862407829E0
7.676293042E0,-5.312362651E0,4.095883933E0,-1.525400277E0,6.879266540E0
7.686260042E0,-5.252300051E0,4.005081936E0,-1.091721355E0,6.694713785E0
7.696226042E0,-4.731395583E0,3.903956096E0,-7.049862197E-1,6.174462157E0
7.706193042E0,-3.779147277E0,4.060987165E0,-5.051327741E-1,5.570343797E0
7.716160042E0,-2.934082528E0,4.069234663E0,1.481310517E0,5.230850014E0
7.726127042E0,-2.650174481E0,2.637616416E0,2.333561202E0,4.407488289E0
7.736094042E0,-2.622162809E0,1.234082345E0,9.503467906E-1,3.049894434E0
7.746061042E0,-8.259500550E-1,8.917576897E-1,-5.249963504E-1,1.324026600E0
7.756027042E0,1.404551193E0,-5.005918264E-1,-1.628917044E0,2.208331263E0
7.765994042E0,2.892751485E0,-3.940086041E0,-9.664099690E-1,4.982593440E0
7.775961042E0,5.977762343E0,-6.684474953E0,2.223871529E-1,8.970245486E0
7.785928042E0,9.999151579E0,-8.487907119E0,6.867165944E-1,1.313389429E1
7.795895042E0,1.122215871E1,-9.597400501E0,1.636325759E-1,1.476731926E1
7.805862042E0,9.917784065E0,-9.953366711E0,-1.666178718E-1,1.405203584E1
7.815828042E0,8.433052050E0,-8.349366115E0,-5.081771269E-1,1.187798490E1
7.825795042E0,7.681317049E0,-4.545038972E0,-1.030599241E0,8.984550387E0
7.835762042E0,5.175611479E0,-6.333780009E-1,-1.312406968E0,5.376851674E0
7.845729042E0,2.191783764E0,1.787283910E0,-1.193797953E0,3.069764387E0
7.855696042E0,1.019764058E0,2.722303394E0,-8.519024831E-1,3.029289082E0
7.865663042E0,1.955030002E0,2.018026734E0,-2.439803356E-1,2.820301511E0
7.875629042E0,2.774267307E0,-8.936767459E-2,3.198041046E-1,2.794068778E0
7.885596042E0,3.212414086E0,-2.824187618E0,9.936752433E-1,4.391244750E0
7.895563042E0,2.906006538E0,-5.216329150E0,1.468177378E0,6.149025013E0
7.905530042E0,9.347560671E-1,-6.547785178E0,1.608174777E0,6.806870482E0
7.915497042E0,-2.771426730E-1,-5.760154120E0,1.151100415E0,5.880579539E0
7.925464042E0,-5.721393804E-1,-3.047400398E0,8.067695796E-2,3.101693316E0
7.935430042E0,-1.359401479E0,-6.589315027E-1,-8.590964587E-1,1.737875091E0
7.945397042E0,-2.590265079E0,5.392705733E-1,-1.456237949E0,3.020085246E0
7.955364042E0,-3.289478342E0,8.278464532E-1,-1.888934538E0,3.882534121E0
7.965331042E0,-3.233421963E0,7.195677137E-1,-2.314385258E0,4.040937318E0
7.975298042E0,-3.456696138E0,2.112692571E-1,-2.947386990E0,4.547578802E0
7.985265042E0,-4.291507795E0,-5.054567099E-1,-3.684701881E0,5.678869041E0
7.995231042E0,-4.696417831E0,-6.601763749E-1,-3.936484156E0,6.163447152E0
8.005198042E0,-4.672921380E0,-3.960816175E-1,-4.019752893E0,6.176689096E0
8.015165042E0,-4.887431456E0,-1.837709713E-1,-3.834119583E0,6.214598216E0
8.025132042E0,-5.459928247E0,1.421756333E-1,-3.589175334E0,6.535534405E0
8.035099042E0,-6.239943892E0,6.094248819E-1,-3.216077952E0,7.046378918E0
8.045066042E0,-7.286777342E0,1.006353176E0,-2.659095578E0,7.821806699E0
8.055032042E0,-7.762551246E0,1.525129259E0,-2.078139619E0,8.179357272E0
8.064999042E0,-7.595574063E0,2.385706671E0,-1.755943565E0,8.152771275E0
8.074966042E0,-7.306321660E0,3.313867956E0,-1.056859232E0,8.092033642E0
8.084933042E0,-7.616266190E0,3.841506663E0,3.296144168E-1,8.536587713E0
8.094900042E0,-8.431063412E0,4.014588339E0,6.872766115E-1,9.363338023E0
8.104867042E0,-8.240338932E0,3.919199787E0,2.978483214E-1,9.129733090E0
8.114833042E0,-6.317435871E0,3.704946111E0,2.832005346E-1,7.329176230E0
8.124800042E0,-3.995083490E0,3.457948612E0,1.323505569E-1,5.285415534E0
8.134767042E0,-2.141650321E0,2.995984077E0,4.381016095E-1,3.708708631E0
8.144734042E0,-1.323637131E0,2.195604334E0,7.253242975E-1,2.664355266E0
8.154701042E0,-1.185121855E0,1.395400009E0,1.012137973E0,2.091907806E0
8.164668042E0,-1.129930278E0,6.293346512E-1,1.395249150E0,1.902504856E0
8.174634042E0,-1.130229948E0,-1.229207522E-1,1.985860031E0,2.288267753E0
8.184601042E0,-1.165164577E0,-9.411701703E-1,2.692260400E0,3.080856349E0
8.194568042E0,-9.103386062E-1,-1.751814115E0,3.360670239E0,3.897649744E0
8.204535042E0,-4.508821611E-1,-2.490464802E0,3.853636712E0,4.610447436E0
8.214502042E0,2.425235018E-1,-2.882035877E0,3.939802451E0,4.887432025E0
8.224469042E0,1.155370637E0,-2.831853903E0,3.549360473E0,4.685321505E0
8.234435042E0,2.047990498E0,-2.483986087E0,2.910292547E0,4.339845005E0
8.244402042E0,2.664179439E0,-2.089448719E0,2.299559643E0,4.092874611E0
8.254369042E0,3.142203645E0,-1.691043418E0,1.783188520E0,3.989089230E0
8.264336042E0,3.572626252E0,-1.277469270E0,1.338624129E0,4.023369313E0
8.274303042E0,4.179732420E0,-8.510838729E-1,1.010515809E0,4.383565793E0
8.284270042E0,4.891521291E0,-4.469319284E-1,6.930412352E-1,4.960547837E0
8.294236042E0,5.484160863E0,-2.704115045E-1,4.314999568E-1,5.507752261E0
8.304203042E0,6.038816046E0,-3.697942901E-1,2.607220834E-1,6.055742981E0
8.314170042E0,6.698234037E0,-8.239913839E-1,1.291632396E-1,6.749961789E0
8.324137042E0,7.427518069E0,-1.399060366E0,-2.615254909E-2,7.558179577E0
8.334104042E0,8.255651035E0,-1.966195845E0,-1.260820493E-1,8.487496498E0
8.344071042E0,9.129733177E0,-2.367189708E0,-5.196783078E-1,9.445934604E0
8.354037042E0,1.000713420E1,-2.611686353E0,-3.094072289E0,1.079522690E1
8.364004042E0,1.051988005E1,-2.529646994E0,-7.449234627E0,1.313613667E1
8.373971042E0,9.009843037E0,-1.642766467E0,-5.411176502E0,1.063751777E1
8.383938042E0,8.252192992E0,-9.841869664E-1,-2.263448993E0,8.613391580E0
8.393905042E0,7.884587315E0,-6.814187247E-1,-1.845509460E0,8.126312434E0
8.403872042E0,7.935358104E0,-3.713560814E-1,-1.326003499E0,8.053949270E0
8.413838042E0,7.856700774E0,-7.422455549E-2,-6.958022904E-1,7.887800527E0
8.423805042E0,7.486705924E0,3.505171895E-1,-1.611878550E-1,7.496639875E0
8.433772042E0,7.424362911E0,6.025970882E-1,2.679296538E-2,7.448825797E0
8.443739042E0,7.702828370E0,6.444906342E-1,-7.178848851E-1,7.763007909E0
8.453706042E0,7.604792783E0,6.907081962E-1,-1.810930196E0,7.847892664E0
8.463672042E0,6.380304549E0,1.054722514E0,-1.684022666E0,6.682563734E0
8.473639042E0,5.454281006E0,1.407199105E0,-6.834026849E-1,5.674189797E0
8.483606042E0,4.942562513E0,1.328272803E0,-1.247328043E-2,5.117947677E0
8.493573042E0,4.303139661E0,7.952195746E-1,3.835418250E-1,4.392776963E0
8.503540292E0,3.437637431E0,-6.360373145E-1,8.341731405E-1,3.594125680E0
8.513507292E0,2.366195682E0,-2.527487032E0,1.569538715E0,3.801384548E0
8.523473292E0,9.922815594E-1,-4.930816627E0,2.374385292E0,5.561949372E0
8.533440292E0,-5.344766604E-1,-7.678551316E0,2.984834606E0,8.255607381E0
8.543407292E0,-2.090224645E0,-1.011007677E1,3.906623595E0,1.103831505E1
8.553374292E0,-3.504321710E0,-1.166244937E1,5.259031951E0,1.326463015E1
8.563341292E0,-4.885023865E0,-1.253118190E1,5.027880991E0,1.435874525E1
8.573308292E0,-5.222566960E0,-1.207014181E1,3.661328806E0,1.365169797E1
8.583274292E0,-4.878879318E0,-1.012592974E1,2.140992364E0,1.144210491E1
8.593241292E0,-4.512936004E0,-6.958923376E0,1.771045607E-1,8.296057615E0
8.603208292E0,-4.380084049E0,-4.175542890E0,-1.223827499E0,6.173981572E0
8.613175292E0,-4.248449776E0,-1.516231551E0,-2.451137306E0,5.133844340E0
8.623142292E0,-3.843941736E0,1.723313617E0,-4.406308811E0,6.096003218E0
8.633109292E0,-3.679792559E0,3.704241521E0,-5.453330249E0,7.549906578E0
8.643075292E0,-3.733571740E0,4.265525107E0,-6.374640352E0,8.530551095E0
8.653042292E0,-3.748384491E0,4.478433924E0,-6.513712867E0,8.748440548E0
8.663009292E0,-3.918816794E0,4.617227527E0,-6.165664372E0,8.642414724E0
8.672976292E0,-4.446508126E0,4.313058293E0,-5.622940434E0,8.366084238E0
8.682943292E0,-4.266435811E0,4.054568676E0,-6.652165579E0,8.882190528E0
8.692910292E0,-3.019053097E0,3.988989814E0,-1.017833366E1,1.134130492E1
8.702876292E0,-3.164802256E0,3.400385113E0,-1.099816825E1,1.193894037E1
8.712843292E0,-4.246886815E0,2.448640253E0,-7.609941257E0,9.052242409E0
8.722810292E0,-4.539144979E0,2.374345531E0,-5.033766798E0,7.181933028E0
8.732777292E0,-4.330491474E0,2.812249358E0,-3.979375822E0,6.518997990E0
8.742744292E0,-4.423380634E0,3.177114446E0,-3.489847512E0,6.468337352E0
8.752710292E0,-4.664729430E0,3.347353790E0,-2.987975146E0,6.472439534E0
8.762677292E0,-4.635337524E0,3.474492139E0,-2.520142637E0,6.317402037E0
8.772644292E0,-4.427305870E0,3.703217674E0,-2.133391129E0,6.153553130E0
8.782611292E0,-4.204674011E0,3.959161997E0,-2.146195655E0,6.161201429E0
8.792578292E0,-4.192755632E0,3.923077660E0,-1.667290566E0,5.979096583E0
8.802545292E0,-4.094394355E0,3.671478987E0,-1.355012121E0,5.663910392E0
8.812511292E0,-3.506349524E0,3.403178328E0,-7.525349003E-1,4.943927436E0
8.822478292E0,-2.719875338E0,2.794901839E0,-5.741799125E-1,3.941938700E0
8.832445292E0,-2.041572010E0,1.236124193E0,-8.355171230E-1,2.528657382E0
8.842412292E0,-1.859782221E-1,-3.983444899E-1,-2.133748394E-1,4.886666081E-1
8.852379292E0,5.553975449E0,-2.414581391E0,1.006061985E0,6.139137341E0
8.862346292E0,1.220622990E1,-5.745438432E0,2.704718185E0,1.375927366E1
8.872312292E0,1.440228038E1,-9.561817271E0,3.314478990E0,1.760226692E1
8.882279292E0,1.351455610E1,-1.241725241E1,2.735571311E0,1.855571972E1
8.892246292E0,1.089817151E1,-1.222217994E1,1.655896389E0,1.645885226E1
8.902213292E0,8.136312872E0,-8.689875795E0,1.853353938E-1,1.190579177E1
8.912180292E0,4.700643906E0,-3.223290492E0,-6.867326742E-1,5.740841096E0
8.922147292E0,1.943440236E0,3.828271490E-1,1.325381063E-1,1.985216091E0
8.932113292E0,1.474016992E0,1.832212746E0,1.047342450E0,2.574229175E0
8.942080292E0,1.696433966E0,1.317087080E0,3.525584525E-1,2.176442979E0
8.952047292E0,8.820621291E-1,-1.187180659E0,9.594520748E-2,1.482105597E0
8.962014292E0,6.503206006E-1,-3.558883833E0,3.151150762E-1,3.631510503E0
8.971981292E0,3.531294331E-2,-4.772994429E0,5.993148999E-1,4.810602995E0
8.981947292E0,-1.305285498E0,-4.321460742E0,5.501059024E-1,4.547681792E0
8.991914292E0,-1.925697591E0,-2.749870677E0,-5.349822253E-2,3.357523196E0
9.001881292E0,-1.727820650E0,-1.278986623E0,-7.458592804E-1,2.275407007E0
9.011848292E0,-2.047429166E0,-4.197505617E-1,-1.284767765E0,2.453321204E0
9.021815292E0,-2.863369226E0,-1.307624531E-1,-1.882377178E0,3.429187365E0
9.031782292E0,-3.352772405E0,-6.580164135E-2,-2.273844465E0,4.051639336E0
9.041748292E0,-3.757773658E0,-3.930796570E-1,-2.764275293E0,4.681516034E0
9.051715292E0,-3.966844946E0,-9.399954647E-1,-3.430131068E0,5.327780912E0
9.061682292E0,-4.417384607E0,-1.289653698E0,-3.681413699E0,5.893157070E0
9.071649292E0,-5.107911832E0,-9.206786031E-1,-3.647172112E0,6.343522427E0
9.081616292E0,-5.994746166E0,-1.771706343E-3,-3.689405089E0,7.039083367E0
9.091582292E0,-6.573717579E0,8.451705837E-1,-3.644255813E0,7.563641752E0
9.101549292E0,-6.928287474E0,1.416569268E0,-3.503872936E0,7.892082194E0
9.111516292E0,-7.144400564E0,2.053045709E0,-3.100525861E0,8.054235949E0
9.121483292E0,-7.161582608E0,2.520900729E0,-2.242616972E0,7.916598816E0
9.131450292E0,-6.621361862E0,3.024026738E0,-1.500862729E0,7.432345495E0
9.141417292E0,-6.054105345E0,3.528274244E0,-1.135940924E0,7.098681036E0
9.151383292E0,-5.962087128E0,3.873841766E0,-8.576258109E-1,7.161609803E0
9.161350292E0,-6.064543794E0,3.891454164E0,-2.547941762E-1,7.210202980E0
9.171317292E0,-5.510541746E0,3.612163662E0,1.058711484E0,6.673429903E0
9.181284292E0,-4.787744030E0,3.106559603E0,2.645178035E0,6.290482676E0
9.191251292E0,-4.592693195E0,2.411420971E0,3.406113045E0,6.205593281E0
9.201218292E0,-3.813404067E0,1.733967243E0,3.538947752E0,5.483871276E0
9.211184292E0,-2.552728001E0,1.105474591E0,3.002007294E0,4.092742614E0
9.221151292E0,-1.387195780E0,9.297634220E-1,2.542447718E0,3.041843611E0
9.231118292E0,-4.609647343E-1,8.612059879E-1,2.592828498E0,2.770726233E0
9.241085292E0,9.301546007E-2,6.741137981E-1,2.522528009E0,2.612705273E0
9.251052292E0,2.826169825E-1,2.276379526E-1,2.554477195E0,2.580125023E0
9.261019292E0,5.246542883E-1,-3.783932054E-1,2.592618583E0,2.672099298E0
9.270985292E0,8.486678765E-1,-1.054886236E0,2.715429407E0,3.034234500E0
9.280952292E0,1.201523879E0,-1.643287454E0,2.832402372E0,3.488059128E0
9.290919292E0,1.601332220E0,-1.992841607E0,2.825591535E0,3.810465860E0
9.300886292E0,2.012632678E0,-2.089416559E0,2.702812870E0,3.965040891E0
9.310853292E0,2.525417703E0,-1.991684443E0,2.470593039E0,4.055659189E0
9.320819292E0,3.114410074E0,-1.825672050E0,2.133022024E0,4.193138622E0
9.330786292E0,3.752773996E0,-1.663315921E0,1.633715562E0,4.418026602E0
9.340753292E0,4.355622807E0,-1.458047077E0,1.279756555E0,4.768136759E0
9.350720292E0,4.894187914E0,-1.234370028E0,8.737687308E-1,5.122520522E0
9.360687292E0,5.383136764E0,-1.069532341E0,5.426121108E-1,5.515114573E0
9.370653292E0,5.824847714E0,-9.882268077E-1,2.104222879E-1,5.911828875E0
9.380620292E0,6.276625814E0,-1.111729358E0,-8.336346120E-2,6.374866528E0
9.390587292E0,6.754988281E0,-1.517826086E0,-3.097965950E-1,6.930341740E0
9.400554292E0,7.427183608E0,-2.073172994E0,-4.667781092E-1,7.725217435E0
9.410521292E0,8.595630373E0,-2.535235178E0,-8.997917640E-1,9.006769906E0
9.420488292E0,1.048798816E1,-2.701665062E0,-3.174451039E0,1.128601033E1
9.430454292E0,1.147962097E1,-2.487159371E0,-6.058448657E0,1.321637089E1
9.440421292E0,1.057909831E1,-1.768607318E0,-4.558113931E0,1.165425654E1
9.450388292E0,9.726817510E0,-1.012116192E0,-2.037293456E0,9.989290400E0
9.460355292E0,9.551699249E0,-1.272997320E-1,-1.130972106E0,9.619265131E0
9.470322292E0,9.656323478E0,5.173920465E-1,-4.753010108E-1,9.681848413E0
9.480288292E0,9.806981083E0,1.155655396E0,1.467766611E-1,9.875928348E0
9.490255292E0,9.419659764E0,1.701461402E0,5.151144098E-1,9.585943032E0
9.500222292E0,8.690849941E0,1.977316080E0,5.223152559E-1,8.928239737E0
9.510188292E0,7.980165902E0,2.066082661E0,1.866021931E-1,8.245396640E0
9.520155292E0,7.321347835E0,1.843383266E0,-2.264170539E-1,7.553241733E0
9.530122292E0,6.640396303E0,1.508585731E0,-4.552887690E-1,6.824806359E0
9.540088292E0,5.740823225E0,1.070462633E0,-4.497670971E-1,5.857066842E0
9.550055292E0,4.599150568E0,2.386184388E-1,-3.478970522E-1,4.618458300E0
9.560022292E0,3.526142642E0,-1.020883507E0,7.769020021E-2,3.671773527E0
9.569989292E0,2.639952086E0,-2.669614719E0,8.382913345E-1,3.846936719E0
9.579956292E0,1.456855415E0,-5.217441291E0,1.905482451E0,5.742384930E0
9.589922292E0,-2.540885635E-1,-8.277928342E0,3.057595603E0,8.828224596E0
9.599889292E0,-1.649270617E0,-1.078656921E1,4.284509847E0,1.172293451E1
9.609856292E0,-2.882900973E0,-1.261114842E1,5.915694734E0,1.422489461E1
9.619823292E0,-4.201626150E0,-1.382616475E1,6.619262127E0,1.589437401E1
9.629790292E0,-4.844118791E0,-1.390293869E1,5.506460974E0,1.571872462E1
9.639757292E0,-5.306638811E0,-1.234989482E1,3.098304211E0,1.379419467E1
9.649723292E0,-5.811947587E0,-9.517114137E0,7.068669766E-1,1.117380227E1
9.659690292E0,-5.480572427E0,-6.142425783E0,-5.794567323E-1,8.252383821E0
9.669657292E0,-5.266114683E0,-2.763002354E0,-2.530029402E0,6.462754416E0
9.679624292E0,-5.360496345E0,1.466496304E0,-5.655733958E0,7.929240763E0
9.689591292E0,-5.223537598E0,3.229731785E0,-6.546085977E0,8.975954214E0
9.699557292E0,-5.257201772E0,3.473513315E0,-7.007767507E0,9.424026244E0
9.709524292E0,-5.440116127E0,3.690240363E0,-7.306729211E0,9.828582257E0
9.719491292E0,-4.893651432E0,3.953513587E0,-9.696854623E0,1.155885304E1
9.729458292E0,-2.484843873E0,5.005507790E0,-1.491927131E1,1.593154775E1
9.739425292E0,-3.042515634E0,4.870406118E0,-1.412026332E1,1.524334588E1
9.749392292E0,-5.511373220E0,3.821936032E0,-9.173472689E0,1.136375954E1
9.759358292E0,-6.500637324E0,3.355581408E0,-5.887878360E0,9.390704115E0
9.769325292E0,-6.183066856E0,3.461216621E0,-3.978160771E0,8.126259863E0
9.779292292E0,-5.811024311E0,3.682898600E0,-2.640492076E0,7.369120982E0
9.789259292E0,-5.530360883E0,3.788984633E0,-2.098575346E0,7.024622021E0
9.799226292E0,-5.244094069E0,3.957348191E0,-2.297987619E0,6.960019713E0
9.809192292E0,-5.023723036E0,4.259389039E0,-2.264982718E0,6.964936097E0
9.819159292E0,-5.149006648E0,4.541107305E0,-1.892995429E0,7.121611946E0
9.829126292E0,-5.543393158E0,4.629195608E0,-1.498472387E0,7.375912091E0
9.839093292E0,-5.702536241E0,4.585304654E0,-1.090364217E0,7.398164129E0
9.849060292E0,-5.345342701E0,4.534123390E0,-8.168326378E-1,7.056782487E0
9.859026292E0,-5.067423372E0,4.039774051E0,-6.454571790E-1,6.512692913E0
9.868993292E0,-5.120168180E0,2.792780469E0,-3.402266747E-1,5.842216971E0
9.878960292E0,-4.630197821E0,1.407160513E0,-3.435955480E-1,4.851483327E0
9.888927292E0,-3.230454501E0,1.559803247E-2,-7.984220946E-1,3.327695512E0
9.898894292E0,-9.586215509E-1,-1.670455372E0,-1.231484427E0,2.286029379E0
9.908861292E0,3.205433096E0,-4.651248382E0,-2.750582868E-1,5.655490245E0
9.918827292E0,9.772528703E0,-8.076965387E0,1.852918906E0,1.281300104E1
9.928794292E0,1.427295634E1,-1.087528551E1,3.427298677E0,1.826842888E1
9.938761292E0,1.424306538E1,-1.294942271E1,2.677511968E0,1.943505930E1
9.948728292E0,1.186685400E1,-1.269358714E1,1.206619435E0,1.741853349E1
9.958695292E0,9.263193535E0,-9.219939927E0,-8.878587663E-2,1.306988637E1
9.968661292E0,5.811089800E0,-4.047594118E0,-1.146465327E0,7.173992302E0
9.978628292E0,2.713879895E0,1.421341181E-2,-1.314935597E0,3.015692579E0
9.988595292E0,1.232854722E0,2.108500117E0,-7.723060906E-1,2.561671370E0
9.998562292E0,2.823643243E0,2.358728203E0,-1.634232455E-1,3.682834106E0
1.000852929E1,5.011617545E0,7.426601225E-1,-4.121988827E-1,5.083085913E0
1.001849629E1,4.623119182E0,-2.054349053E0,2.047529738E-1,5.063151665E0
1.002846229E1,2.288413388E0,-3.867632607E0,8.330965219E-1,4.570499714E0
1.003842929E1,2.743189064E-1,-3.813127787E0,9.731591177E-1,3.944899624E0
1.004839629E1,-5.413268928E-1,-2.065090388E0,2.817629966E-1,2.153374910E0
1.005836329E1,-1.791390848E0,6.264589906E-2,-5.522885218E-1,1.875640768E0
1.006833029E1,-2.446997332E0,1.389944556E0,-9.871405412E-1,2.982312569E0
1.007829629E1,-2.435138447E0,1.780322800E0,-1.347478568E0,3.303807957E0
1.008826329E1,-2.706559766E0,1.029628603E0,-1.579090288E0,3.298352159E0
1.009823029E1,-2.687389669E0,-1.913051087E-1,-1.693707117E0,3.182342640E0
1.010819729E1,-3.052182251E0,-1.437698767E0,-1.956509640E0,3.900092846E0
1.011816429E1,-4.347394313E0,-2.538373963E0,-2.470852071E0,5.607877463E0
1.012813029E1,-5.731287585E0,-2.959310925E0,-2.986203732E0,7.107924540E0
1.013809729E1,-6.082847334E0,-2.234039252E0,-3.388107714E0,7.312402953E0
1.014806429E1,-5.860611039E0,-1.285120937E0,-3.490582215E0,6.941358784E0
1.015803129E1,-5.764406800E0,-2.605028129E-1,-3.054187846E0,6.528729652E0
1.016799829E1,-6.292483463E0,7.456802094E-1,-2.472491046E0,6.801808515E0
1.017796529E1,-7.200173646E0,1.675969296E0,-2.252874303E0,7.728312639E0
1.018793129E1,-7.850143706E0,2.861656576E0,-2.303511922E0,8.667179573E0
1.019789829E1,-8.657302710E0,3.838830977E0,-1.835831003E0,9.646542850E0
1.020786529E1,-8.885974451E0,4.544577042E0,-1.444989806E0,1.008472697E1
1.021783229E1,-9.117915954E0,4.952745439E0,-1.444821845E0,1.047633471E1
1.022779929E1,-9.476307004E0,4.891658993E0,-7.599817680E-1,1.069141218E1
1.023776529E1,-8.349503524E0,4.486648092E0,-2.215206686E-1,9.481207287E0
1.024773229E1,-6.113230051E0,3.977530441E0,9.867644191E-2,7.293974712E0
1.025769929E1,-3.789540411E0,3.264398757E0,-1.645915923E-1,5.004398682E0
1.026766629E1,-2.555682891E0,2.392225147E0,-3.893602431E-2,3.500824504E0
1.027763329E1,-1.975480493E0,1.457631340E0,4.192810303E-1,2.490584044E0
1.028759929E1,-1.499781579E0,7.214645505E-1,8.710240477E-1,1.878440516E0
1.029756629E1,-1.220534347E0,-1.610323191E-3,1.426707171E0,1.877551607E0
1.030753329E1,-9.891299102E-1,-8.857812506E-1,2.041758828E0,2.435521611E0
1.031750029E1,-7.623232124E-1,-1.707754176E0,2.635860497E0,3.231922271E0
1.032746729E1,-4.360827121E-1,-2.423004890E0,3.223924915E0,4.056453215E0
1.033743429E1,-1.759112902E-2,-2.886551097E0,3.602016404E0,4.615951566E0
1.034740029E1,5.500212640E-1,-2.850421152E0,3.442093887E0,4.502825164E0
1.035736729E1,1.412109304E0,-2.460627630E0,2.883785364E0,4.045362659E0
1.036733429E1,2.281046919E0,-2.015020680E0,2.322201085E0,3.828328783E0
1.037730129E1,2.986934926E0,-1.765519404E0,1.895538676E0,3.953720512E0
1.038726829E1,3.859240391E0,-1.521392303E0,1.519363904E0,4.417786505E0
1.039723429E1,4.634280932E0,-1.220334372E0,1.211653888E0,4.943063916E0
1.040720129E1,5.163006052E0,-9.252721757E-1,1.094638385E0,5.358264018E0
1.041716829E1,5.617091464E0,-6.112363493E-1,1.085413964E0,5.753559756E0
1.042713529E1,6.429353918E0,-4.949375689E-1,8.376715297E-1,6.502557081E0
1.043710229E1,7.263610089E0,-5.958640194E-1,5.167862749E-1,7.306309158E0
1.044706829E1,7.957903798E0,-1.060384372E0,3.244804153E-1,8.034795294E0
1.045703529E1,8.903278701E0,-1.700131161E0,1.240343544E-1,9.064998737E0
1.046700229E1,1.012594611E1,-2.248697053E0,-1.129062552E0,1.043389694E1
1.047696929E1,1.134158108E1,-2.661317520E0,-4.141511511E0,1.236390674E1
1.048693629E1,1.120639696E1,-2.638390587E0,-5.177438149E0,1.262340301E1
1.049690229E1,1.010816239E1,-1.945237670E0,-3.273149700E0,1.080150015E1
1.050687008E1,9.592090645E0,-1.020856025E0,-1.927505988E0,9.836952236E0
1.051683708E1,9.403468823E0,-2.188881791E-1,-1.369747689E0,9.505227334E0
1.052680408E1,9.130290416E0,3.889719880E-1,-7.926763281E-1,9.172886027E0
1.053677108E1,8.913832925E0,1.040551786E0,-3.610399850E-1,8.981620973E0
1.054673708E1,8.528647594E0,1.536872807E0,-2.623248053E-1,8.669983974E0
1.055670408E1,8.122880064E0,1.825011899E0,-5.917021175E-1,8.346374084E0
1.056667108E1,8.315967988E0,1.887408122E0,-1.486744627E0,8.656098578E0
1.057663808E1,8.286713784E0,1.644362757E0,-2.447665522E0,8.795716043E0
1.058660508E1,7.658225225E0,1.329643391E0,-2.710589667E0,8.231868651E0
1.059657208E1,6.551628553E0,9.649022645E-1,-2.034077341E0,6.927650662E0
1.060653808E1,5.222303835E0,3.813823020E-1,-1.307397805E0,5.396962000E0
1.061650508E1,4.467701359E0,-5.726757163E-1,-7.387530130E-1,4.564435225E0
1.062647208E1,3.643507369E0,-1.969512970E0,-6.336232916E-2,4.142238776E0
1.063643908E1,2.341385069E0,-3.976202538E0,6.513745612E-1,4.660102948E0
1.064640608E1,4.321887589E-1,-7.042142703E0,1.525063770E0,7.218336406E0
1.065637208E1,-1.337405131E0,-1.013957714E1,2.750497499E0,1.059079381E1
1.066633908E1,-2.535965787E0,-1.222760616E1,4.449130602E0,1.325670539E1
1.067630608E1,-3.950856028E0,-1.365334561E1,6.577034705E0,1.566143337E1
1.068627308E1,-5.035939039E0,-1.413814645E1,5.556692065E0,1.600389620E1
1.069624008E1,-4.564735903E0,-1.261018246E1,3.026621733E0,1.374823460E1
1.070620608E1,-4.136530560E0,-9.858203276E0,1.074640907E0,1.074476198E1
1.071617308E1,-3.962049937E0,-6.615836828E0,-9.698659658E-1,7.772243989E0
1.072614008E1,-3.795747523E0,-3.636700333E0,-2.469893420E0,5.808068705E0
1.073610708E1,-3.388577830E0,-2.892863166E-1,-4.984243805E0,6.033973201E0
1.074607408E1,-3.246082939E0,2.901059209E0,-7.381771792E0,8.569933125E0
1.075604008E1,-3.880416375E0,3.260765297E0,-7.715049636E0,9.231046119E0
1.076600708E1,-4.089048830E0,3.358408536E0,-9.158372254E0,1.057709840E1
1.077597408E1,-3.167743990E0,3.917131042E0,-1.169868925E1,1.273726217E1
1.078594108E1,-3.170931892E0,3.761163581E0,-1.148850173E1,1.249747304E1
1.079590808E1,-4.284692280E0,3.227286479E0,-9.650504329E0,1.104111406E1
1.080587408E1,-5.297616557E0,2.899068816E0,-7.926569154E0,9.964930493E0
1.081584108E1,-6.079343097E0,2.692327058E0,-5.916157833E0,8.899885448E0
1.082580808E1,-6.333030980E0,2.695803813E0,-4.262725168E0,8.096015406E0
1.083577508E1,-5.941480955E0,2.959656495E0,-2.985138369E0,7.278173781E0
1.084574208E1,-5.321330525E0,3.308607216E0,-2.093376294E0,6.606486553E0
1.085570808E1,-5.195869743E0,3.498107874E0,-1.613366666E0,6.468135209E0
1.086567508E1,-5.345594716E0,3.614194400E0,-1.354516277E0,6.593367757E0
1.087564208E1,-5.481093414E0,3.738928959E0,-1.265391262E0,6.754494046E0
1.088560908E1,-5.453439007E0,3.921574341E0,-1.167518227E0,6.817759246E0
1.089557608E1,-5.232396129E0,4.171040534E0,-1.011016623E0,6.767400018E0
1.090554308E1,-4.990192763E0,4.359792749E0,-9.697194931E-1,6.697027140E0
1.091550908E1,-4.653901264E0,4.310680815E0,-1.015138618E0,6.424272136E0
1.092547608E1,-4.352186691E0,3.710422613E0,-8.008679849E-1,5.774959263E0
1.093544308E1,-3.263422272E0,2.964799706E0,-3.136768073E-1,4.420221190E0
1.094541008E1,-2.971334555E0,1.623411013E0,-5.412548259E-1,3.428884533E0
1.095537708E1,-2.492563952E0,2.213311458E-1,-1.161772461E0,2.758908803E0
1.096534308E1,-1.294179443E0,-1.369039006E0,-1.578451480E0,2.457778938E0
1.097531008E1,1.301311146E0,-3.820768928E0,-1.309671641E0,4.243456811E0
1.098527708E1,7.314259256E0,-6.632966831E0,5.791503382E-1,9.890907570E0
1.099524408E1,1.343346458E1,-8.889288653E0,2.285073166E0,1.626957229E1
1.100521108E1,1.755700058E1,-1.012337801E1,2.691631532E0,2.044445969E1
1.101517708E1,1.534418028E1,-1.069312369E1,1.040038401E0,1.873148266E1
1.102514408E1,9.884725077E0,-9.289330004E0,-9.575458825E-1,1.359839461E1
1.103511108E1,5.270145754E0,-5.014286799E0,-1.719260327E0,7.474848791E0
1.104507808E1,2.228019836E0,1.447536707E-2,-1.280858463E0,2.569996173E0
1.105504508E1,1.544658959E-2,3.437057680E0,3.325900649E-1,3.453146427E0
1.106501108E1,3.354252335E-1,4.949413696E0,2.798857480E-1,4.968655960E0
1.107497808E1,1.635421779E0,3.886246634E0,-1.299441352E-1,4.218341234E0
1.108494508E1,2.109741919E0,6.509143853E-1,4.685300812E-2,2.208369468E0
1.109491208E1,3.106182165E0,-2.808914691E0,4.133320731E-1,4.208231551E0
1.110487908E1,3.619211311E0,-5.430408579E0,7.097128165E-1,6.564428394E0
1.111484508E1,2.107360787E0,-6.849962266E0,5.894817835E-1,7.190997240E0
1.112481208E1,2.773104881E-1,-6.502283900E0,1.025598702E-1,6.509002654E0
1.113477908E1,-5.024277060E-1,-4.311751440E0,-6.192569751E-1,4.384873235E0
1.114474608E1,-1.238643466E0,-2.015600724E0,-1.388659631E0,2.743220641E0
1.115471308E1,-2.235926587E0,-7.071844804E-1,-2.081465808E0,3.135598428E0
1.116467908E1,-2.907551372E0,-1.817414027E-1,-2.713736931E0,3.981363215E0
1.117464608E1,-2.917868784E0,1.474433899E-1,-3.282928584E0,4.394692012E0
1.118461308E1,-3.108559643E0,-4.645437419E-2,-3.878039189E0,4.970361055E0
1.119458008E1,-3.453386614E0,-2.321590197E-1,-4.099872611E0,5.365513241E0
1.120454708E1,-3.839947211E0,-4.951773047E-2,-3.741716326E0,5.361724317E0
1.121451308E1,-4.702605647E0,2.636106080E-1,-3.180929461E0,5.683511473E0
1.122448008E1,-5.803320605E0,4.678070730E-1,-2.743261569E0,6.436059162E0
1.123444708E1,-6.782997029E0,5.241952819E-1,-2.699762962E0,7.319327117E0
1.124441408E1,-7.588273230E0,6.307479233E-1,-2.661937909E0,8.066327974E0
1.125438108E1,-8.610975806E0,6.112234855E-1,-2.037027846E0,8.869722708E0
1.126434708E1,-8.864165506E0,9.814949083E-1,-1.497813991E0,9.043241074E0
1.127431408E1,-8.562764928E0,2.047184460E0,-8.934966516E-1,8.849307526E0
1.128428108E1,-8.629007449E0,3.257727669E0,-6.777697697E-2,9.223727709E0
1.129424808E1,-8.883447284E0,4.177378331E0,3.423632473E-1,9.822593240E0
1.130421508E1,-9.243694825E0,4.480356488E0,-1.503721140E-1,1.027336849E1
1.131418108E1,-8.392277076E0,4.276743575E0,-4.438277878E-2,9.419279164E0
1.132414808E1,-6.471261497E0,3.918494613E0,1.058911970E0,7.638921387E0
1.133411508E1,-4.741930219E0,3.269119799E0,1.482136436E0,5.947249354E0
1.134408208E1,-3.111891971E0,2.561258211E0,9.748436274E-1,4.146593223E0
1.135404908E1,-1.950318023E0,1.910251440E0,9.393440849E-1,2.887069148E0
1.136401508E1,-1.273704540E0,1.260038136E0,1.022262865E0,2.062775006E0
1.137398208E1,-9.165335119E-1,5.989630437E-1,1.163544386E0,1.597693946E0
1.138394908E1,-7.930184633E-1,-5.535968363E-2,1.416228375E0,1.624083061E0
1.139391608E1,-7.825471234E-1,-8.289246798E-1,1.945306082E0,2.254708824E0
1.140388308E1,-6.350622182E-1,-1.643711377E0,2.651088400E0,3.183294020E0
1.141384908E1,-3.626588597E-1,-2.303630474E0,3.443583757E0,4.158906575E0
1.142381608E1,2.335578199E-1,-2.612632433E0,3.924401470E0,4.720309776E0
1.143378308E1,1.093131850E0,-2.792315031E0,4.036984929E0,5.028837618E0
1.144375008E1,1.847268449E0,-2.661412829E0,3.594264750E0,4.838828171E0
1.145371708E1,2.528472288E0,-2.275683707E0,2.729932256E0,4.361701339E0
1.146368308E1,2.988752241E0,-1.985947155E0,2.121591302E0,4.168665939E0
1.147365008E1,3.529673483E0,-1.772012737E0,1.509650948E0,4.228199383E0
1.148361708E1,4.244381868E0,-1.444913061E0,1.114338385E0,4.619989311E0
1.149358408E1,4.976462331E0,-1.044201618E0,1.105602645E0,5.203642144E0
1.150355108E1,5.775694265E0,-7.445382482E-1,9.198132151E-1,5.895679587E0
1.151351692E1,6.382432351E0,-5.661244959E-1,3.553766643E-1,6.417338407E0
1.152348392E1,6.940546746E0,-4.965122241E-1,6.113190874E-2,6.958552338E0
1.153345092E1,7.480065241E0,-7.116880059E-1,-1.691947398E-1,7.515750308E0
1.154341792E1,8.091591028E0,-1.189343544E0,-6.421280667E-1,8.203701109E0
1.155338492E1,9.893540339E0,-1.569099151E0,-3.349529539E0,1.056236530E1
1.156335092E1,1.117853147E1,-1.475976394E0,-6.815443228E0,1.317529273E1
1.157331792E1,9.989948062E0,-1.052613423E0,-5.519565754E0,1.146179146E1
1.158328492E1,9.070350024E0,-7.382910830E-1,-2.838147261E0,9.532649325E0
1.159325192E1,8.781256081E0,-5.697006530E-1,-1.875015826E0,8.997260780E0
1.160321892E1,8.679358408E0,-3.760613358E-1,-1.370838779E0,8.794991953E0
1.161318492E1,8.939648382E0,-7.838134110E-2,-6.437614864E-1,8.963140392E0
1.162315192E1,9.221818053E0,3.855174530E-1,3.794497973E-1,9.237669297E0
1.163311892E1,9.116016194E0,9.173930526E-1,1.200425772E0,9.240367054E0
1.164308592E1,8.488246257E0,1.321859577E0,1.542210291E0,8.727889198E0
1.165305292E1,7.999577488E0,1.621757421E0,1.397803799E0,8.281134740E0
1.166301892E1,7.640460214E0,1.593172722E0,4.791867779E-1,7.819491772E0
1.167298592E1,6.780331283E0,1.191685939E0,-9.560256064E-1,6.950323204E0
1.168295292E1,5.559554277E0,9.325706702E-1,-1.790637288E0,5.914787715E0
1.169291992E1,4.469078963E0,6.306736636E-1,-1.706387828E0,4.825160668E0
1.170288692E1,3.956697396E0,6.217987597E-2,-1.176184385E0,4.128284187E0
1.171285292E1,3.516156767E0,-8.468253458E-1,-5.959306777E-1,3.665461082E0
1.172281992E1,2.888039213E0,-2.558921664E0,5.971922144E-2,3.859069443E0
1.173278692E1,1.931299223E0,-4.970668910E0,9.695244884E-1,5.420096294E0
1.174275392E1,4.730657664E-1,-7.718505340E0,2.098353444E0,8.012627726E0
1.175272092E1,-1.151210270E0,-1.032439944E1,3.431591118E0,1.094049023E1
1.176268692E1,-2.514439263E0,-1.238028514E1,5.128686404E0,1.363441562E1
1.177265392E1,-4.063025504E0,-1.402228270E1,5.995972327E0,1.578240389E1
1.178262092E1,-5.326012976E0,-1.451553042E1,5.467579914E0,1.640004475E1
1.179258792E1,-6.147352647E0,-1.370526070E1,3.693983166E0,1.546834274E1
1.180255492E1,-5.944381174E0,-1.091457412E1,1.011185315E0,1.246940622E1
1.181252092E1,-5.262819777E0,-7.017679707E0,-1.565263670E0,8.910395661E0
1.182248792E1,-3.534181686E0,-1.963461102E0,-5.119433185E0,6.523359244E0
1.183245492E1,-3.045688918E0,7.150226730E-1,-7.518002561E0,8.142962662E0
1.184242192E1,-3.350104028E0,1.159689975E0,-1.139459427E1,1.193335060E1
1.185238892E1,-7.837455102E-1,2.942359847E0,-1.798840230E1,1.824429653E1
1.186235492E1,-1.645100675E0,2.933013657E0,-1.436709067E1,1.475541323E1
1.187232192E1,-2.880202190E0,2.619608746E0,-1.114659164E1,1.180696488E1
1.188228892E1,-3.476009492E0,2.917555373E0,-8.597164682E0,9.721420262E0
1.189225592E1,-3.651517178E0,3.362928434E0,-6.465948132E0,8.151769783E0
1.190222292E1,-3.575986354E0,3.669213776E0,-4.625187342E0,6.902402921E0
1.191218892E1,-3.404751229E0,3.910000362E0,-3.358329891E0,6.177282042E0
1.192215592E1,-3.456824777E0,3.882586861E0,-2.370218274E0,5.713322408E0
1.193212292E1,-3.458990586E0,3.721172719E0,-1.648715132E0,5.341348506E0
1.194208992E1,-3.448342221E0,3.447791414E0,-9.818191364E-1,4.974163098E0
1.195205692E1,-3.684515647E0,3.099109080E0,-3.632606113E-1,4.828259616E0
1.196202292E1,-4.164341379E0,2.998969665E0,2.383181843E-1,5.137348901E0
1.197198992E1,-4.804993024E0,3.086211292E0,7.690059221E-1,5.762293659E0
1.198195692E1,-5.150481316E0,3.446276985E0,9.717829755E-1,6.272849830E0
1.199192392E1,-5.185326043E0,4.009260941E0,7.579049832E-1,6.598196680E0
1.200189092E1,-4.813114514E0,4.477687234E0,1.324958602E-1,6.575204137E0
1.201185692E1,-3.873255290E0,4.763674552E0,-7.862894145E-1,6.189745780E0
1.202182392E1,-3.499200718E0,4.501084283E0,-8.190577957E-1,5.759776130E0
1.203179092E1,-3.295566171E0,3.857294145E0,-9.435973495E-2,5.074285986E0
1.204175792E1,-2.491217923E0,2.937222483E0,4.442194051E-1,3.876954157E0
1.205172492E1,-1.321289181E0,1.509197350E0,4.793190712E-1,2.062335694E0
1.206169092E1,5.289978193E-1,-2.006413579E-1,1.815636474E-1,5.941893683E-1
1.207165792E1,4.601207034E0,-2.466742063E0,5.515049949E-1,5.249769550E0
1.208162492E1,8.860294649E0,-5.055319051E0,6.272086036E-1,1.022029660E1
1.209159192E1,1.027675516E1,-8.138185151E0,9.609477925E-1,1.314401669E1
1.210155792E1,1.104003666E1,-1.009862675E1,1.234461830E0,1.501294667E1
1.211152492E1,1.039901459E1,-1.082680507E1,6.607575881E-1,1.502650369E1
1.212149192E1,9.436325498E0,-9.511061100E0,-8.761020622E-1,1.342654375E1
1.213145892E1,8.280676534E0,-5.261540406E0,-2.303674328E0,1.007771436E1
1.214142592E1,5.101436040E0,-3.259202921E-1,-2.564680002E0,5.719130810E0
1.215139192E1,1.122517471E0,2.885149519E0,-7.691026935E-1,3.189929807E0
1.216135892E1,-6.214128435E-3,4.065880700E0,-2.504469176E-1,4.073591553E0
1.217132592E1,6.476832139E-1,3.221791851E0,-2.628533936E-1,3.296745089E0
1.218129292E1,1.948831661E-1,7.460129160E-1,-2.425074220E-2,7.714290750E-1
1.219125992E1,5.425090536E-2,-2.367115449E0,2.659774147E-1,2.382629366E0
1.220122592E1,1.769729984E-1,-5.277521431E0,4.423260766E-1,5.298981436E0
1.221119292E1,-6.990245448E-1,-7.042246199E0,5.994843230E-1,7.102200243E0
1.222115992E1,-1.316973498E0,-6.480846838E0,5.321045181E-1,6.634676341E0
1.223112692E1,-1.190735474E0,-3.982280134E0,-3.303647608E-1,4.169597931E0
1.224109392E1,-1.843652384E0,-1.429686327E0,-1.205523082E0,2.626088919E0
1.225105992E1,-2.535671965E0,3.096515840E-1,-1.793293971E0,3.121124746E0
1.226102692E1,-3.196136608E0,9.807423717E-1,-2.279506617E0,4.046392866E0
1.227099392E1,-3.527722852E0,9.100594747E-1,-2.617400545E0,4.485958356E0
1.228096092E1,-3.681833822E0,3.373767418E-1,-2.828009359E0,4.654821188E0
1.229092792E1,-3.978945467E0,-6.648126322E-1,-2.801504515E0,4.911457056E0
1.230089392E1,-4.372104646E0,-1.260735124E0,-2.577184272E0,5.229400622E0
1.231086092E1,-5.003136744E0,-1.050623615E0,-2.402241135E0,5.648535184E0
1.232082792E1,-5.914152823E0,-4.774310052E-1,-2.256201662E0,6.347880742E0
1.233079492E1,-6.638332821E0,1.509920651E-1,-2.147617113E0,6.978719116E0
1.234076092E1,-7.047116345E0,6.139208061E-1,-1.936556163E0,7.334098261E0
1.235072792E1,-6.906691368E0,1.121178458E0,-1.518737229E0,7.160027203E0
1.236069492E1,-6.403944842E0,1.726575193E0,-1.095851682E0,6.722533923E0
1.237066192E1,-6.215291446E0,2.280308270E0,-7.279118367E-1,6.660293477E0
1.238062892E1,-6.973643156E0,2.890604972E0,-6.016141713E-1,7.572927808E0
1.239059492E1,-6.950937248E0,3.424411907E0,-2.580055401E-1,7.752979582E0
1.240056192E1,-6.260861721E0,3.675497194E0,5.505790152E-1,7.280852036E0
1.241052892E1,-5.223898956E0,3.551191236E0,1.840185424E0,6.579237182E0
1.242049592E1,-4.408781014E0,3.172044910E0,3.298359386E0,6.354399545E0
1.243046292E1,-3.697530964E0,2.516336392E0,4.376623959E0,6.257676993E0
1.244042892E1,-2.818742107E0,1.595582360E0,4.439020767E0,5.495097406E0
1.245039592E1,-1.926307602E0,1.033294222E0,3.775935987E0,4.363032260E0
1.246036292E1,-8.899594516E-1,8.429568279E-1,3.311393414E0,3.530995664E0
1.247032992E1,-1.888837401E-1,8.011960137E-1,2.750829620E0,2.871350853E0
1.248029692E1,-1.960754134E-3,6.004926753E-1,2.348790860E0,2.424337806E0
1.249026292E1,1.117630222E-1,2.224134654E-1,2.269605526E0,2.283214394E0
1.250022992E1,3.416914753E-1,-2.548748678E-1,2.176584365E0,2.217934571E0
1.251019721E1,7.004462222E-1,-7.891601050E-1,2.072510505E0,2.325660847E0
1.252016421E1,1.129063867E0,-1.125570887E0,2.157527705E0,2.682651829E0
1.253013121E1,1.630262196E0,-1.302826306E0,2.144900350E0,2.992609016E0
1.254009721E1,2.177123917E0,-1.345395205E0,2.089934623E0,3.304206945E0
1.255006421E1,2.748366188E0,-1.285598654E0,2.070287393E0,3.673196223E0
1.256003121E1,3.278958909E0,-1.196585321E0,2.001301212E0,4.023505250E0
1.256999821E1,3.801655549E0,-1.042331679E0,1.751698925E0,4.313639921E0
1.257996521E1,4.336012123E0,-8.342175794E-1,1.402866318E0,4.633028600E0
1.258993121E1,4.588939283E0,-6.939943314E-1,9.529030471E-1,4.737933736E0
1.259989821E1,5.073823149E0,-5.869376600E-1,4.147590861E-1,5.124470925E0
1.260986521E1,5.617893117E0,-6.548559934E-1,4.500280291E-2,5.656110386E0
1.261983221E1,5.890179239E0,-8.866390371E-1,-3.613807315E-1,5.967489948E0
1.262979821E1,6.325695648E0,-1.243146699E0,-6.869206622E-1,6.483185879E0
1.263976521E1,7.058133668E0,-1.661224372E0,-1.273591982E0,7.361993876E0
1.264973221E1,9.578333901E0,-1.895538676E0,-4.562633829E0,1.077753101E1
1.265969921E1,1.203219923E1,-2.189099892E0,-8.441183188E0,1.485999832E1
1.266966621E1,1.023155267E1,-2.359536873E0,-5.033181492E0,1.164409723E1
1.267963221E1,8.912707336E0,-2.227887397E0,-1.733942685E0,9.349138546E0
1.268959921E1,8.599146888E0,-1.699802547E0,-8.067818588E-1,8.802587851E0
1.269956621E1,8.778753473E0,-8.690260541E-1,-9.610366702E-2,8.822185372E0
1.270953321E1,9.201770289E0,-1.205871284E-2,7.494966871E-1,9.232251467E0
1.271950021E1,9.191742314E0,6.724216139E-1,1.519079291E0,9.340657337E0
1.272946621E1,8.716306379E0,1.224943732E0,1.927179129E0,9.010466327E0
1.273943321E1,8.106345307E0,1.599842641E0,1.901828526E0,8.478754770E0
1.274940021E1,7.664548988E0,1.601911386E0,1.427514233E0,7.959222837E0
1.275936721E1,7.295561614E0,1.383934203E0,5.588669318E-1,7.446665387E0
1.276933321E1,6.751885164E0,1.102010701E0,-1.824338593E-1,6.843658595E0
1.277930021E1,5.919746854E0,7.529056138E-1,-5.725483932E-1,5.994837891E0
1.278926721E1,4.773732932E0,2.026814514E-1,-7.280784823E-1,4.833187784E0
1.279923421E1,3.549820064E0,-1.277366359E0,-3.003341921E-1,3.784585569E0
1.280920121E1,2.201654741E0,-3.678707315E0,6.058569109E-1,4.329807583E0
1.281916721E1,4.687410926E-1,-6.552945346E0,1.915159593E0,6.843146000E0
1.282913421E1,-1.099344005E0,-8.925079460E0,3.423461734E0,9.622145854E0
1.283910121E1,-2.227043936E0,-1.071197511E1,5.195090894E0,1.211177547E1
1.284906821E1,-3.485148690E0,-1.212698493E1,5.834821309E0,1.390162453E1
1.285903521E1,-4.574272712E0,-1.283282338E1,5.407468783E0,1.465762755E1
1.286900121E1,-5.499006359E0,-1.246656549E1,4.237479522E0,1.426921717E1
1.287896821E1,-6.181354791E0,-1.078300826E1,1.896543081E0,1.257295867E1
1.288893521E1,-5.608340521E0,-7.560798917E0,-6.543700898E-1,9.436491079E0
1.289890221E1,-3.802112217E0,-3.870386646E0,-2.354112703E0,5.914202965E0
1.290886821E1,-2.265608370E0,6.904286993E-1,-5.274777918E0,5.782123758E0
1.291883521E1,-3.451757288E0,2.179990515E0,-7.096283827E0,8.186832792E0
1.292880221E1,-4.111880161E0,2.340618791E0,-7.750615910E0,9.080644347E0
1.293876921E1,-4.225712878E0,2.959724908E0,-8.434883398E0,9.887561822E0
1.294873621E1,-2.897578946E0,3.665330055E0,-1.142088686E1,1.233966227E1
1.295870221E1,-1.709196391E0,4.074991246E0,-1.390743403E1,1.459258809E1
1.296866921E1,-2.497322416E0,3.695180676E0,-1.243772000E1,1.321316988E1
1.297863621E1,-3.759891227E0,2.992040130E0,-9.428233536E0,1.058209213E1
1.298860321E1,-4.264599493E0,2.691101482E0,-6.927156622E0,8.568216553E0
1.299857021E1,-4.256066944E0,2.834589230E0,-5.127135138E0,7.241306281E0
1.300853621E1,-4.175099964E0,2.953183043E0,-3.697571895E0,6.310688371E0
1.301850321E1,-4.423068978E0,2.992295653E0,-2.613713875E0,5.945491794E0
1.302847021E1,-4.687540003E0,2.978102707E0,-2.115107471E0,5.942710377E0
1.303843721E1,-4.999589238E0,3.091518810E0,-2.022254856E0,6.216341030E0
1.304840421E1,-5.276493491E0,3.415107817E0,-1.869412147E0,6.557365838E0
1.305837021E1,-5.431725372E0,3.797260782E0,-1.472485899E0,6.789038569E0
1.306833721E1,-5.557571486E0,4.098743221E0,-1.047190130E0,6.984475928E0
1.307830421E1,-5.602804962E0,4.234034343E0,-7.119797820E-1,7.058709901E0
1.308827121E1,-5.058523909E0,4.397879173E0,-6.102630803E-1,6.730707718E0
1.309823721E1,-4.269825734E0,4.560186769E0,-4.977185047E-1,6.266932175E0
1.310820421E1,-4.017576267E0,4.086676907E0,-3.413218582E-1,5.740936144E0
1.311817121E1,-3.648312904E0,2.866815575E0,-5.213117275E-1,4.669109605E0
1.312813821E1,-2.630908782E0,1.459302474E0,-8.066961971E-1,3.114803924E0
1.313810521E1,-9.771181943E-1,3.430853784E-2,-7.684764567E-1,1.243580760E0
1.314807121E1,2.928874998E0,-2.631958650E0,-3.098164755E-1,3.949873585E0
1.315803821E1,1.052835500E1,-6.176709763E0,1.377167513E0,1.228391602E1
1.316800521E1,1.567715934E1,-9.992277592E0,2.810506888E0,1.880207130E1
1.317797221E1,1.474919569E1,-1.362694309E1,3.112877227E0,2.032049104E1
1.318793921E1,1.145929956E1,-1.474373088E1,2.120251851E0,1.879331303E1
1.319790521E1,7.849425083E0,-1.166977243E1,-3.935664377E-1,1.406954005E1
1.320787221E1,4.424029090E0,-5.677680897E0,-1.566672703E0,7.366312315E0
1.321783921E1,2.331441586E0,-5.670290601E-1,-9.625606008E-1,2.585278464E0
1.322780621E1,1.528061637E0,2.136110085E0,4.931331182E-1,2.672287210E0
1.323777221E1,2.511679962E0,2.638564249E0,-7.772586823E-2,3.643706744E0
1.324773921E1,2.808580815E0,1.250703056E0,-2.595888931E-1,3.085412569E0
1.325770621E1,2.071629329E0,-1.128849421E0,2.299891180E-1,2.370410109E0
1.326767321E1,7.183647953E-1,-2.563390691E0,6.501612639E-1,2.740388564E0
1.327764021E1,-7.798180085E-1,-2.718234317E0,5.236114374E-1,2.875949037E0
1.328760621E1,-1.823745977E0,-2.025870774E0,1.450061242E-1,2.729693858E0
1.329757321E1,-2.518289362E0,-1.130512369E0,-4.521052524E-1,2.797184064E0
1.330754021E1,-2.925446483E0,-9.214147675E-1,-1.185374162E0,3.288214440E0
1.331750721E1,-3.325998005E0,-1.218321176E0,-1.807957910E0,3.976843097E0
1.332747421E1,-3.562404442E0,-1.666710230E0,-2.318730032E0,4.565649719E0
1.333744021E1,-3.812881034E0,-2.182567382E0,-2.686739167E0,5.149779559E0
1.334740721E1,-4.373347472E0,-2.675968888E0,-3.312695004E0,6.104172818E0
1.335737421E1,-4.883277009E0,-2.552635907E0,-4.000153026E0,6.809079868E0
1.336734121E1,-4.986447036E0,-1.576502895E0,-4.274275758E0,6.754217103E0
1.337730821E1,-5.212630786E0,-4.871970248E-1,-4.275939291E0,6.759625542E0
1.338727421E1,-5.368682447E0,5.724131763E-1,-4.071901285E0,6.762454299E0
1.339724121E1,-5.575900168E0,1.240296181E0,-3.619562144E0,6.762412840E0
1.340720821E1,-6.020573902E0,1.775133396E0,-3.215295010E0,7.052413111E0
1.341717521E1,-6.525685042E0,2.214499612E0,-2.882776135E0,7.469870952E0
1.342714121E1,-7.309761577E0,2.344290842E0,-2.219373266E0,7.990865508E0
1.343710821E1,-7.567654193E0,2.582563126E0,-1.361441134E0,8.111260337E0
1.344707521E1,-6.840140113E0,3.005397509E0,-1.018781433E0,7.540414217E0
1.345704221E1,-6.475044061E0,3.246581706E0,-4.281307912E-1,7.256017113E0
1.346700921E1,-6.128747976E0,3.145344769E0,9.401942700E-1,6.952604601E0
1.347697521E1,-5.625883922E0,2.784238856E0,3.275968058E0,7.080573609E0
1.348694221E1,-4.896497564E0,2.497511281E0,4.809992686E0,7.304059189E0
1.349690921E1,-4.423410163E0,2.130776839E0,4.366266786E0,6.570468252E0
1.350687621E1,-3.978308705E0,1.893791528E0,3.803437781E0,5.820612120E0
1.351684267E1,-2.743716483E0,1.813886402E0,3.202294310E0,4.590517712E0
1.352680867E1,-1.355587633E0,1.843900160E0,2.293576772E0,3.240074079E0
1.353677567E1,-3.560892206E-1,1.752450292E0,1.570938831E0,2.380279473E0
1.354674267E1,3.508163477E-1,1.318966375E0,1.103036302E0,1.754831471E0
1.355670967E1,7.014316242E-1,5.142269486E-1,9.438218826E-1,1.283446697E0
1.356667567E1,8.696692479E-1,-3.765530866E-1,1.179364101E0,1.512949606E0
1.357664267E1,1.161191978E0,-1.263903145E0,1.636740911E0,2.371653175E0
1.358660967E1,1.618558702E0,-2.039132259E0,2.130582273E0,3.364100691E0
1.359657667E1,2.127415275E0,-2.421638396E0,2.481843667E0,4.068141622E0
1.360654367E1,2.526040139E0,-2.648655374E0,2.661755476E0,4.525615570E0
1.361650967E1,3.018873295E0,-2.579903228E0,2.702424615E0,4.803394158E0
1.362647667E1,3.678230475E0,-2.305125023E0,2.420668781E0,4.970172849E0
1.363644367E1,4.366453897E0,-1.936951581E0,2.104556755E0,5.219852507E0
1.364641067E1,5.165443171E0,-1.567679447E0,1.743268263E0,5.672601365E0
1.365637667E1,5.844844607E0,-1.222418320E0,1.319851059E0,6.115433087E0
1.366634367E1,6.557469921E0,-9.060400987E-1,8.642570651E-1,6.675946427E0
1.367631067E1,7.265602235E0,-7.152425283E-1,4.423563360E-1,7.314111487E0
1.368627767E1,7.887926075E0,-6.962572038E-1,4.339511096E-2,7.918714226E0
1.369624467E1,8.749381154E0,-6.784775752E-1,-7.308132251E-1,8.806025799E0
1.370621067E1,1.034242875E1,-7.836303931E-1,-3.719774357E0,1.101892146E1
1.371617767E1,1.127959007E1,-1.138855176E0,-6.096104141E0,1.287200951E1
1.372614467E1,1.122426137E1,-1.485151260E0,-4.360522481E0,1.213276036E1
1.373611167E1,1.084767028E1,-1.623422123E0,-2.366520787E0,1.122086764E1
1.374607867E1,1.029133461E1,-1.436312976E0,-1.863171998E0,1.055679747E1
1.375604467E1,9.859971474E0,-8.931043035E-1,-1.387203382E0,9.997049865E0
1.376601167E1,9.439966559E0,-1.818700415E-1,-4.398632294E-1,9.451958792E0
1.377597867E1,9.112980319E0,5.787229067E-1,6.045716929E-1,9.151329818E0
1.378594567E1,8.676389776E0,1.192958878E0,1.358793369E0,8.862799211E0
1.379591167E1,8.266814539E0,1.483046848E0,1.659150950E0,8.561099956E0
1.380587867E1,7.992279578E0,1.567060227E0,1.459990692E0,8.274284467E0
1.381584567E1,7.538059096E0,1.632166634E0,8.042720877E-1,7.754557140E0
1.382581267E1,6.925950342E0,1.731579825E0,5.393062413E-2,7.139332276E0
1.383577967E1,6.081656840E0,1.713404340E0,-2.491330482E-1,6.323319669E0
1.384574567E1,4.937160271E0,1.346782749E0,-2.114289591E-1,5.121921272E0
1.385571267E1,4.094112226E0,3.983433205E-1,-2.024379149E-3,4.113445809E0
1.386567967E1,3.090790247E0,-1.613872451E0,6.708699091E-1,3.550723176E0
1.387564667E1,1.760765033E0,-4.317489898E0,1.486483841E0,4.893939796E0
1.388561267E1,2.267313418E-1,-7.262908423E0,2.711246309E0,7.755778646E0
1.389557967E1,-1.225370506E0,-1.003904596E1,4.578840557E0,1.110179074E1
1.390554667E1,-2.796211615E0,-1.253607953E1,6.170166144E0,1.424931716E1
1.391551367E1,-4.893392985E0,-1.432794239E1,6.536111796E0,1.649108806E1
1.392548067E1,-5.813991773E0,-1.460075476E1,6.975576246E0,1.719427823E1
1.393544667E1,-5.942397798E0,-1.318222258E1,5.594822928E0,1.550435834E1
1.394541367E1,-6.149397418E0,-1.067454358E1,3.223154837E0,1.273380133E1
1.395538067E1,-5.533870382E0,-7.278269058E0,1.546538254E0,9.273009353E0
1.396534767E1,-5.510234182E0,-4.147770370E0,2.566918901E-1,6.901635351E0
1.397531467E1,-5.555088174E0,-1.136289418E-1,-1.909409002E0,5.875181605E0
1.398528067E1,-5.059953554E0,3.181693985E0,-4.366971375E0,7.402482393E0
1.399524767E1,-4.903676775E0,4.041220068E0,-5.785536883E0,8.593598930E0
1.400521467E1,-5.190170462E0,3.981397204E0,-6.616789924E0,9.304370049E0
1.401518167E1,-5.418903013E0,3.920127155E0,-6.706069890E0,9.471181560E0
1.402514767E1,-4.914252634E0,4.056853184E0,-8.128361244E0,1.032851360E1
1.403511467E1,-2.764164196E0,4.485411406E0,-1.468976225E1,1.560604479E1
1.404508167E1,-2.543167511E0,4.134252192E0,-1.689832226E1,1.758161077E1
1.405504867E1,-5.271108205E0,2.805917408E0,-1.084079161E1,1.237661169E1
1.406501567E1,-6.181821983E0,2.597351319E0,-6.090627054E0,9.058526084E0
1.407498167E1,-5.835659215E0,3.156066808E0,-4.132245136E0,7.816081246E0
1.408494867E1,-5.671925483E0,3.555317032E0,-3.209725829E0,7.423837133E0
1.409491567E1,-5.509467028E0,3.832946924E0,-2.531701413E0,7.173229475E0
1.410488267E1,-5.441381464E0,4.058331360E0,-2.264811687E0,7.155980550E0
1.411484967E1,-5.381538720E0,4.216413758E0,-2.191873811E0,7.179374261E0
1.412481567E1,-5.548612967E0,4.225840055E0,-1.834227988E0,7.211741977E0
1.413478267E1,-5.508208707E0,4.297525164E0,-1.297369684E0,7.105790160E0
1.414474967E1,-5.472050110E0,3.828410069E0,-7.614352396E-1,6.721595026E0
1.415471667E1,-4.967479253E0,3.414825397E0,-2.438420489E-1,6.032938054E0
1.416468267E1,-4.318078712E0,2.786599377E0,-1.335047972E-1,5.140891303E0
1.417464967E1,-4.436310290E0,1.223288970E0,7.181754917E-2,4.602438772E0
1.418461667E1,-3.808261734E0,-4.331324995E-2,-7.718348050E-1,3.885931347E0
1.419458367E1,-2.508202623E0,-1.175019620E0,-1.800751217E0,3.303703445E0
1.420455067E1,-8.003330377E-1,-2.336626897E0,-2.580753120E0,3.572204487E0
1.421451667E1,2.198163222E0,-4.388480358E0,-2.402924382E0,5.464862943E0
1.422448367E1,8.495579250E0,-7.059259257E0,5.836325213E-1,1.106113172E1
1.423445067E1,1.393937854E1,-9.313030524E0,3.309525521E0,1.708776670E1
1.424441767E1,1.481615449E1,-1.142626630E1,3.807173567E0,1.909378344E1
1.425438367E1,1.263728197E1,-1.157803897E1,2.731085327E0,1.735542304E1
1.426435067E1,8.875793864E0,-9.064659514E0,1.447576176E0,1.276883885E1
1.427431767E1,4.645408768E0,-4.420662848E0,8.814312145E-2,6.413255948E0
1.428428467E1,1.296493771E0,1.314851689E-1,-3.996460801E-1,1.363048582E0
1.429425167E1,3.036634505E-1,3.154675171E0,3.944424967E-1,3.193708159E0
1.430421767E1,1.986353829E0,3.446110924E0,-3.423720181E-2,3.977744866E0
1.431418467E1,3.590843545E0,1.572040885E0,-4.059991530E-1,3.940850824E0
1.432415167E1,3.060326546E0,-1.193285737E0,-5.006502986E-2,3.285123426E0
1.433411867E1,1.670929581E0,-2.931027358E0,4.086461145E-1,3.398517130E0
1.434408467E1,8.202509201E-1,-2.888381276E0,7.612050055E-1,3.097578252E0
1.435405167E1,1.658989567E-1,-1.481926521E0,4.647786538E-1,1.561937219E0
1.436401867E1,-6.882580666E-1,1.299210387E-1,-4.893666342E-2,7.021206731E-1
1.437398567E1,-1.209307108E0,1.084876605E0,-3.554786982E-1,1.663053226E0
1.438395267E1,-2.091850609E0,1.108598174E0,-3.668842770E-1,2.395711367E0
1.439391867E1,-2.787439038E0,8.980212271E-2,-4.324752724E-1,2.822218218E0
1.440388567E1,-3.914043127E0,-1.206084123E0,-9.460040635E-1,4.203486196E0
1.441385267E1,-4.953711984E0,-2.097006245E0,-1.781539021E0,5.666619706E0
1.442381967E1,-5.370749438E0,-2.506196151E0,-2.141237508E0,6.301655873E0
1.443378567E1,-4.939765205E0,-2.520770336E0,-3.305391247E0,6.456095931E0
1.444375267E1,-4.081549484E0,-1.805048921E0,-3.407168468E0,5.614805852E0
1.445371967E1,-4.380555042E0,-8.273020774E-1,-2.632462095E0,5.177214298E0
1.446368667E1,-5.100898681E0,-8.102077425E-2,-2.133089852E0,5.529539225E0
1.447365367E1,-5.969443510E0,3.949016494E-1,-1.764888928E0,6.237390164E0
1.448361967E1,-6.941299868E0,9.144823086E-1,-1.240458149E0,7.110320539E0
1.449358667E1,-7.569494897E0,1.752986482E0,-5.910973692E-1,7.792278915E0
1.450355367E1,-7.148698268E0,2.765119046E0,-1.574848133E-1,7.666457574E0
1.451352092E1,-6.590873895E0,3.528697582E0,2.846301788E-1,7.481466411E0
1.452348792E1,-6.426027437E0,4.037366753E0,1.192167749E0,7.682149625E0
1.453345392E1,-5.836548577E0,4.180008409E0,1.302176095E0,7.296124463E0
1.454342092E1,-5.491496780E0,3.779958286E0,1.351724231E0,6.802336358E0
1.455338792E1,-5.116663359E0,3.387013700E0,2.165602856E0,6.507068577E0
1.456335492E1,-4.562719491E0,3.038102741E0,2.438359094E0,5.999506020E0
1.457332092E1,-3.437351210E0,2.796934331E0,2.367782031E0,5.024402128E0
1.458328792E1,-2.178018395E0,2.636754536E0,1.841939589E0,3.884453637E0
1.459325492E1,-1.412137956E0,2.309332679E0,1.836816258E0,3.271245175E0
1.460322192E1,-1.015131016E0,1.753351348E0,2.004251279E0,2.849869316E0
1.461318892E1,-8.413275012E-1,1.044405686E0,2.159220035E0,2.541819498E0
1.462315492E1,-6.983284338E-1,3.058953327E-1,2.365544887E0,2.485364594E0
1.463312192E1,-5.752161853E-1,-4.337078655E-1,2.602415593E0,2.700285742E0
1.464308892E1,-3.757915599E-1,-1.156965757E0,2.804430462E0,3.056897001E0
1.465305592E1,-1.120366719E-1,-1.787413133E0,2.958527398E0,3.458364106E0
1.466302192E1,1.861376318E-1,-2.256315975E0,2.936380484E0,3.707821374E0
1.467298892E1,6.901885249E-1,-2.437950958E0,2.630203316E0,3.652113711E0
1.468295592E1,1.476281181E0,-2.407686355E0,2.134695789E0,3.540238102E0
1.469292292E1,2.345393481E0,-2.284297240E0,1.803194184E0,3.737698988E0
1.470288992E1,3.135233179E0,-2.126054043E0,1.449709532E0,4.056038783E0
1.471285592E1,3.881969395E0,-1.896537965E0,1.013142525E0,4.437679620E0
1.472282292E1,4.670155939E0,-1.671526582E0,5.817193124E-1,4.994272216E0
1.473278992E1,5.636421774E0,-1.587678679E0,1.334157734E-1,5.857283822E0
1.474275692E1,6.446059413E0,-1.797824686E0,-2.381344356E-1,6.696309697E0
1.475272292E1,8.255034739E0,-2.006396037E0,-2.293051107E0,8.799392421E0
1.476268992E1,1.329908737E1,-2.230395852E0,-9.799747492E0,1.666959632E1
1.477265692E1,1.309546744E1,-2.535622264E0,-9.077925092E0,1.613472565E1
1.478262392E1,9.513451442E0,-2.863602530E0,-7.869444488E-1,9.966205865E0
1.479259092E1,7.821353770E0,-2.888211122E0,1.681200800E0,8.505396782E0
1.480255692E1,7.278207078E0,-2.511511855E0,2.811955243E0,8.196772679E0
1.481252392E1,9.003120493E0,-1.859309912E0,3.078178387E0,9.694761170E0
1.482249092E1,1.091637857E1,-8.552628779E-1,2.964064711E0,1.134391799E1
1.483245792E1,1.170264080E1,5.667706132E-3,2.654542935E0,1.199993466E1
1.484242392E1,1.126075501E1,9.353369880E-1,2.263695161E0,1.152405200E1
1.485239092E1,1.017104101E1,1.782049482E0,1.629006214E0,1.045368054E1
1.486235792E1,9.399759935E0,2.250321409E0,4.884494984E-1,9.677707176E0
1.487232492E1,8.394234724E0,2.342928441E0,-7.404720944E-1,8.746472958E0
1.488229192E1,7.299098010E0,2.202702270E0,-9.711329844E-1,7.685819951E0
1.489225792E1,6.289276266E0,1.887540269E0,-3.322738767E-1,6.574816358E0
1.490222492E1,5.332429710E0,1.418007683E0,2.859813973E-1,5.525154999E0
1.491219192E1,4.098302049E0,1.690921211E-1,8.707012083E-1,4.193184043E0
1.492215892E1,2.894729890E0,-1.866828262E0,1.534671330E0,3.770905062E0
1.493212492E1,1.755686434E0,-4.592999005E0,2.513034469E0,5.522084476E0
1.494209192E1,1.559099389E-1,-7.616370270E0,3.803874568E0,8.514861463E0
1.495205892E1,-1.445449543E0,-1.029982593E1,4.961338508E0,1.152348118E1
1.496202592E1,-2.949681146E0,-1.238270472E1,6.408628462E0,1.425140392E1
1.497199292E1,-4.347168610E0,-1.381581284E1,6.681022173E0,1.595025444E1
1.498195892E1,-5.106745312E0,-1.398329581E1,5.623326350E0,1.591330288E1
1.499192592E1,-5.277810869E0,-1.256380702E1,4.457809040E0,1.433794253E1
1.500189292E1,-5.268254764E0,-9.321092080E0,1.829877514E0,1.086212307E1
1.501185992E1,-5.611482230E0,-5.726685242E0,-4.573301782E-1,8.030741408E0
1.502182592E1,-6.241091700E0,-2.809773647E0,-1.791646079E0,7.075029981E0
1.503179292E1,-6.068722215E0,4.451941359E-1,-3.395319670E0,6.968197959E0
1.504175992E1,-5.311190284E0,3.386715492E0,-5.347131364E0,8.262590265E0
1.505172692E1,-5.540423357E0,3.992829680E0,-6.451634733E0,9.394816154E0
1.506169292E1,-5.901574293E0,3.921574341E0,-6.854602032E0,9.858645620E0
1.507165992E1,-5.351263007E0,4.375793070E0,-7.882339645E0,1.048402876E1
1.508162692E1,-4.187532606E0,4.812882380E0,-1.069261498E1,1.245115582E1
1.509159392E1,-4.003878872E0,4.611449309E0,-1.219406419E1,1.363787785E1
1.510156092E1,-5.128502802E0,3.858787524E0,-9.633008291E0,1.157525943E1
1.511152692E1,-5.932548164E0,3.382537072E0,-6.485624013E0,9.418067933E0
1.512149392E1,-5.938215285E0,3.490495384E0,-4.523012511E0,8.240364128E0
1.513146092E1,-5.667045397E0,3.733462397E0,-3.256174648E0,7.527072362E0
1.514142792E1,-5.554629752E0,3.872508016E0,-2.448031558E0,7.200214477E0
1.515139392E1,-5.600526302E0,4.032052803E0,-2.108544848E0,7.215906460E0
1.516136092E1,-5.575819477E0,4.261681733E0,-2.022953598E0,7.303700109E0
1.517132792E1,-5.375049480E0,4.461513251E0,-1.832417106E0,7.221773318E0
1.518129492E1,-5.250323108E0,4.506996987E0,-1.318079937E0,7.043880273E0
1.519126192E1,-5.132333897E0,4.399994110E0,-8.986047792E-1,6.819698670E0
1.520122792E1,-4.694192088E0,4.353381861E0,-7.502889848E-1,6.445952727E0
1.521119492E1,-4.781208305E0,3.760457822E0,-4.820397806E-1,6.101914309E0
1.522116192E1,-4.399098317E0,2.950487477E0,-5.776516968E-1,5.328332181E0
1.523112892E1,-3.452675008E0,1.249577467E0,-7.331075263E-1,3.744309710E0
1.524109492E1,-1.984537245E0,5.785059750E-2,-9.740531570E-1,2.211450728E0
1.525106192E1,-8.050018202E-1,1.204006022E-1,-1.329442539E0,1.558827027E0
1.526102892E1,1.595290584E0,-8.590536278E-1,-7.428975195E-1,1.958270131E0
1.527099592E1,7.608982898E0,-3.270372857E0,1.675476961E0,8.449803691E0
1.528096292E1,1.322832203E1,-6.457084338E0,3.552434939E0,1.514272881E1
1.529092892E1,1.210854983E1,-1.009695562E1,3.718209935E0,1.619847452E1
1.530089592E1,9.702310660E0,-1.197254593E1,3.030803954E0,1.570549142E1
1.531086292E1,8.128502162E0,-1.088290326E1,1.287787852E0,1.364435885E1
1.532082992E1,6.539396178E0,-6.812995584E0,-3.396495545E-1,9.449654651E0
1.533079592E1,4.203258693E0,-1.540130875E0,-1.047666678E0,4.597498474E0
1.534076292E1,1.055363076E0,2.041986285E0,-5.468563123E-1,2.362742270E0
1.535072992E1,4.265953124E-2,4.166098468E0,-5.833182335E-3,4.166320956E0
1.536069692E1,4.101067489E-1,4.464018198E0,2.351481164E-1,4.488979913E0
1.537066392E1,8.017105687E-1,2.939498219E0,7.079820406E-1,3.128039032E0
1.538062992E1,1.215664786E0,1.377644938E-1,1.089911788E0,1.638513849E0
1.539059692E1,1.477556897E0,-3.000284119E0,1.393384327E0,3.623037270E0
1.540056392E1,1.439647936E0,-5.283311929E0,1.727659706E0,5.742018737E0
1.541053092E1,6.394906801E-1,-6.123566174E0,1.730661812E0,6.395482884E0
1.542049692E1,-2.423767367E-1,-5.185674537E0,1.276686328E0,5.346016729E0
1.543046392E1,-1.369839052E0,-3.309878401E0,4.359888643E-1,3.608578715E0
1.544043092E1,-2.003366449E0,-1.983526407E0,-1.754727490E-1,2.824649504E0
1.545039792E1,-2.561677749E0,-1.449665678E0,-3.393396521E-1,2.962916615E0
1.546036492E1,-3.443367410E0,-1.563364787E0,-6.171597250E-1,3.831680402E0
1.547033092E1,-4.110440868E0,-1.964037638E0,-1.478603110E0,4.789513037E0
1.548029792E1,-4.109858778E0,-1.901534995E0,-2.406243408E0,5.128038792E0
1.549026492E1,-3.433939945E0,-1.061029905E0,-3.041250882E0,4.708177453E0
1.550023192E1,-3.064728622E0,8.377188921E-2,-3.083843755E0,4.348525216E0
1.551019779E1,-3.393036624E0,1.144003065E0,-2.671665922E0,4.467576451E0
1.552016479E1,-4.322013011E0,1.724011774E0,-2.275650086E0,5.179825902E0
1.553013179E1,-5.320639384E0,1.767937812E0,-1.889133636E0,5.916386859E0
1.554009879E1,-6.120984628E0,1.615992066E0,-1.554927254E0,6.518871217E0
1.555006579E1,-6.677241948E0,1.555869241E0,-1.274197315E0,6.973511878E0
1.556003179E1,-7.009574881E0,1.709121255E0,-8.929803425E-1,7.269982763E0
1.556999879E1,-6.959253159E0,2.167409645E0,-3.892263418E-1,7.299340124E0
1.557996579E1,-6.708094196E0,2.785039925E0,2.955165980E-1,7.269271297E0
1.558993279E1,-6.515014458E0,3.461558098E0,1.407492635E0,7.510581427E0
1.559989879E1,-6.282029811E0,3.717480787E0,1.656053095E0,7.485056700E0
1.560986579E1,-6.357795108E0,3.535792594E0,1.797200788E0,7.493551800E0
1.561983279E1,-6.238237674E0,3.104994303E0,2.138731976E0,7.289085908E0
1.562979979E1,-5.282747088E0,2.695965781E0,2.580851646E0,6.468109732E0
1.563976579E1,-3.518286323E0,2.400344006E0,2.484120573E0,4.930602906E0
1.564973279E1,-1.820750887E0,2.220960200E0,1.772656515E0,3.374923573E0
1.565969979E1,-1.051833624E0,2.029746308E0,1.430776248E0,2.696913925E0
1.566966679E1,-8.847864199E-1,1.696377833E0,1.329322963E0,2.329730521E0
1.567963379E1,-9.597602230E-1,1.195243385E0,1.386172518E0,2.066693176E0
1.568959979E1,-9.876006440E-1,6.311513811E-1,1.748056694E0,2.104616189E0
1.569956679E1,-8.824230485E-1,-5.713782191E-2,2.235126835E0,2.403690316E0
1.570953379E1,-6.745533626E-1,-7.643749273E-1,2.833029778E0,3.010871799E0
1.571950079E1,-3.144421347E-1,-1.388987952E0,3.301495247E0,3.595557294E0
1.572946679E1,3.832819893E-1,-1.819859918E0,3.338550807E0,3.821611793E0
1.573943379E1,1.257433201E0,-2.036821439E0,3.077400708E0,3.898740174E0
1.574940079E1,2.045547532E0,-2.035679478E0,2.598416682E0,3.883300773E0
1.575936779E1,2.693467850E0,-1.872295409E0,2.085568507E0,3.887139714E0
1.576933479E1,3.226397118E0,-1.632349067E0,1.805332657E0,4.041463577E0
1.577930079E1,3.729538330E0,-1.459431113E0,1.446883573E0,4.258270471E0
1.578926779E1,4.442076229E0,-1.318757629E0,8.658100855E-1,4.713893297E0
1.579923479E1,5.143453547E0,-1.265751450E0,4.126397628E-1,5.312957058E0
1.580920179E1,5.924574316E0,-1.484927312E0,-4.777701437E-2,6.108017075E0
1.581916779E1,6.655039485E0,-1.933929740E0,-6.819677782E-1,6.963814676E0
1.582913479E1,8.535760732E0,-2.278455287E0,-3.703669664E0,9.579547940E0
1.583910179E1,1.335971949E1,-2.662297513E0,-1.153484910E1,1.785000495E1
1.584906879E1,1.196423821E1,-2.939951379E0,-7.899740959E0,1.463530721E1
1.585903479E1,8.602396771E0,-3.186468236E0,-4.463097847E-1,9.184443502E0
1.586900179E1,7.601887887E0,-2.928012534E0,1.308656418E0,8.250729571E0
1.587896879E1,8.002108163E0,-2.514845937E0,2.158228347E0,8.661185527E0
1.588893579E1,9.492300893E0,-1.528498424E0,2.234470192E0,9.870812566E0
1.589890279E1,1.080934763E1,-3.861641550E-1,2.494772446E0,1.110022560E1
1.590886879E1,1.131660996E1,6.708943212E-1,2.663787383E0,1.164523608E1
1.591883579E1,1.095020939E1,1.838268122E0,2.187615868E0,1.131688909E1
1.592880279E1,1.020194120E1,2.571447569E0,1.175536514E0,1.058649295E1
1.593876979E1,9.634954829E0,2.847571803E0,-8.863786899E-2,1.004733180E1
1.594873579E1,8.691985470E0,2.858028964E0,-9.809791839E-1,9.202242179E0
1.595870279E1,7.667984812E0,2.698768351E0,-8.376480677E-1,8.172086391E0
1.596866979E1,6.909485167E0,2.101671154E0,-2.443780193E-1,7.226183469E0
1.597863679E1,6.126557025E0,1.191796451E0,3.799578472E-1,6.252955119E0
1.598860379E1,5.045012164E0,-3.022145104E-1,1.093133458E0,5.170920817E0
1.599856979E1,3.591497556E0,-3.090270429E0,2.222557660E0,5.233391689E0
1.600853679E1,1.622484668E0,-6.341059207E0,3.634669595E0,7.486809163E0
1.601850379E1,-4.554896940E-1,-9.564942607E0,5.144197898E0,1.087006762E1
1.602847079E1,-2.182772474E0,-1.214298057E1,6.895493950E0,1.413380026E1
1.603843679E1,-3.926626920E0,-1.412133453E1,8.013317276E0,1.670460241E1
1.604840379E1,-4.782898443E0,-1.477070408E1,8.001055664E0,1.746615895E1
1.605837079E1,-4.843997753E0,-1.425022354E1,6.547314477E0,1.641342475E1
1.606833779E1,-4.917037078E0,-1.188268358E1,3.998010898E0,1.346697865E1
1.607830379E1,-5.216312778E0,-8.323132582E0,1.607894696E0,9.953380347E0
1.608827079E1,-5.974067488E0,-5.086267778E0,-6.492192775E-1,7.872806865E0
1.609823779E1,-6.374687714E0,-2.036519138E0,-2.524126930E0,7.152291270E0
1.610820479E1,-5.417693224E0,1.959717130E0,-4.952478222E0,7.597297653E0
1.611817179E1,-4.997004769E0,3.857174277E0,-6.510659451E0,9.068436280E0
1.612813779E1,-5.078655288E0,3.968734474E0,-7.009069097E0,9.522113341E0
1.613810479E1,-5.161019753E0,4.124362797E0,-7.486684874E0,9.984835691E0
1.614807179E1,-3.992569772E0,4.568236046E0,-1.023682101E1,1.189965959E1
1.615803879E1,-2.909621579E0,4.950644535E0,-1.403862684E1,1.516765712E1
1.616800479E1,-4.735284858E0,4.076797451E0,-1.187773918E1,1.342102411E1
1.617797179E1,-6.490290091E0,3.073937402E0,-8.018583863E0,1.076432273E1
1.618793879E1,-6.592636830E0,2.940118024E0,-5.229659632E0,8.913837235E0
1.619790579E1,-6.038013808E0,3.428369302E0,-3.472711077E0,7.763443117E0
1.620787279E1,-5.822173782E0,3.848416318E0,-2.256169794E0,7.334733659E0
1.621783879E1,-5.759074724E0,4.136564181E0,-1.571933881E0,7.262856258E0
1.622780579E1,-5.696603072E0,4.396738966E0,-1.551648136E0,7.361400140E0
1.623777279E1,-5.780963191E0,4.544322689E0,-1.364660026E0,7.478816825E0
1.624773979E1,-6.108992574E0,4.564903134E0,-1.043233904E0,7.697172719E0
1.625770579E1,-6.280774999E0,4.556330531E0,-8.862007883E-1,7.809842145E0
1.626767279E1,-6.230953213E0,4.430838173E0,-8.622769055E-1,7.694194326E0
1.627763979E1,-5.962432113E0,4.211219677E0,-8.417265737E-1,7.348025007E0
1.628760679E1,-5.612228919E0,3.855661018E0,-7.339179504E-1,6.848494060E0
1.629757279E1,-5.604488375E0,2.852502176E0,-7.608198202E-1,6.334501196E0
1.630753979E1,-4.840931766E0,1.297528144E0,-1.563265676E0,5.249952306E0
1.631750679E1,-3.246908273E0,-1.542355156E-1,-2.227508497E0,3.940557833E0
1.632747379E1,-2.390858506E0,-5.799631011E-1,-1.808239161E0,3.053242614E0
1.633744079E1,-1.050589921E0,-1.436969619E0,-1.507815068E0,2.332836717E0
1.634740679E1,4.411281283E0,-4.040577459E0,-1.149091896E-1,5.983215931E0
1.635737379E1,1.399652104E1,-7.548814464E0,3.019191091E0,1.618649795E1
1.636734079E1,1.888917757E1,-1.061847346E1,4.842512853E0,2.220366948E1
1.637730779E1,1.691724502E1,-1.328821623E1,4.033937361E0,2.188704001E1
1.638727379E1,1.141875380E1,-1.327506701E1,2.650484091E0,1.770989578E1
1.639724079E1,6.535513042E0,-8.716335030E0,9.019363765E-1,1.093164747E1
1.640720779E1,3.056850961E0,-1.900327545E0,-2.170661867E-1,3.605925721E0
1.641717479E1,-5.360201061E-2,2.883892953E0,6.868507880E-1,2.965042284E0
1.642714179E1,-9.101141462E-1,4.851089841E0,6.176593696E-1,4.974221899E0
1.643710779E1,1.557175509E0,3.827379205E0,5.749786422E-2,4.132424609E0
1.644707479E1,3.128227630E0,9.337389439E-1,4.783659750E-1,3.299471249E0
1.645704179E1,3.380149361E0,-2.614707609E0,1.026916080E0,4.395072493E0
1.646700879E1,2.064431699E0,-4.976762878E0,1.587523581E0,5.616963424E0
1.647697479E1,8.542206118E-1,-5.268972217E0,1.644218915E0,5.585267847E0
