"Time (s)","Linear Acceleration x (m/s^2)","Linear Acceleration y (m/s^2)","Linear Acceleration z (m/s^2)","Absolute acceleration (m/s^2)"
-2.045666653E-3,-2.719906182E-1,-5.506328827E-1,-1.021479923E0,1.191887873E0
7.979333343E-3,-5.863775698E-1,-5.830577400E-1,-1.525644398E0,1.735334496E0
1.800433334E-2,-9.068173398E-1,1.381989419E-3,-1.977947579E0,2.175912733E0
2.802933333E-2,-5.632060774E-1,9.804406554E-2,-2.476198180E0,2.541332555E0
3.805433333E-2,3.298098234E-2,-2.736137322E-1,-2.346418644E0,2.362547920E0
4.807933333E-2,8.511149362E-1,-7.380148020E-1,-2.251971493E0,2.518022655E0
5.810433332E-2,9.937179279E-1,-8.474819881E-1,-2.713952401E0,3.011849710E0
6.812933335E-2,7.264365841E-1,-8.570299065E-1,-2.991861205E0,3.195847907E0
7.815533332E-2,9.226521114E-1,-1.011458380E0,-3.339987468E0,3.609688527E0
8.818033335E-2,1.479221599E0,-1.320869351E0,-3.361646140E0,3.903006168E0
9.820533334E-2,1.773066405E0,-1.763361781E0,-2.476558369E0,3.519453168E0
1.082295833E-1,-1.633635162E0,-9.698408228E-1,-3.080147730E0,3.618931486E0
1.182545833E-1,-3.814110703E0,3.769173682E-2,-4.495159884E0,5.895364578E0
1.282795833E-1,-1.719298918E0,-3.269678208E-1,-2.407023865E0,2.976014216E0
1.383045833E-1,-1.073339756E-1,-8.882420513E-1,-4.677503550E-1,1.009596414E0
1.483295833E-1,5.726856565E-1,-9.960866350E-1,-2.386827582E-1,1.173510505E0
1.583545833E-1,3.082046905E-1,-8.081846058E-1,-1.127443165E0,1.421013926E0
1.683795833E-1,-2.281253180E-1,-8.330288404E-1,-1.199049922E0,1.477734389E0
1.784055833E-1,-7.758816630E-3,-1.034955416E0,-4.113375878E-1,1.113728658E0
1.884305833E-1,8.082275829E-1,-9.837212357E-1,-1.240972120E-1,1.279194830E0
1.984555833E-1,1.545388399E0,-6.310569486E-1,3.184440422E-1,1.699371879E0
2.084805833E-1,1.387001653E0,-2.046013847E-1,1.044983976E0,1.748607109E0
2.185055833E-1,7.738155493E-1,5.423731059E-2,1.076692257E0,1.327026151E0
2.285305833E-1,2.854905966E-1,2.003256083E-1,1.835370827E-1,3.941079684E-1
2.385555833E-1,7.429618388E-1,6.245250240E-1,-1.257420337E-1,9.786903793E-1
2.485805833E-1,1.837670829E0,1.422885430E0,4.292978954E-1,2.363457998E0
2.586055833E-1,2.693868969E0,2.136109500E0,8.614772987E-1,3.544296398E0
2.686315833E-1,2.607831576E0,2.214130653E0,5.537500334E-1,3.465515716E0
2.786565833E-1,1.819429855E0,1.867336093E0,6.295550913E-1,2.682090359E0
2.886815833E-1,8.027104425E-1,1.390050099E0,6.966746950E-1,1.749839696E0
2.987065833E-1,3.499266207E-3,7.849131261E-1,4.990832448E-2,7.865060084E-1
3.087315833E-1,-1.078770357E-1,4.325131331E-1,-2.059073603E-1,4.910223072E-1
3.187565833E-1,1.343622914E-1,5.314488991E-1,-2.935828507E-2,5.489563430E-1
3.287815833E-1,3.479794979E-1,4.658669668E-1,4.192231429E-1,7.168471282E-1
3.388065833E-1,9.574347854E-1,-1.442300525E-1,1.109109221E0,1.472279504E0
3.488315833E-1,1.707872289E0,-1.375187646E0,8.189130771E-1,2.340638256E0
3.588575833E-1,2.463333136E0,-2.613940455E0,-2.923607826E-2,3.591872714E0
3.688825833E-1,2.289128210E0,-2.542867256E0,-8.980995798E-1,3.537352781E0
3.789075833E-1,9.447638690E-1,-2.015206476E0,-2.293500758E0,3.195900755E0
3.889325833E-1,2.369159635E0,1.641760161E0,5.597393948E0,6.295960039E0
3.989575833E-1,3.162977048E0,-2.351078583E0,8.241320094E0,9.135171110E0
4.089825833E-1,4.462741166E-1,-4.177372777E0,8.294404042E-1,4.282239518E0
4.190075833E-1,-4.826812202E-1,-3.841221026E0,8.573596895E-2,3.872377925E0
4.290325833E-1,-8.571076745E-1,-4.246449151E0,1.275929114E0,4.516077840E0
4.390575833E-1,-1.253172920E0,-3.520595680E0,-1.028536928E-1,3.738397410E0
4.490825833E-1,-1.693560060E0,-3.024538370E0,-1.019562036E0,3.613237436E0
4.591085833E-1,-2.098686735E0,-2.681452699E0,-1.257593415E0,3.629905754E0
4.691335833E-1,-3.478089931E0,-2.889751863E0,-1.836963024E0,4.880799990E0
4.791585833E-1,-3.890797521E0,-2.223225119E0,-7.230836445E-1,4.539150277E0
4.891835833E-1,-2.504874095E0,-9.943217991E-1,1.138836465E0,2.925750941E0
4.992085833E-1,-1.599008828E0,-7.147457343E-1,1.695369773E0,2.437615508E0
5.092335833E-1,-1.007218564E0,-1.058521815E0,8.649400198E-1,1.697963164E0
5.192585833E-1,-5.518537813E-1,-1.748944302E0,2.211124599E-2,1.834076790E0
5.292835833E-1,-8.796065909E-1,-2.579507664E0,2.384786904E-2,2.725460743E0
5.393085833E-1,-8.375838214E-1,-3.247448264E0,9.289968520E-1,3.480014660E0
5.493345833E-1,-4.602746898E-1,-3.682850652E0,2.624411064E0,4.545632536E0
5.593595833E-1,5.338034266E-1,-3.267156012E0,2.317127602E0,4.040833432E0
5.693845833E-1,9.426202798E-1,-1.814309156E0,3.057099760E-1,2.067295164E0
5.794095833E-1,4.726433051E-1,-4.797525691E-1,-5.887257385E-1,8.945122786E-1
5.894345833E-1,2.467039686E-1,7.659703401E-1,-2.410935652E-1,8.400592343E-1
5.994595833E-1,3.800421202E-1,2.115359778E0,2.797670496E-1,2.167359824E0
6.094845833E-1,1.145712206E0,3.126619645E0,6.862339067E-1,3.399900563E0
6.195095833E-1,3.639138038E0,-1.116437463E0,5.381996557E0,6.592089593E0
6.295345833E-1,3.193877243E0,1.026015170E0,-1.766966590E0,3.791533978E0
6.395605833E-1,2.912267151E0,4.930245938E0,-4.604501063E0,7.347792526E0
6.495855833E-1,1.009033540E0,4.050146720E0,-4.936850368E0,6.464853339E0
6.596105833E-1,-2.874777728E-1,6.313682544E0,-6.635070074E0,9.163481086E0
6.696355833E-1,-3.542050284E-1,4.427879482E0,-9.710359937E0,1.067813973E1
6.796605833E-1,8.521112287E-1,5.445801959E0,-6.880509875E0,8.816136833E0
6.896855833E-1,1.870937685E0,5.574777503E0,-2.164910253E0,6.266210053E0
6.997105833E-1,2.351750135E0,2.574114192E0,-3.621495818E0,5.027128856E0
7.097355833E-1,1.294258381E0,5.278112000E-1,-4.011379972E0,4.247924046E0
7.197605833E-1,-1.105767537E0,-8.172945678E-2,-5.189647720E0,5.306773503E0
7.297855833E-1,-2.297589716E0,3.441788077E-2,-6.224433568E0,6.635034011E0
7.398115833E-1,-1.799164283E0,8.799553773E-1,-5.286448376E0,5.653127454E0
7.498365833E-1,-1.891989416E-1,1.119271535E0,-4.408232545E0,4.552041210E0
7.598615833E-1,4.633386308E-1,1.297062413E0,-3.623814532E0,3.876736430E0
7.698865833E-1,-4.390557289E-2,1.470369938E0,-2.825231931E0,3.185255236E0
7.799115833E-1,-1.082544735E0,1.326867425E0,-1.934565624E0,2.583606863E0
7.899365833E-1,-2.256743406E0,1.580064434E0,-7.783219984E-1,2.862739868E0
7.999615833E-1,-2.272663035E0,1.827840782E0,1.536004787E0,3.296256954E0
8.099865833E-1,-1.266426803E0,1.353900857E0,7.863282984E-1,2.013751865E0
8.200125833E-1,-9.200096816E-1,1.366510378E0,-2.105025994E0,2.672995111E0
8.300375833E-1,-3.428485662E-1,1.918435788E0,-2.177986381E0,2.922595711E0
8.400625833E-1,-1.689820181E0,6.501422605E-1,-1.154540040E0,2.147356492E0
8.500875833E-1,-1.228530999E0,4.174327254E-1,-9.652525127E-2,1.301097852E0
8.601125833E-1,2.460215986E-2,5.629412717E-1,2.940938973E-1,6.356094415E-1
8.701375833E-1,1.005039892E0,-2.353697258E-1,-2.423517399E-1,1.060301116E0
8.801625833E-1,3.165862064E0,-2.459880063E0,1.581765389E-1,4.012320071E0
8.901875833E-1,2.731402246E0,-4.556018874E0,8.824324771E-1,5.384844779E0
9.002125833E-1,2.873427606E0,-5.228754483E0,4.253187482E0,7.327077413E0
9.102385833E-1,2.813605328E0,-4.023876641E0,3.388697113E0,5.965838272E0
9.202635833E-1,2.129369999E0,-2.982203651E0,2.030285422E0,4.189249826E0
9.302885833E-1,8.339819366E-1,-2.308431915E0,1.836415139E0,3.065420745E0
9.403135833E-1,-1.968254650E-1,-1.168120783E0,1.482823484E0,1.897896707E0
9.503385833E-1,-3.409435433E-1,-4.850391099E-1,1.945272169E0,2.033614823E0
9.603635833E-1,-5.141140974E-1,-4.548397028E-1,3.049045805E0,3.125359624E0
9.703885833E-1,1.179474614E0,-9.362400904E-1,4.148896544E0,4.413734066E0
9.804135833E-1,3.336961534E0,-2.032897958E0,3.193432270E0,5.046384453E0
9.904385833E-1,4.328477401E0,-2.951375084E0,2.051485087E0,5.626270750E0
1.000463583E0,4.439947550E0,-2.751622503E0,-8.198989177E-1,5.287418546E0
1.010489583E0,3.600403157E0,-1.857299640E0,-1.799763622E0,4.433014092E0
1.020514583E0,2.069196888E0,-5.045264179E-1,-1.418575448E0,2.558999603E0
1.030539583E0,8.739850777E-1,1.330642095E-1,-2.248069500E0,2.415651564E0
1.040564583E0,8.081647253E-1,5.619598165E-1,-2.479897714E0,2.668112016E0
1.050589583E0,1.756802959E0,3.549865088E-1,-2.262721599E0,2.886569087E0
1.060614583E0,1.783894279E0,8.720265529E-1,-1.481695118E0,2.477524880E0
1.070639583E0,6.028029102E-1,1.562588861E0,-2.835737039E0,3.293396400E0
1.080664583E0,1.705391901E0,1.295393325E0,-2.137211262E0,3.025570587E0
1.090689583E0,4.386274204E0,-7.615121305E-2,-3.208064635E-1,4.398649473E0
1.100715583E0,5.402210382E0,-1.673713440E0,4.043229756E-1,5.669979784E0
1.110741583E0,4.381332137E0,-2.560909717E0,3.285724430E-1,5.085497982E0
1.120766583E0,2.806606795E0,-2.528923693E0,-5.597671106E-2,3.778310488E0
1.130791583E0,1.591213905E0,-2.003228016E0,-6.031753778E-1,2.628441499E0
1.140816583E0,6.423043603E-1,-8.855520397E-1,-1.335270166E0,1.726181834E0
1.150841583E0,-2.177203732E0,3.802087659E-1,-2.345160323E0,3.222507058E0
1.160866583E0,-4.193564009E0,2.530163888E0,-2.805167795E0,5.644171751E0
1.170891583E0,-4.831010503E0,4.974387154E0,-1.601089852E0,7.116648000E0
1.180916583E0,-4.864574105E0,5.880889767E0,2.881028402E-1,7.637535527E0
1.190941583E0,-5.453969935E0,5.495213855E0,9.875164441E-1,7.805020954E0
1.200967583E0,-5.657668802E0,4.577349517E0,1.147363533E0,7.367346058E0
1.210992583E0,-5.516179047E0,3.520417925E0,1.751976668E0,6.774289327E0
1.221017583E0,-5.457991065E0,3.150740579E0,2.448018109E0,6.760889389E0
1.231042583E0,-2.693786523E0,7.955954921E0,8.696119452E0,1.209033490E1
1.241067583E0,2.162926000E-1,1.256332521E1,1.188753560E1,1.729732423E1
1.251092583E0,-4.811970799E0,9.057854524E0,-7.976315510E-1,1.028766289E1
1.261117583E0,-2.940875823E0,1.088576606E1,2.806897402E-1,1.127951417E1
1.271142583E0,4.556349242E-1,1.063900420E1,2.359129322E-1,1.065136933E1
1.281167583E0,8.937586069E-1,8.858158076E0,-1.163094224E0,8.978783722E0
1.291193583E0,1.031213198E0,7.950624014E0,-6.361361325E-1,8.042418296E0
1.301218583E0,1.888320288E0,7.061394660E0,-2.074727769E0,7.598259233E0
1.311243583E0,2.252989201E0,6.241114504E0,-3.896751741E0,7.694942802E0
1.321268583E0,2.848723997E0,5.217000411E0,-5.064819607E0,7.809271371E0
1.331293583E0,1.674361019E0,4.785314512E0,-3.533739052E0,6.179808370E0
1.341318583E0,9.984997809E-3,5.763044983E0,-1.787345306E0,6.033853696E0
1.351343583E0,-5.608622941E-1,8.096844751E0,-9.750372434E-1,8.174604520E0
1.361368583E0,-7.636267760E-1,9.861787620E0,-2.252369689E0,1.014451330E1
1.371393583E0,-1.591211566E0,9.689242133E0,-2.988408424E0,1.026372020E1
1.381419583E0,-4.790962045E0,3.384575411E0,-3.408811535E0,6.784442801E0
1.391444583E0,-5.768513299E0,-1.006518769E1,-2.766217153E0,1.192626121E1
1.401469583E0,-5.914290817E0,-2.817116931E1,1.962083498E0,2.885209504E1
1.411494583E0,2.379562709E0,-2.837708954E1,1.099799284E1,3.052666663E1
1.421519583E0,9.797562972E0,-1.430006637E1,1.460258377E1,2.266538310E1
1.431544583E0,3.893205917E-1,-1.384100498E1,1.164772375E1,1.809404482E1
1.441569583E0,-2.055097935E0,-4.755976108E0,4.789495271E0,7.055636131E0
1.451594583E0,-2.449426411E0,-9.791454971E-2,-2.784688507E0,3.709955133E0
1.461619583E0,-4.355905227E-1,4.736314845E-1,-9.287553620E0,9.309818373E0
1.471644583E0,1.248977543E0,2.101898611E-1,-1.318165891E1,1.324236596E1
1.481670583E0,1.545616440E0,-4.767024422E-1,-1.301289073E1,1.311302789E1
1.491695583E0,-8.913228031E-1,-4.120806520E0,-1.076164136E1,1.155804601E1
1.501720583E0,-1.260407972E0,-6.267317047E0,-5.462412729E0,8.408676712E0
1.511745583E0,-3.704433895E0,-5.960495515E0,3.932949514E0,8.044776514E0
1.521770583E0,-6.547227353E0,-4.333271533E0,7.441322175E0,1.081742594E1
1.531795583E0,-4.754344150E0,-4.274919829E0,-1.515208873E0,6.570737079E0
1.541820583E0,-2.640125675E-1,-5.875742463E0,-3.560106486E0,6.875202566E0
1.551845583E0,6.161962500E-1,-5.456368462E0,-4.794553113E0,7.289677234E0
1.561871583E0,4.091240951E0,-3.184324062E0,-1.654903532E0,5.442139097E0
1.571896583E0,5.420028602E0,-2.059229139E0,2.179661901E0,6.194195726E0
1.581921583E0,3.360398051E0,-2.333358303E0,3.281781360E0,5.244704465E0
1.591946583E0,1.478343347E0,-1.618803992E0,3.282818656E0,3.947521215E0
1.601971583E0,-1.310296270E0,-1.448578096E0,4.443604399E0,4.853954560E0
1.611996583E0,-3.739882640E0,-1.202233146E0,3.951226741E0,5.571739356E0
1.622021583E0,-5.107068663E0,-7.216651100E-1,2.180612804E0,5.599823485E0
1.632046583E0,-5.850767251E0,-2.411841971E-1,1.706903991E0,6.099440013E0
1.642071583E0,-6.250433212E0,-3.582121253E-2,2.236957598E0,6.638763273E0
1.652097583E0,-6.186238385E0,1.010258532E-1,1.546898443E0,6.377510986E0
1.662122583E0,-4.714220264E0,-4.685128319E-1,9.014932307E-1,4.822454459E0
1.672147583E0,-3.594244285E0,-1.497187169E0,1.122043188E0,4.052054086E0
1.682172583E0,-2.898764176E0,-2.558963764E0,3.930814111E-1,3.886597778E0
1.692197583E0,-1.486570234E0,-2.837442087E0,-9.580979327E-1,3.343489241E0
1.702222583E0,-4.352165933E-1,-2.327499393E0,-1.440548115E0,2.771614291E0
1.712247583E0,1.517857369E0,-1.418273147E0,-1.530661894E0,2.580371203E0
1.722272583E0,2.291107346E0,-7.550591433E-1,-1.752112323E0,2.981473591E0
1.732297583E0,1.997950465E0,8.786727905E-2,-1.814192212E0,2.700151866E0
1.742323583E0,1.731126228E0,1.145209345E0,-1.958469919E0,2.853753122E0
1.752348583E0,1.403390521E0,1.930098644E0,-1.370857344E0,2.752096580E0
1.762373583E0,1.383480021E0,2.270082074E0,-3.627893257E-1,2.683077652E0
1.772398583E0,7.877803083E-1,2.556462325E0,3.490286346E-1,2.697761743E0
1.782423583E0,4.533683241E-1,2.384627860E0,1.406411924E0,2.805349776E0
1.792448583E0,2.154528668E-1,3.410534710E0,1.843451679E0,3.882844452E0
1.802473583E0,1.941795999E-1,5.115907314E0,1.476700426E0,5.328307190E0
1.812498583E0,6.088202067E-1,6.393718062E0,4.501477508E-1,6.438394652E0
1.822523583E0,-2.841045141E-1,6.753497826E0,3.799919803E-1,6.770143437E0
1.832549583E0,-8.699436285E-1,6.306907960E0,1.722636801E0,6.595556646E0
1.842574583E0,-6.463578694E-1,4.912839947E0,1.734402569E0,5.249945439E0
1.852599583E0,-4.847025295E-1,3.665475066E0,3.724312381E-1,3.716093248E0
1.862624583E0,-4.260415810E-1,2.895897871E0,-6.107557082E-1,2.990110106E0
1.872649583E0,-7.929116786E-2,2.315327244E0,-1.087299106E0,2.559149602E0
1.882674583E0,-3.775956452E-2,1.929220392E0,-1.178565810E0,2.261047208E0
1.892699583E0,-1.529609688E-2,1.915682918E0,-1.252126122E0,2.288644761E0
1.902724583E0,2.668499655E-1,1.048968853E0,-1.863231640E0,2.154803170E0
1.912749583E0,6.422542204E-1,5.023454064E-1,-2.625342525E0,2.749047974E0
1.922775583E0,8.902821448E-1,-1.177957261E0,-3.958341633E0,4.224766750E0
1.932800583E0,6.499916947E-1,-2.237865670E0,-6.129687624E0,6.557713194E0
1.942825583E0,1.346414229E-1,-2.244304039E0,-8.379338357E0,8.675732836E0
1.952850583E0,-8.422746040E-2,-1.938414554E0,-8.711091832E0,8.924554115E0
1.962875583E0,-1.785201716E-1,-2.482606729E0,-6.564749705E0,7.020765222E0
1.972900583E0,2.703775176E-1,-3.988062446E0,-4.623164206E0,6.111578629E0
1.982925583E0,5.983047934E-1,-4.186111148E0,-3.555520807E0,5.524782655E0
1.992950583E0,-6.727075428E-3,-2.965855713E0,-3.395484854E0,4.508399135E0
2.002975583E0,2.007106474E-1,-3.224935899E0,-4.022021320E0,5.159181312E0
2.013001583E0,4.615506253E-1,-3.148642014E0,-4.701873868E0,5.677551706E0
2.023026583E0,2.620078862E-1,-2.769033757E0,-5.344624078E0,6.025047935E0
2.033051583E0,-1.069733486E-2,-2.355295887E0,-4.551374431E0,5.124699245E0
2.043076583E0,6.180996649E-1,-1.479105240E0,-2.772497063E0,3.202583249E0
2.053101583E0,-3.599185256E-1,-2.834351833E0,-3.556299949E0,4.561837457E0
2.063126583E0,-1.125152226E0,-4.694917728E0,-3.980903699E0,6.257460688E0
2.073151583E0,6.674095269E-1,-2.749967156E0,-1.534865165E0,3.219249278E0
2.083176583E0,-4.857504529E0,-1.586344929E1,-3.855275102E0,1.703254296E1
2.093201583E0,-6.789780968E0,-1.406077375E1,-7.116193596E0,1.715944916E1
2.103227583E0,-4.165755529E0,1.334814084E-1,-4.781739525E0,6.343214429E0
2.113252125E0,-3.694819026E0,8.787431910E0,3.504212952E0,1.015628651E1
2.123277125E0,-2.512554705E0,2.044587477E1,1.373644156E1,2.475957498E1
2.133302125E0,-6.645749429E0,1.970641249E1,1.884700979E1,2.806632246E1
2.143327125E0,-7.458304828E0,1.099451959E-1,6.399886290E0,9.828374402E0
2.153352125E0,-5.965501317E0,-9.404649961E-1,2.470525796E0,6.524965753E0
2.163377125E0,-3.249061803E0,3.631519700E0,5.717951256E0,7.512609700E0
2.173402125E0,7.302559854E-1,-6.707366803E0,3.348974346E0,7.532441331E0
2.183427125E0,1.295284567E0,-9.969647698E0,-3.059659378E-1,1.005809388E1
2.193453125E0,6.048789641E-1,-6.313711195E0,-3.034810174E-1,6.349876246E0
2.203478125E0,-4.741954850E-1,-2.863889628E0,1.180211363E0,3.133627933E0
2.213503125E0,-1.336093747E0,-7.351008421E-1,2.341938508E0,2.794672740E0
2.223528125E0,-1.717001547E0,1.508189875E-1,2.066805961E0,2.691194449E0
2.233553125E0,-1.166506878E0,5.570016700E-1,1.361889031E0,1.877692970E0
2.243578125E0,-5.362194596E-1,1.383279315E0,4.738468082E-1,1.557409314E0
2.253603125E0,-5.855235474E-2,2.074421960E0,-7.632031453E-1,2.211138595E0
2.263628125E0,3.030953204E-1,1.879845918E0,-1.431517675E0,2.382211222E0
2.273653125E0,1.140607733E0,2.123112894E0,-1.854169625E0,3.040812286E0
2.283679125E0,1.750803424E0,2.861372986E0,-1.732392004E0,3.775440378E0
2.293704125E0,1.626149118E0,3.612457193E0,-9.152107986E-1,4.065933931E0
2.303729125E0,1.195580258E0,4.035023189E0,-3.389314433E-1,4.222049124E0
2.313754125E0,8.338809259E-1,4.247040889E0,-5.636014223E-2,4.328497451E0
2.323779125E0,4.854406674E-1,4.459892988E0,-1.971681118E-3,4.486234723E0
2.333804125E0,2.111332362E-1,4.487937403E0,-1.010562587E-1,4.494037355E0
2.343829125E0,-2.337181615E-1,4.440788380E0,-5.260681907E-2,4.447245562E0
2.353854125E0,-6.605807099E-1,4.507168311E0,2.227812552E-1,4.560763592E0
2.363879125E0,-7.427222492E-1,4.693218527E0,7.948383361E-1,4.817645116E0
2.373905125E0,-8.135162432E-1,4.663700613E0,1.115879054E0,4.863856304E0
2.383930125E0,-1.030139942E0,4.397887359E0,1.000850362E0,4.626478463E0
2.393955125E0,-1.230236632E0,4.185710029E0,4.762978148E-1,4.388679782E0
2.403980125E0,-1.236832291E0,3.981152791E0,-2.819683801E-1,4.178377416E0
2.414005125E0,-1.320499807E0,3.402557353E0,-1.205436397E0,3.843721269E0
2.424030125E0,-1.190191391E0,2.819315134E0,-1.864537469E0,3.583516896E0
2.434055125E0,-8.852006221E-1,2.179663070E0,-2.239735610E0,3.248219027E0
2.444080125E0,-4.494800719E-1,1.276077633E0,-2.487329525E0,2.831468634E0
2.454105125E0,1.129021329E-1,2.692514169E-1,-2.586408840E0,2.602835743E0
2.464131125E0,8.182361157E-1,-7.478501111E-1,-2.509261846E0,2.743207090E0
2.474156125E0,1.531758539E0,-1.539500545E0,-2.317651074E0,3.176138009E0
2.484181125E0,2.386567966E0,-1.811023021E0,-2.167352489E0,3.697692233E0
2.494206125E0,2.692821733E0,-1.715154997E0,-2.111976287E0,3.827987641E0
2.504231125E0,2.536051742E0,-1.622999954E0,-1.997654450E0,3.613351711E0
2.514256125E0,2.235060615E0,-1.859959538E0,-2.113833362E0,3.594890390E0
2.524281125E0,1.646768009E0,-2.304354944E0,-2.281660146E0,3.637013831E0
2.534306125E0,8.168718141E-1,-2.285438617E0,-2.816280136E0,3.717787385E0
2.544331125E0,4.964547021E-1,-3.589609197E0,-2.754411040E0,4.551762476E0
2.554357125E0,1.251891502E0,-5.110001042E0,-1.992803600E0,5.625887412E0
2.564382125E0,2.442379493E0,-5.861261249E0,-1.454157509E0,6.514151908E0
2.574407125E0,3.887933263E0,-5.554825049E0,-1.308107511E0,6.905306050E0
2.584432125E0,5.124141948E0,-4.822339666E0,-1.548985606E0,7.204939068E0
2.594457125E0,6.084819015E0,-3.613330767E0,-1.784717859E0,7.298383349E0
2.604482125E0,6.691049563E0,-1.946439857E0,-1.858402132E0,7.211964424E0
2.614507125E0,6.682037249E0,-1.018635837E0,-1.379148842E0,6.898499279E0
2.624532125E0,5.680577023E0,-2.102169921E0,-6.412812437E-1,6.090920729E0
2.634557125E0,4.229462405E0,-3.604134266E0,-2.290699357E-1,5.561529383E0
2.644583125E0,3.351234003E0,-4.191039766E0,-2.848946191E-1,5.373709018E0
2.654608125E0,2.114443519E0,-3.697669836E0,-4.780046171E-1,4.286271343E0
2.664633125E0,1.906884101E-1,-2.955723658E0,-5.141851410E-2,2.962314682E0
2.674658125E0,-1.354373751E0,-3.267659165E0,8.630507845E-1,3.640986313E0
2.684683125E0,-2.454792109E0,-3.388171449E0,1.577263472E0,4.471405833E0
2.694708125E0,-3.164694960E0,-2.458259507E0,2.538341804E0,4.743575983E0
2.704733125E0,-2.969922452E0,-2.616179354E0,4.512772282E0,6.002495102E0
2.714758125E0,-3.789339267E0,-4.359211535E0,5.918256984E0,8.269678532E0
2.724783125E0,-4.883811152E0,-4.883292797E0,6.023192285E0,9.163896836E0
2.734808125E0,-5.491462866E0,-3.358065889E0,5.334799002E0,8.360194455E0
2.744834125E0,-5.471289972E0,-1.228366107E0,4.027945719E0,6.904219287E0
2.754859125E0,-5.149568565E0,4.364057708E-1,2.944987001E0,5.948231236E0
2.764884125E0,-5.033215406E0,1.278929320E0,2.196890137E0,5.638727144E0
2.774909125E0,-5.192971863E0,1.155326782E0,1.703583941E0,5.586048244E0
2.784934125E0,-5.547552867E0,5.520274436E-1,1.240428913E0,5.711281905E0
2.794959125E0,-5.571790745E0,5.827440369E-1,8.358460289E-1,5.664192909E0
2.804984125E0,-4.859727348E0,1.563365371E0,4.036472567E-1,5.120936661E0
2.815009125E0,-3.368132748E0,2.827045738E0,-9.174109597E-2,4.398286285E0
2.825034125E0,-1.785256680E0,3.673330801E0,-4.277419879E-1,4.106514799E0
2.835060125E0,-5.462361420E-1,4.028325203E0,-6.021456101E-1,4.109544646E0
2.845085125E0,3.975544946E-1,3.610694257E0,-8.365272295E-1,3.727591769E0
2.855110125E0,1.158151645E0,2.937989053E0,-9.242898434E-1,3.290502488E0
2.865135125E0,2.406561058E0,1.801966268E0,-3.568081357E-1,3.027528795E0
2.875160125E0,4.415737446E0,1.288286034E0,-6.836506069E-2,4.600336062E0
2.885185125E0,7.355971538E0,2.756897861E0,-1.868927997E0,8.074880491E0
2.895210125E0,7.109987361E0,4.674628474E0,-3.707503683E0,9.281683856E0
2.905235125E0,6.048741109E0,6.445478200E0,-4.122077705E0,9.753101191E0
2.915260125E0,4.500908867E0,7.619893218E0,-2.890692095E0,9.310051238E0
2.925285125E0,2.772979750E0,8.320528817E0,-1.096697921E0,8.838742151E0
2.935311125E0,1.332673272E0,8.709777378E0,1.138540596E-1,8.811878504E0
2.945336125E0,1.277420373E-1,8.849148102E0,6.562417835E-1,8.874367213E0
2.955361125E0,-8.425346589E-1,8.759027306E0,8.067415130E-1,8.836359876E0
2.965386125E0,-1.645157393E0,7.890291274E0,6.584327352E-1,8.086827122E0
2.975411125E0,-2.249292007E0,6.361465405E0,3.974288160E-1,6.759105436E0
2.985436125E0,-2.202996092E0,4.160772239E0,1.487011260E-1,4.710342815E0
2.995461125E0,-1.720773001E0,1.848219498E0,-5.923346400E-1,2.593807117E0
3.005486125E0,-1.103100329E0,-5.219142830E-1,-1.852617774E0,2.218426801E0
3.015511125E0,-6.004505297E-2,-2.840203142E0,-3.091888354E0,4.198825180E0
3.025536125E0,1.663336387E0,-4.782994922E0,-3.880418129E0,6.379762787E0
3.035562125E0,2.430280581E0,-6.794190354E0,-4.064251081E0,8.281631670E0
3.045587125E0,2.563544472E0,-9.099240532E0,-4.676131793E0,1.054676003E1
3.055612125E0,1.393905460E0,-1.093186317E1,-6.120762434E0,1.260604369E1
3.065637125E0,-6.810176788E-1,-1.066766725E1,-6.696423154E0,1.261368276E1
3.075662125E0,-6.061952455E-1,-8.238485949E0,-6.756552411E0,1.067197844E1
3.085687125E0,5.976183303E-1,-5.502618769E0,-6.228912535E0,8.332785390E0
3.095712125E0,1.506176386E0,-3.715639499E0,-5.484129288E0,6.793395192E0
3.105736833E0,1.406924286E0,-4.400312784E0,-5.301478643E0,7.031917544E0
3.115761833E0,3.787922413E-1,-5.851884069E0,-5.681355872E0,8.164914897E0
3.125786833E0,-1.190982665E0,-5.088975039E0,-5.440250612E0,7.544032965E0
3.135812833E0,-3.332861759E0,-1.763960536E0,-3.464291672E0,5.120628971E0
3.145837833E0,-5.662652968E0,1.741792572E0,-7.938858247E-1,5.977435462E0
3.155862833E0,-7.928043237E0,2.582897002E0,1.203546285E0,8.424591987E0
3.165887833E0,-9.580772189E0,-1.200749123E-1,4.669263654E0,1.065868832E1
3.175912833E0,-1.049430783E1,-3.222712787E0,9.145870907E0,1.428857338E1
3.185937833E0,-1.173798955E1,-3.029788585E0,9.710196215E0,1.553215787E1
3.195962833E0,-1.144581471E1,-1.434131965E0,7.285081065E0,1.364316001E1
3.205987833E0,-8.365699142E0,-4.759943444E-1,5.330467969E0,9.931031242E0
3.216012833E0,-5.126822312E0,-5.579992050E-1,4.147570395E0,6.618006521E0
3.226037833E0,-2.968587825E0,2.951586753E-1,4.042796477E0,5.024324400E0
3.236063833E0,-1.728884551E0,3.511182833E-1,5.096188749E0,5.392908826E0
3.246088833E0,-4.740280719E-1,5.530612314E-1,7.751893526E0,7.786040880E0
3.256113833E0,7.225233351E-1,8.130068046E-1,1.000845216E1,1.006737973E1
3.266138833E0,1.981444068E0,4.671632946E-2,1.038860889E1,1.057598684E1
3.276163833E0,2.572425516E0,-1.080602875E0,7.378905487E0,7.888809910E0
3.286188833E0,2.084465137E0,-1.590919790E0,2.245919187E0,3.452560453E0
3.296213833E0,1.823229961E0,-6.909321445E-1,-1.519550869E0,2.471960671E0
3.306238833E0,1.913323713E0,1.490189806E0,-3.694721670E0,4.419552184E0
3.316263833E0,2.496292137E0,3.262508937E0,-4.837855253E0,6.346674913E0
3.326288833E0,3.417160190E0,4.260309391E0,-5.028767429E0,7.423996345E0
3.336314833E0,2.981680910E0,4.542817031E0,-4.266927854E0,6.908999996E0
3.346339833E0,2.701359545E0,4.847587359E0,-3.576221412E0,6.601954724E0
3.356364833E0,1.783161038E0,4.960347404E0,-3.318760321E0,6.228874676E0
3.366389833E0,4.658568073E-1,4.679364719E0,-2.871969311E0,5.510143778E0
3.376414833E0,-8.225699258E-1,4.345662367E0,-3.027874791E0,5.359983997E0
3.386439833E0,-1.607448115E0,4.525055528E0,-3.608505644E0,6.006773673E0
3.396464833E0,-1.838771860E0,4.561195414E0,-3.710916118E0,6.160883378E0
3.406489833E0,-1.707325282E0,4.617282491E0,-3.030821788E0,5.781015303E0
3.416514833E0,-1.703709803E0,4.806700119E0,-2.063414138E0,5.501333568E0
3.426539833E0,-1.679141118E0,5.025265532E0,-1.450307264E0,5.493286786E0
3.436564833E0,-1.579146129E0,4.640695328E0,-1.314029571E0,5.075079244E0
3.446590833E0,-1.386578022E0,3.597144504E0,-1.597984981E0,4.173200594E0
3.456615833E0,-8.975933571E-1,2.099334022E0,-2.020024143E0,3.048503683E0
3.466640833E0,1.033849854E-1,5.201799989E-1,-1.993802743E0,2.063134766E0
3.476665833E0,7.089210304E-1,-8.792072260E-1,-1.959003185E0,2.261253602E0
3.486690833E0,1.223028038E0,-2.270686092E0,-2.298059978E0,3.454401912E0
3.496715833E0,1.875084969E0,-3.376159514E0,-2.883817524E0,4.819834044E0
3.506740833E0,2.426672702E0,-4.114690917E0,-3.360278476E0,5.840453166E0
3.516765833E0,2.854930817E0,-4.799032080E0,-3.579475973E0,6.632796327E0
3.526790833E0,3.102383229E0,-5.392977628E0,-3.185840245E0,6.989890376E0
3.536815833E0,3.452941641E0,-5.780017111E0,-1.774186293E0,6.962696373E0
3.546840833E0,4.087882018E0,-5.515089126E0,-3.521511939E-1,6.873936130E0
3.556866833E0,4.417582828E0,-4.928325128E0,-6.728075302E-1,6.652525579E0
3.566891833E0,4.207582709E0,-4.684182240E0,-1.697617296E0,6.521289749E0
3.576916833E0,3.624189046E0,-4.693663500E0,-2.405031865E0,6.399171944E0
3.586941833E0,3.114434925E0,-4.642195723E0,-2.770375108E0,6.238963397E0
3.596966833E0,2.573510467E0,-4.481372150E0,-2.087185116E0,5.573328823E0
3.606991833E0,2.190969100E0,-4.767722579E0,-1.567489851E0,5.476180113E0
3.617016833E0,2.085918609E0,-4.986582107E0,-1.355857043E0,5.572737736E0
3.627041833E0,2.280970467E0,-4.318605546E0,-2.572147773E-1,4.890740187E0
3.637066833E0,2.120508105E0,-2.770966262E0,1.002322837E0,3.630352561E0
3.647091833E0,1.091245684E0,-2.094821725E0,2.115793495E0,3.171068798E0
3.657117833E0,-3.080254734E-2,-1.283057454E0,2.926557162E0,3.195609809E0
3.667142833E0,-9.755075057E-1,-3.805847418E-1,3.578693615E0,3.728740757E0
3.677167833E0,-1.641297792E0,-3.537553775E-1,4.527286241E0,4.828594207E0
3.687192833E0,-2.040862158E0,-1.128927189E0,5.349893589E0,5.836176519E0
3.697217833E0,-2.394156336E0,-2.447556179E0,5.636872010E0,6.595213557E0
3.707242833E0,-2.484934213E0,-3.825225676E0,5.787399806E0,7.368937917E0
3.717267833E0,-2.532372966E0,-4.766412803E0,6.006468079E0,8.075225237E0
3.727292833E0,-2.867078115E0,-4.712085153E0,6.271154575E0,8.351722164E0
3.737317833E0,-3.111778243E0,-3.196063517E0,6.145649353E0,7.593878575E0
3.747342833E0,-3.223167408E0,-1.291531239E0,5.094035220E0,6.164905182E0
3.757367833E0,-3.186856784E0,4.513956928E-1,3.738844759E0,4.933434338E0
3.767393833E0,-3.226199482E0,1.961611628E0,2.522767745E0,4.540995526E0
3.777418833E0,-3.253391374E0,3.037634379E0,1.526918507E0,4.705662352E0
3.787443833E0,-3.219721352E0,3.743478093E0,6.671713990E-1,4.982504540E0
3.797468833E0,-3.027687095E0,4.060085524E0,-1.181305669E-2,5.064713532E0
3.807493833E0,-2.492096467E0,3.865037028E0,-6.402467251E-1,4.643163997E0
3.817518833E0,-1.616123044E0,3.721831700E0,-1.188556509E0,4.228067108E0
3.827543833E0,-4.701567766E-1,3.589913253E0,-1.336468846E0,3.859361804E0
3.837568833E0,5.797862229E-1,3.766815500E0,-1.022747015E0,3.946018567E0
3.847593833E0,1.414716578E0,4.220973417E0,-7.784316337E-1,4.519291470E0
3.857618833E0,1.756225255E0,5.165430307E0,-1.407051755E0,5.634340427E0
3.867643833E0,1.424669562E0,6.800595394E0,-3.056822602E0,7.590912033E0
3.877668833E0,7.879601102E-1,8.138689765E0,-3.851866175E0,9.038585357E0
3.887694833E0,1.190496761E-2,8.933032258E0,-3.374615264E0,9.549200764E0
3.897719833E0,-7.854651032E-1,9.264328480E0,-2.327195338E0,9.584392299E0
3.907744833E0,-1.444297642E0,9.033471050E0,-1.132397511E0,9.218021426E0
3.917769833E0,-2.111642118E0,8.339500108E0,-1.548950815E-1,8.604085481E0
3.927794833E0,-2.613317142E0,7.042316950E0,4.278126296E-1,7.523740968E0
3.937819833E0,-2.869967809E0,5.266622221E0,6.157772970E-1,6.029362033E0
3.947844833E0,-2.763398795E0,3.472310543E0,4.224625369E-1,4.457778371E0
3.957869833E0,-2.154764164E0,1.848238209E0,3.304842632E-2,2.839028933E0
3.967894833E0,-1.132820703E0,3.557779294E-1,-6.191254127E-1,1.339095574E0
3.977919833E0,-1.721211981E-2,-1.283449218E0,-1.452881062E0,1.938659726E0
3.987944833E0,1.150638193E0,-3.124073183E0,-2.309996338E0,4.052145677E0
3.997970833E0,2.695788025E0,-5.642842602E0,-2.689901633E0,6.807680699E0
4.007995833E0,4.026029586E0,-9.539463365E0,-2.689012856E0,1.069771310E1
4.018020833E0,3.510305166E0,-1.271014763E1,-3.159576892E0,1.355924117E1
4.028045833E0,2.167495307E0,-1.137312680E1,-4.658446305E0,1.247987064E1
4.038070833E0,1.613333922E0,-7.547660809E0,-7.040390292E0,1.044687156E1
4.048095833E0,1.061721996E0,-3.878178645E0,-8.307283119E0,9.229218603E0
4.058120833E0,3.220458540E-1,-1.477465680E0,-8.298186021E0,8.434839038E0
4.068145833E0,-4.020112423E-2,-1.602442898E0,-6.641114341E0,6.831825456E0
4.078170833E0,2.663398690E-1,-3.294866844E0,-4.011450723E0,5.197963193E0
4.088195833E0,5.190243332E-1,-4.698165856E0,-2.467992783E0,5.332273159E0
4.098220833E0,-6.751266821E-1,-3.877210931E0,-1.876714004E0,4.360116523E0
4.108247083E0,-3.018050299E0,-1.260095438E0,-3.534991233E-1,3.289594162E0
4.118272083E0,-5.424008217E0,-6.353537750E-1,1.268975605E0,5.606588860E0
4.128297083E0,-7.227114108E0,-3.122882105E0,4.122826148E0,8.887140508E0
4.138322083E0,-7.443584463E0,-5.344732252E0,9.260472826E0,1.302802631E1
4.148347083E0,-7.603663101E0,-4.170992587E0,1.028906589E1,1.345651324E1
4.158372083E0,-7.588728728E0,-1.847876852E0,6.903655493E0,1.042419837E1
4.168397083E0,-6.411322274E0,-9.230192435E-1,5.395160394E0,8.429992497E0
4.178422083E0,-4.415830709E0,-5.305605608E-1,5.266808163E0,6.893498646E0
4.188447083E0,-2.230903391E0,5.391588914E-1,6.297883367E0,6.703055807E0
4.198472083E0,-3.576699788E-1,1.517661195E0,7.473509928E0,7.634433441E0
4.208497083E0,1.177656787E0,1.219312863E0,8.052259147E0,8.228759125E0
4.218522083E0,2.447446398E0,-1.562457883E-1,7.780324443E0,8.157686869E0
4.228548083E0,2.856275969E0,-1.141076533E0,5.302697788E0,6.130168994E0
4.238573083E0,2.644995894E0,-9.203266007E-1,1.960798280E0,3.418732839E0
4.248598083E0,2.292542253E0,3.484613085E-1,-2.885969299E-1,2.336763457E0
4.258623083E0,2.023343900E0,1.268694354E0,-1.503310958E0,2.821958493E0
4.268648083E0,2.193110205E0,2.011274369E0,-2.119907450E0,3.653623483E0
4.278673083E0,2.133237932E0,2.943718740E0,-2.431452070E0,4.373573283E0
4.288698083E0,1.570355718E0,3.998131936E0,-2.647936751E0,5.046052427E0
4.298723083E0,4.262036951E-1,4.871644558E0,-2.677320179E0,5.575178350E0
4.308748083E0,-9.144690793E-1,5.511168568E0,-2.571219528E0,6.149829472E0
4.318773083E0,-1.957505421E0,6.224418949E0,-2.802640629E0,7.101409242E0
4.328798083E0,-2.834896209E0,6.412716835E0,-2.961065674E0,7.611010685E0
4.338823083E0,-3.082113271E0,6.426953636E0,-2.331502397E0,7.499403888E0
4.348849083E0,-2.746460288E0,6.296748422E0,-1.335085394E0,6.998181037E0
4.358874083E0,-2.377050160E0,5.786474192E0,-5.554932345E-1,6.280304433E0
4.368899083E0,-2.043607425E0,5.387328048E0,-3.046773577E-1,5.769962140E0
4.378924083E0,-1.992641193E0,4.686087847E0,-4.526822264E-1,5.112236246E0
4.388949083E0,-1.829548169E0,3.870809399E0,-7.428934264E-1,4.345377148E0
4.398974083E0,-1.409634032E0,2.776310617E0,-1.100435899E0,3.302412438E0
4.408999083E0,-8.150130574E-1,1.556680834E0,-1.387323250E0,2.238787016E0
4.419024083E0,-1.101877092E-1,5.447833282E-1,-1.483806255E0,1.584490835E0
4.429049083E0,4.695102207E-1,-3.170143980E-1,-1.735431386E0,1.825557469E0
4.439074083E0,1.151104143E0,-1.359490503E0,-1.933892902E0,2.629295900E0
4.449099083E0,2.225461679E0,-2.147722655E0,-1.868718521E0,3.613516459E0
4.459124083E0,3.219859639E0,-2.912040280E0,-1.886071303E0,4.733364516E0
4.469150083E0,4.053338422E0,-3.404518510E0,-2.141574892E0,5.710222558E0
4.479175083E0,4.653327067E0,-3.803579283E0,-2.361071767E0,6.457191963E0
4.489200083E0,5.014825913E0,-4.509288511E0,-2.436246348E0,7.170596773E0
4.499225083E0,5.040500452E0,-5.703929048E0,-2.079611363E0,7.890895692E0
4.509250083E0,5.162162883E0,-6.183259229E0,-1.346406189E0,8.166604555E0
4.519275083E0,5.488718768E0,-5.188120428E0,-1.019162087E0,7.621110066E0
4.529300083E0,5.263895665E0,-4.359982198E0,-1.757573769E0,7.057415100E0
4.539325083E0,4.843805380E0,-3.840749449E0,-2.487296780E0,6.663366428E0
4.549350083E0,4.711513295E0,-3.143583587E0,-2.719510764E0,6.283009955E0
4.559375083E0,4.868192655E0,-1.921209707E0,-2.326915987E0,5.727554842E0
4.569400083E0,4.504392053E0,-1.134330601E0,-1.918608280E0,5.025665270E0
4.579426083E0,3.301291764E0,-1.887230367E0,-2.346908056E0,4.468572837E0
4.589451083E0,2.643912113E0,-1.938371285E0,-1.688989437E0,3.687850297E0
4.599476083E0,1.656488420E0,-1.117626860E0,7.151495576E-2,1.999539465E0
4.609501083E0,1.536160031E-1,-9.120867044E-1,1.221473336E0,1.532154413E0
4.619526083E0,-1.152380955E0,-1.273581457E0,1.830419405E0,2.510065097E0
4.629551083E0,-2.206658349E0,-2.128695230E0,2.532984000E0,3.977020543E0
4.639576083E0,-3.229595545E0,-3.198064435E0,3.574287153E0,5.782165007E0
4.649601083E0,-4.021954662E0,-3.745666121E0,4.747757261E0,7.262735917E0
4.659626083E0,-4.614756494E0,-3.688390889E0,5.870789872E0,8.328648064E0
4.669651083E0,-4.659232755E0,-3.854056542E0,6.570032664E0,8.929027433E0
4.679676083E0,-4.364624011E0,-4.215226189E0,6.540804772E0,8.921894510E0
4.689701083E0,-3.638813517E0,-4.148956186E0,6.209982174E0,8.307748181E0
4.699726083E0,-2.621496812E0,-3.341405418E0,5.786174814E0,7.177538205E0
4.709752083E0,-2.280727954E0,-1.977158205E0,5.011911660E0,5.850652362E0
4.719777083E0,-2.385028102E0,-5.068781680E-1,3.941159005E0,4.634438351E0
4.729802083E0,-2.332082441E0,7.037299454E-1,2.758636238E0,3.680206277E0
4.739827083E0,-2.064851237E0,1.195297179E0,1.294729666E0,2.714529588E0
4.749852083E0,-1.465436788E0,1.329204850E0,-1.730384070E-1,1.986009266E0
4.759877083E0,-1.545541158E-1,9.273362428E-1,-1.214493003E0,1.535849191E0
4.769902083E0,9.932933470E-1,7.556426954E-1,-1.491270956E0,1.944612203E0
4.779927083E0,1.775411139E0,1.067423835E0,-1.440205468E0,2.523027972E0
4.789952083E0,2.185252424E0,2.434934964E0,-1.490317276E0,3.595174824E0
4.799977083E0,1.862282637E0,4.192752416E0,-2.574867021E0,5.260913382E0
4.810002083E0,1.085263106E0,5.509746525E0,-3.646060556E0,6.695435785E0
4.820027083E0,8.235211216E-2,6.647089026E0,-3.230980750E0,7.391198211E0
4.830052083E0,-6.701228542E-1,7.912620621E0,-2.259765247E0,8.256220001E0
4.840078083E0,-1.090070613E0,9.013496377E0,-1.094418749E0,9.144896023E0
4.850103083E0,-1.360546803E0,9.765632497E0,-1.101382271E-1,9.860567737E0
4.860128083E0,-1.502310500E0,1.014006831E1,4.725485071E-1,1.026163848E1
4.870153083E0,-1.574272183E0,1.010634391E1,7.866446328E-1,1.025842726E1
4.880178083E0,-1.962302184E0,9.258489450E0,9.058435591E-1,9.507408128E0
4.890203083E0,-2.262788258E0,8.298805826E0,1.018732316E0,8.661882265E0
4.900228083E0,-2.464651099E0,7.235410137E0,1.159806919E0,7.731158838E0
4.910253083E0,-2.442559733E0,5.777812126E0,1.164083573E0,6.379992287E0
4.920278083E0,-2.144737944E0,4.063714306E0,7.577968097E-1,4.657030257E0
4.930303083E0,-1.681673840E0,2.114179518E0,1.586466185E-1,2.706095099E0
4.940328083E0,-1.147620445E0,-4.677889466E-2,-6.039168048E-1,1.297665772E0
4.950353083E0,-3.713326925E-1,-2.315016757E0,-1.419495800E0,2.740831786E0
4.960378083E0,9.930438171E-1,-4.779577809E0,-2.146118764E0,5.332572156E0
4.970404083E0,3.220136212E0,-7.952705038E0,-2.664048754E0,8.983982993E0
4.980429083E0,5.727034906E0,-1.181812330E1,-2.848610269E0,1.343806339E1
4.990454083E0,7.364475144E0,-1.416001620E1,-4.493510385E0,1.658110939E1
5.000479083E0,7.242368324E0,-1.377389298E1,-6.700030886E0,1.694291712E1
5.010504083E0,6.633222354E0,-1.012327043E1,-8.129350008E0,1.457966304E1
5.020529083E0,5.598349383E0,-4.595941324E0,-8.659388412E0,1.128934011E1
5.030554083E0,4.304286885E0,-4.971624345E-1,-8.098448642E0,9.184711563E0
5.040579083E0,3.244726970E0,4.342066330E-1,-6.546279520E0,7.319191489E0
5.050604083E0,1.753386139E0,-5.447739726E-1,-5.940146620E0,6.217433836E0
5.060629083E0,-5.844303739E-1,-4.560261029E-1,-5.438842603E0,5.489128121E0
5.070654083E0,-2.907276845E0,8.291971600E-1,-4.327571374E0,5.278986701E0
5.080679083E0,-4.728384559E0,1.330656713E0,-2.799121774E0,5.653613936E0
5.090704083E0,-6.797057244E0,-8.511201257E-1,2.923256993E-1,6.856372726E0
5.100729083E0,-9.126952826E0,-3.738802074E0,5.605009947E0,1.134442794E1
5.110754333E0,-1.064209153E1,-6.497161739E0,1.257802628E1,1.771084323E1
5.120779333E0,-1.196692793E1,-8.059693882E0,1.584156901E1,2.142711689E1
5.130804333E0,-1.428322522E1,-5.056074511E0,9.442882565E0,1.785335944E1
5.140829333E0,-1.115973033E1,-1.796856971E0,6.499233992E0,1.303872381E1
5.150854333E0,-6.140362886E0,3.053591430E-1,5.788735310E0,8.444332837E0
5.160879333E0,-3.790676817E0,1.476063518E0,5.032095079E0,6.470701286E0
5.170904333E0,-2.077340451E0,1.909972528E0,5.135577933E0,5.859820740E0
5.180929333E0,-7.494607267E-1,1.556344035E0,5.527160118E0,5.790802803E0
5.190954333E0,1.326500805E0,6.957590210E-1,6.281059758E0,6.457197278E0
5.200979333E0,2.204470175E0,-5.666624397E-1,6.184716355E0,6.590258832E0
5.211004333E0,1.812476931E0,-1.628868220E0,3.471551574E0,4.241456665E0
5.221029333E0,1.285051939E0,-1.116118863E0,2.438821024E-1,1.719464534E0
5.231054333E0,9.565062475E-1,2.147097588E-1,-2.025476087E0,2.250235068E0
5.241079333E0,7.684003698E-1,7.257125527E-1,-3.529366504E0,3.684226616E0
5.251105333E0,7.794275607E-1,1.908036515E0,-3.990175045E0,4.491058622E0
5.261130333E0,1.147097850E0,3.698458625E0,-3.945188321E0,5.528014162E0
5.271155333E0,1.186224932E0,5.528942934E0,-3.493540029E0,6.646891114E0
5.281180333E0,6.163435268E-1,6.371106294E0,-2.544145750E0,6.887928016E0
5.291205333E0,-2.932624964E-1,6.528972931E0,-1.712373476E0,6.756161140E0
5.301230333E0,-1.345467126E0,7.077318383E0,-1.786753567E0,7.422345020E0
5.311255333E0,-2.012239452E0,7.666903662E0,-1.640600658E0,8.094571631E0
5.321280333E0,-2.276021091E0,7.894368537E0,-7.782182834E-1,8.252693518E0
5.331305333E0,-2.261488422E0,7.333548051E0,-1.645640373E-2,7.674342167E0
5.341330333E0,-1.492122896E0,6.075226073E0,4.809095138E-1,6.274239120E0
5.351355333E0,-1.145937324E-2,4.234320856E0,2.846259396E-1,4.243891652E0
5.361380333E0,1.038457387E0,2.634869978E0,-9.286458729E-1,2.980489340E0
5.371405333E0,1.586851882E0,1.469676604E0,-2.504525601E0,3.309183692E0
5.381430333E0,1.830053369E0,3.688803703E-1,-3.940111769E0,4.360005598E0
5.391456333E0,1.947609301E0,-3.024869907E-1,-4.823251832E0,5.210416356E0
5.401481333E0,1.983474367E0,-5.701397789E-1,-4.934200410E0,5.348416927E0
5.411506333E0,1.639538511E0,-4.713750440E-1,-4.454111261E0,4.769631861E0
5.421531333E0,1.171171933E0,-7.703367484E-1,-3.608379929E0,3.871106833E0
5.431556333E0,5.189936719E-1,-1.578125498E0,-2.863868578E0,3.310827351E0
5.441581333E0,1.690117950E-1,-2.509465329E0,-2.208152459E0,3.346926726E0
5.451606333E0,2.182807995E-1,-3.710262984E0,-1.247670105E0,3.920507443E0
5.461631333E0,9.027335713E-1,-4.676572089E0,-8.784447491E-2,4.763713998E0
5.471656333E0,2.054289704E0,-5.344210095E0,5.768595453E-1,5.754429135E0
5.481681333E0,3.307674293E0,-5.631883165E0,4.927056867E-1,6.549929473E0
5.491706333E0,4.621514706E0,-5.597354772E0,-7.937785283E-2,7.259137653E0
5.501731333E0,6.019407383E0,-4.953276951E0,-1.115011400E0,7.874736073E0
5.511756333E0,7.211546481E0,-3.850100316E0,-2.260871686E0,8.481816779E0
5.521781333E0,7.845115685E0,-3.183085037E0,-2.988834102E0,8.978362866E0
5.531807333E0,7.217888371E0,-3.561835508E0,-3.018608708E0,8.596312189E0
5.541832333E0,4.981498538E0,-3.936620981E0,-3.283299297E0,7.147892466E0
5.551857333E0,3.559929608E0,-3.007755107E0,-2.377380821E0,5.231790244E0
5.561882333E0,2.110488024E0,-1.513383957E0,-1.886879680E-1,2.603861335E0
5.571907333E0,5.483577311E-2,-4.279875344E-1,1.168533304E0,1.245652589E0
5.581932333E0,-1.573069703E0,-1.615357643E-1,1.707913220E0,2.327575919E0
5.591957333E0,-2.669363288E0,-7.711752391E-1,2.275706511E0,3.591524988E0
5.601982333E0,-3.398884717E0,-2.127578997E0,3.137866765E0,5.091681210E0
5.612007333E0,-3.768216493E0,-3.318153380E0,3.776238288E0,6.282481436E0
5.622032333E0,-3.928723732E0,-4.004585508E0,4.145040305E0,6.975165545E0
5.632057333E0,-3.594853857E0,-4.396659443E0,4.725918496E0,7.388362075E0
5.642082333E0,-2.756997556E0,-4.973924055E0,5.782388742E0,8.110300585E0
5.652107333E0,-2.056493812E0,-5.383830829E0,6.259996918E0,8.508957786E0
5.662132333E0,-2.168391100E0,-5.416765856E0,5.869819819E0,8.276355297E0
5.672158333E0,-2.672610247E0,-4.235691444E0,5.461373094E0,7.410163535E0
5.682183333E0,-3.079056639E0,-2.452020528E0,4.841301017E0,6.239486357E0
5.692208333E0,-3.068093110E0,-7.917627007E-1,3.694315288E0,4.867036979E0
5.702233333E0,-2.777002050E0,8.330966681E-1,2.350060290E0,3.732100456E0
5.712258333E0,-2.264017489E0,2.333245452E0,1.158656114E0,3.451419059E0
5.722283333E0,-1.505804211E0,3.239517685E0,2.183285640E-1,3.579048549E0
5.732308333E0,-4.434807555E-1,3.391166393E0,-3.244959104E-1,3.435401327E0
5.742333333E0,4.155227324E-1,3.243355798E0,-6.402981806E-1,3.331966046E0
5.752358333E0,6.999688701E-1,3.840610870E0,-9.640199196E-1,4.021141962E0
5.762383333E0,8.352449352E-1,4.854541453E0,-1.774973767E0,5.235908583E0
5.772408333E0,7.686045838E-1,5.959897345E0,-2.951866250E0,6.695120890E0
5.782433333E0,2.619674307E-1,6.964498696E0,-3.308987577E0,7.715067583E0
5.792458333E0,-5.781010553E-1,7.900922096E0,-2.881376896E0,8.429774826E0
5.802483333E0,-1.258565807E0,8.648271686E0,-2.009873961E0,8.967507144E0
5.812508333E0,-1.674887707E0,9.136371521E0,-1.075894697E0,9.350726325E0
5.822533333E0,-2.026880588E0,9.389258335E0,-1.951685102E-1,9.607523497E0
5.832559333E0,-2.425944285E0,9.236482285E0,5.059747732E-1,9.563149123E0
5.842584333E0,-2.811134294E0,8.354942604E0,9.566861225E-1,8.866949322E0
5.852609333E0,-3.006992045E0,7.122783408E0,1.202815383E0,7.824500590E0
5.862634333E0,-2.901274971E0,6.072354505E0,1.251298302E0,6.845190511E0
5.872659333E0,-2.478824750E0,5.028746379E0,7.976923621E-1,5.662965247E0
5.882684333E0,-1.679861057E0,4.016234331E0,1.263665164E-1,4.355231322E0
5.892709333E0,-8.838440681E-1,2.735028690E0,-3.984001116E-1,2.901772720E0
5.902734333E0,-2.293425804E-1,1.022673925E0,-9.295272676E-1,1.400885761E0
5.912759333E0,5.365130264E-1,-1.055941658E0,-1.494295721E0,1.906771805E0
5.922784333E0,1.681727196E0,-4.068753437E0,-1.877747937E0,4.786324081E0
5.932809333E0,3.581146815E0,-8.298951421E0,-1.960972673E0,9.248925399E0
5.942834333E0,5.794804135E0,-1.230138983E1,-2.612900820E0,1.384670349E1
5.952859333E0,6.661576672E0,-1.384724513E1,-5.456718711E0,1.630639692E1
5.962884333E0,6.616070716E0,-1.093189006E1,-8.974236417E0,1.561459354E1
5.972909333E0,6.049672571E0,-5.813977740E0,-1.054325838E1,1.347446373E1
5.982935333E0,4.653510962E0,-1.789602916E0,-1.003145043E1,1.120213554E1
5.992960333E0,3.179396614E0,-9.041643119E-1,-8.064656414E0,8.715776443E0
6.002985333E0,2.651008586E0,-2.547655833E0,-5.628697017E0,6.723141147E0
6.013010333E0,2.635486860E0,-3.062707824E0,-4.015824148E0,5.696737118E0
6.023035333E0,1.333157860E-1,-8.669000065E-1,-3.088239984E0,3.210376133E0
6.033060333E0,-3.998089543E0,4.484399253E-1,-1.990253337E0,4.488532801E0
6.043085333E0,-6.489494870E0,1.276412678E0,-8.775296599E-2,6.614414076E0
6.053110333E0,-8.074526514E0,1.719940943E0,1.716826715E0,8.432299167E0
6.063135333E0,-9.655752205E0,9.260317290E-1,3.831614928E0,1.042939875E1
6.073160333E0,-1.101355813E1,-1.893158274E0,7.360753391E0,1.338144990E1
6.083185333E0,-1.099055752E1,-5.852374651E0,1.347548150E1,1.834751333E1
6.093210333E0,-1.235985497E1,-5.392135044E0,1.001212070E1,1.679534746E1
6.103235333E0,-1.237375146E1,-2.375946499E0,2.192743292E0,1.278917395E1
6.113261333E0,-8.468141191E0,-1.482823484E0,2.279987258E0,8.894184764E0
6.123286333E0,-5.586451469E0,-1.467455832E0,2.938437535E0,6.480453825E0
6.133311333E0,-4.113630525E0,-2.072215805E0,3.276267436E0,5.652429809E0
6.143336333E0,-2.866848612E0,-2.735378353E0,4.019637995E0,5.644342770E0
6.153362333E0,-1.265933445E0,-2.919598390E0,5.707261376E0,6.534483504E0
6.163387333E0,7.857842150E-1,-3.317137719E0,8.929253202E0,9.557846108E0
6.173412333E0,3.094129592E0,-3.796669629E0,1.075367278E1,1.181650610E1
6.183437333E0,3.694294238E0,-3.326475137E0,5.673835768E0,7.543583968E0
6.193462333E0,2.757671155E0,-1.923543915E0,3.063765585E-2,3.362396476E0
6.203487333E0,2.385244302E0,7.360089147E-1,-2.424295955E0,3.479699755E0
6.213512333E0,2.310084338E0,3.023418628E0,-3.030054048E0,4.864028925E0
6.223537333E0,2.514540712E0,4.708437075E0,-2.819197020E0,6.036569102E0
6.233562333E0,3.002625344E0,6.196237124E0,-2.119091763E0,7.204142097E0
6.243587333E0,3.138467858E0,7.594885261E0,-1.191368435E0,8.303711301E0
6.253612333E0,2.921962127E0,8.733058067E0,-6.795634031E-3,9.208920244E0
6.263637333E0,1.929040298E0,9.240754260E0,4.591624763E-1,9.451114535E0
6.273662333E0,-4.720781717E-1,7.911447085E0,-1.079934684E-1,7.926254813E0
6.283687333E0,-1.914402671E0,6.630419199E0,-9.525425662E-1,6.966687425E0
6.293712333E0,-2.277788266E0,5.707451996E0,-1.536415554E0,6.334342935E0
6.303737333E0,-2.354025141E0,4.616097845E0,-1.795115671E0,5.483815638E0
6.313763333E0,-2.002146573E0,3.479296212E0,-1.622543871E0,4.329750760E0
6.323788333E0,-1.130920431E0,2.647091244E0,-1.766157335E0,3.377185930E0
6.333813333E0,-3.395945907E-2,2.182332324E0,-2.483275065E0,3.306112924E0
6.343838333E0,6.955780497E-1,1.794363719E0,-3.598723252E0,4.080977705E0
6.353863333E0,1.115830156E0,1.451297636E0,-4.648292615E0,4.995794832E0
6.363888333E0,1.281097175E0,1.063616129E0,-5.041007406E0,5.308883584E0
6.373913333E0,1.534458491E0,7.536797851E-1,-4.842063494E0,5.134995128E0
6.383938333E0,1.792984945E0,2.059260714E-1,-4.251171947E0,4.618404864E0
6.393963333E0,1.832278234E0,-6.172168815E-1,-3.334640189E0,3.854610927E0
6.403988333E0,1.995424030E0,-1.435778541E0,-2.383851496E0,3.424313804E0
6.414013333E0,2.121199539E0,-2.333853562E0,-1.789717667E0,3.626216935E0
6.424038333E0,2.084678268E0,-3.567373406E0,-1.448507783E0,4.378379985E0
6.434063333E0,2.404532366E0,-5.059056006E0,-1.226980317E0,5.734222203E0
6.444088333E0,3.295317664E0,-6.108318390E0,-7.878029662E-1,6.985077349E0
6.454113333E0,4.521555970E0,-6.200198613E0,-5.273347981E-1,7.691879693E0
6.464139333E0,5.719689633E0,-5.338410242E0,-7.956135307E-1,7.864252940E0
6.474164333E0,6.403005779E0,-3.451783893E0,-1.404034592E0,7.408414688E0
6.484189333E0,6.502303196E0,-1.967877504E0,-2.211277942E0,7.144385128E0
6.494214333E0,5.593057069E0,-2.241241853E0,-2.312549963E0,6.453939862E0
6.504239333E0,3.713647937E0,-3.762946982E0,-2.131394159E0,5.700332626E0
6.514264333E0,2.899287502E0,-5.010542243E0,-1.358106467E0,5.946078940E0
6.524289333E0,1.546221335E0,-4.995228385E0,-4.005173153E-1,5.244379959E0
6.534314333E0,-8.284203574E-2,-4.376539759E0,5.373211116E-1,4.410178799E0
6.544339333E0,-1.259715662E0,-3.806491197E0,1.141534370E0,4.168855898E0
6.554364333E0,-2.229876035E0,-3.271929971E0,1.268994316E0,4.157910466E0
6.564389333E0,-3.051591975E0,-3.099499674E0,1.851350682E0,4.727220236E0
6.574414333E0,-3.892022221E0,-3.475573289E0,3.377540041E0,6.215723883E0
6.584439333E0,-4.638582144E0,-4.207693806E0,5.157171115E0,8.112801327E0
6.594464333E0,-5.084239379E0,-4.834724654E0,6.238418938E0,9.388393014E0
6.604489333E0,-5.562783110E0,-4.736188545E0,6.682627233E0,9.901189050E0
6.614514333E0,-5.252767244E0,-4.425194440E0,6.157805130E0,9.224558178E0
6.624539333E0,-4.425064048E0,-3.726303066E0,5.547083920E0,8.014778000E0
6.634565333E0,-3.841467194E0,-2.215967848E0,4.967868678E0,6.659362050E0
6.644590333E0,-3.458415220E0,-5.912792176E-1,4.146138412E0,5.431455669E0
6.654615333E0,-3.168596807E0,1.021767606E0,3.237439585E0,4.643816300E0
6.664640333E0,-2.790738037E0,2.433077304E0,2.329221398E0,4.374169210E0
6.674665333E0,-2.340618499E0,3.375377156E0,1.436638082E0,4.351504898E0
6.684690333E0,-1.817364765E0,3.973112285E0,6.291065367E-1,4.414092313E0
6.694715333E0,-1.143812738E0,4.211713182E0,-1.078378594E-1,4.365600132E0
6.704740333E0,-4.198674695E-1,3.837467991E0,-6.716311435E-1,3.918359053E0
6.714765333E0,2.153746237E-1,3.597478380E0,-8.751767403E-1,3.708661652E0
6.724790333E0,8.040433154E-1,4.003892028E0,-9.574201673E-1,4.194554851E0
6.734815333E0,1.210474505E0,4.897200984E0,-1.324797803E0,5.215641401E0
6.744840333E0,1.179072764E0,6.126840615E0,-2.428101908E0,6.695077847E0
6.754865333E0,7.657687573E-1,7.255116423E0,-3.491802821E0,8.088003650E0
6.764890333E0,2.268397163E-1,8.141173663E0,-3.093370038E0,8.712009128E0
6.774915333E0,-2.077656420E-1,8.929245601E0,-2.204021401E0,9.199581724E0
6.784940333E0,-7.020101331E-1,9.362083400E0,-1.037597700E0,9.445529779E0
6.794965333E0,-1.388063069E0,9.255621976E0,-2.310399357E-1,9.361978247E0
6.804991333E0,-2.022922461E0,8.297089083E0,7.166113615E-2,8.540435461E0
6.815016333E0,-2.351754082E0,7.082347573E0,1.445853440E-1,7.464000223E0
6.825041333E0,-2.452395189E0,6.100517035E0,1.940995661E-1,6.577858686E0
6.835066333E0,-2.354313116E0,5.009872736E0,1.260308862E-2,5.535501235E0
6.845091333E0,-2.009395074E0,3.600539982E0,-4.384897915E-1,4.146544348E0
6.855116333E0,-1.379041107E0,1.960443939E0,-9.667284230E-1,2.584503561E0
6.865141333E0,-6.074955931E-1,1.467388004E-1,-1.584372078E0,1.703178808E0
6.875166333E0,1.703899472E-1,-1.933084232E0,-2.340455654E0,3.040325649E0
6.885191333E0,9.642512501E-1,-4.292474340E0,-2.967949601E0,5.306961585E0
6.895216333E0,1.936092040E0,-7.068890791E0,-3.114248106E0,7.963429580E0
6.905241333E0,2.870192049E0,-1.039845911E1,-2.966932186E0,1.118787919E1
6.915266333E0,2.334528039E0,-1.255822176E1,-3.447302002E0,1.323037589E1
6.925291333E0,1.644760367E0,-1.051728622E1,-5.866147767E0,1.215443276E1
6.935316333E0,2.250500042E0,-7.098527403E0,-8.521718059E0,1.131695721E1
6.945341333E0,3.086132647E0,-3.581088635E0,-9.796206418E0,1.087722716E1
6.955366333E0,3.759342173E0,-1.527013232E0,-9.349198476E0,1.019175820E1
6.965391333E0,3.963457362E0,-2.048374953E0,-8.293020591E0,9.416954111E0
6.975417333E0,3.453103609E0,-1.715033959E0,-7.253549370E0,8.214575124E0
6.985442333E0,6.565404300E-1,-4.971419692E-2,-5.307021804E0,5.347709534E0
6.995467333E0,-3.141551095E0,9.381155849E-2,-2.388531899E0,3.947559819E0
7.005492333E0,-4.940678540E0,5.962382412E-1,3.005268578E-1,4.985591326E0
7.015517333E0,-6.125643105E0,5.220411676E-1,1.877750423E0,6.428217255E0
7.025542333E0,-8.003523189E0,-3.475608373E-1,4.112602876E0,9.005036613E0
7.035567333E0,-9.388595261E0,-4.083770256E0,9.036773558E0,1.365599417E1
7.045592333E0,-9.599483280E0,-7.940014826E0,1.541442406E1,1.981914185E1
7.055617333E0,-1.064152552E1,-5.454772757E0,1.023101590E1,1.573754420E1
7.065642333E0,-9.762412435E0,-1.610766994E0,3.751905684E0,1.058187427E1
7.075667333E0,-6.801601115E0,1.039634943E-2,3.112292798E0,7.479856434E0
7.085692333E0,-4.811057172E0,9.954691690E-1,3.180967176E0,5.852843937E0
7.095717333E0,-3.415476776E0,6.914309120E-1,3.363782712E0,4.843407112E0
7.105742333E0,-2.477865806E0,-2.288126582E-1,3.830321524E0,4.567662111E0
7.115770875E0,-1.815410333E0,-1.383259435E0,3.921857346E0,4.537630041E0
7.125795875E0,-8.095893263E-1,-2.344808321E0,3.963401814E0,4.675694053E0
7.135820875E0,2.585537897E-1,-2.923748744E0,4.014373747E0,4.972962232E0
7.145845875E0,1.842855555E0,-2.474485531E0,4.460711598E0,5.423757295E0
7.155870875E0,2.862107397E0,-1.215609237E0,3.605572096E0,4.761251380E0
7.165896875E0,2.856137390E0,6.184383649E-1,1.094712206E0,3.120638014E0
7.175921875E0,2.826475634E0,2.357596182E0,-2.789653963E-1,3.691211990E0
7.185946875E0,3.102299321E0,3.852790035E0,-6.110363746E-1,4.984136594E0
7.195971875E0,3.258184336E0,4.953258240E0,-9.164674383E-1,5.999203691E0
7.205996875E0,3.265269700E0,5.817653884E0,-1.228764887E0,6.783579150E0
7.216021875E0,2.833843710E0,6.778999872E0,-1.433592706E0,7.486033495E0
7.226046875E0,2.029511835E0,7.433117362E0,-1.276113739E0,7.810161220E0
7.236071875E0,2.801648064E-1,6.595365726E0,-1.170640056E0,6.704307534E0
7.246096875E0,-1.464044274E0,5.708267682E0,-1.298654902E0,6.034422103E0
7.256121875E0,-2.342914700E0,4.949139462E0,-9.491568822E-1,5.557349142E0
7.266146875E0,-2.902938796E0,4.102740963E0,-6.163164103E-1,5.063534633E0
7.276171875E0,-3.078744105E0,3.404361219E0,-7.740107001E-1,4.654829013E0
7.286196875E0,-2.523093142E0,2.866107477E0,-1.343266380E0,4.047830980E0
7.296221875E0,-1.407020473E0,2.479731653E0,-2.223964500E0,3.615908430E0
7.306246875E0,-3.863009068E-1,2.098390866E0,-3.459188222E0,4.064290316E0
7.316271875E0,7.268655505E-1,2.054097623E0,-4.344241494E0,4.860049869E0
7.326296875E0,1.533728028E0,1.797789602E0,-4.827871132E0,5.375193837E0
7.336322875E0,2.081304132E0,1.357784286E0,-4.749628370E0,5.360445384E0
7.346347875E0,2.560263600E0,7.798104072E-1,-4.148655639E0,4.937043405E0
7.356372875E0,3.032165770E0,1.186136931E-1,-3.512873847E0,4.642023388E0
7.366397875E0,3.238452615E0,-6.272056800E-1,-3.038400949E0,4.484734399E0
7.376422875E0,3.179587818E0,-1.583506106E0,-2.778793344E0,4.509873915E0
7.386447875E0,3.074263092E0,-2.838713856E0,-2.413333742E0,4.830483378E0
7.396472875E0,3.127526256E0,-4.290559376E0,-1.750034954E0,5.590433130E0
7.406497875E0,3.701226697E0,-5.241338861E0,-9.678650486E-1,6.489027267E0
7.416522875E0,4.595509507E0,-5.468268716E0,-6.118112768E-1,7.169029461E0
7.426547875E0,5.391604702E0,-5.375326054E0,-8.753371002E-1,7.663533551E0
7.436572875E0,5.763798689E0,-4.785126817E0,-1.559255363E0,7.651803138E0
7.446597875E0,5.521401195E0,-3.560057369E0,-2.213534675E0,6.932504265E0
7.456622875E0,4.486810645E0,-2.276872446E0,-2.927074056E0,5.820943259E0
7.466647875E0,3.152461415E0,-1.737151052E0,-3.412757236E0,4.960102691E0
7.476672875E0,1.628688126E0,-2.158170460E0,-2.756760451E0,3.861353769E0
7.486697875E0,-3.508132048E-1,-1.698234324E0,-1.310652804E0,2.173679023E0
7.496722875E0,-1.579599435E0,-2.163253444E-1,7.296518219E-1,1.753374692E0
7.506747875E0,-2.048531512E0,1.038588291E-1,2.339364563E0,3.111252894E0
7.516773875E0,-1.774944677E0,-1.029711633E0,3.164124856E0,3.771262489E0
7.526798875E0,-1.199556583E0,-2.434622138E0,3.767416009E0,4.643247176E0
7.536823875E0,-8.238845260E-1,-3.774121011E0,4.018831664E0,5.574386339E0
7.546848875E0,-7.538974477E-1,-4.853508834E0,4.268126534E0,6.507058742E0
7.556873875E0,-1.031240973E0,-5.692455642E0,5.415875909E0,7.924595954E0
7.566898875E0,-1.256554803E0,-6.781622348E0,7.310258006E0,1.005033351E1
7.576923875E0,-1.254280382E0,-7.414546021E0,7.882848353E0,1.089440270E1
7.586948875E0,-1.364011863E0,-7.052629684E0,7.317899147E0,1.025435331E1
7.596973875E0,-1.713949885E0,-5.635031306E0,6.339320245E0,8.653218084E0
7.606998875E0,-1.971803910E0,-3.482840794E0,4.964646277E0,6.376982305E0
7.617023875E0,-2.108122972E0,-1.438446041E0,3.569552078E0,4.388053272E0
7.627048875E0,-2.084555477E0,2.598479247E-1,2.327069623E0,3.134987322E0
7.637073875E0,-1.853512106E0,1.478514086E0,1.344523970E0,2.725666108E0
7.647098875E0,-1.474064063E0,2.161509805E0,6.176717949E-1,2.688216498E0
7.657123875E0,-1.062969280E0,2.934212337E0,1.326967120E-2,3.120846329E0
7.667148875E0,-6.924835570E-1,3.572797283E0,-4.711165971E-1,3.669654582E0
7.677173875E0,-3.689076329E-1,3.941646663E0,-7.418233860E-1,4.027775216E0
7.687198875E0,-1.731371518E-1,4.530866491E0,-7.046584833E-1,4.588602316E0
7.697223875E0,-1.464499480E-1,5.371453443E0,-5.842678213E-1,5.405120587E0
7.707249875E0,-4.474795201E-1,6.334388119E0,-8.363658464E-1,6.405015113E0
7.717274875E0,-8.117487761E-1,7.380563757E0,-1.246551533E0,7.528980554E0
7.727299875E0,-1.170126378E0,8.368214030E0,-1.760452791E0,8.631071534E0
7.737324875E0,-1.516429333E0,9.007746225E0,-1.802482578E0,9.310638722E0
7.747349875E0,-1.713617617E0,9.376376919E0,-1.199835642E0,9.606900386E0
7.757374875E0,-1.778072353E0,9.415045726E0,-3.765546946E-1,9.588869628E0
7.767399875E0,-1.819039261E0,8.773279309E0,4.877934408E-1,8.973141931E0
7.777424875E0,-1.769254898E0,7.422307615E0,1.008739206E0,7.696653039E0
7.787449875E0,-1.563308799E0,6.204334933E0,1.186688835E0,6.507375566E0
7.797474875E0,-1.450909381E0,5.330594269E0,1.149322861E0,5.642811031E0
7.807499875E0,-1.382107972E0,4.380787761E0,1.001306517E0,4.701503865E0
7.817524875E0,-1.182810816E0,3.207569668E0,7.048047367E-1,3.490600854E0
7.827549875E0,-7.650117622E-1,1.822401702E0,2.489721036E-1,1.992078831E0
7.837574875E0,-1.496089793E-1,1.283955002E-1,-2.633130578E-1,3.289407508E-1
7.847599875E0,6.233886176E-1,-2.054922080E0,-7.264592421E-1,2.266949747E0
7.857624875E0,1.402627898E0,-4.960919262E0,-9.472102710E-1,5.241687919E0
7.867649875E0,2.158052492E0,-8.464736942E0,-1.406706769E0,8.848038539E0
7.877674875E0,2.666794022E0,-1.040813742E1,-4.206952379E0,1.153861184E1
7.887700875E0,3.151570299E0,-8.754996820E0,-8.110465840E0,1.234350116E1
7.897725875E0,3.389939062E0,-6.089631858E0,-1.000240731E1,1.219112197E1
7.907750875E0,3.235267929E0,-3.912008881E0,-1.014340122E1,1.134281096E1
7.917775875E0,2.879151153E0,-3.019205709E0,-9.384968233E0,1.027047921E1
7.927800875E0,2.655325001E0,-3.941382369E0,-7.510552039E0,8.887836507E0
7.937825875E0,2.511865319E0,-5.660012366E0,-4.831537921E0,7.854232365E0
7.947850875E0,1.664094917E0,-6.808600232E0,-2.671954190E0,7.501039141E0
7.957875875E0,7.504475540E-2,-6.171339095E0,-2.040826490E0,6.500463884E0
7.967900875E0,-2.580090339E0,-3.537814561E0,-1.917655184E0,4.780209141E0
7.977925875E0,-5.230048472E0,-2.788449436E-1,-1.727572875E0,5.515040305E0
7.987950875E0,-7.004590715E0,6.118456292E-1,1.802258044E-2,7.031285158E0
7.997975875E0,-7.327172831E0,-2.686288639E0,6.726494215E0,1.030287983E1
8.008000875E0,-6.907770179E0,-5.241037729E0,1.299273304E1,1.562039939E1
8.018025875E0,-9.639762994E0,-1.762822668E0,8.427815284E0,1.292519419E1
8.028050875E0,-1.187876244E1,3.982597053E-2,3.599764642E0,1.241228781E1
8.038075875E0,-9.934605335E0,4.500970262E-1,4.615168723E0,1.096351918E1
8.048100875E0,-6.320299838E0,1.595747252E0,4.847044737E0,8.123203925E0
8.058125875E0,-4.269548576E0,9.747998464E-1,4.572844237E0,6.331680994E0
8.068150875E0,-2.998906808E0,-2.759418011E-1,4.970633826E0,5.811779981E0
8.078175875E0,-1.974782774E0,-1.511163184E0,5.465332829E0,6.004435369E0
8.088201875E0,-1.193605287E0,-2.570175215E0,5.964510798E0,6.603475091E0
8.098226875E0,3.244944486E-1,-3.506668782E0,8.764761086E0,9.445795863E0
8.108251875E0,1.963941159E0,-3.534216185E0,7.549123197E0,8.563703052E0
8.118276458E0,2.151710602E0,-2.563248603E0,2.466057939E0,4.157107609E0
8.128301458E0,2.111458662E0,-6.487924308E-1,-6.915501952E-1,2.314612489E0
8.138326458E0,2.524221362E0,1.258996747E0,-1.515372010E0,3.202049129E0
8.148351458E0,3.097273932E0,2.602805602E0,-1.489591636E0,4.311216308E0
8.158376458E0,3.408124487E0,3.810290717E0,-1.378491030E0,5.294701634E0
8.168401458E0,3.568714757E0,4.989582898E0,-1.257432616E0,6.262012400E0
8.178426458E0,3.554513917E0,6.139450720E0,-1.189343471E0,7.193188599E0
8.188451458E0,3.005958550E0,7.267169874E0,-1.115221900E0,7.943000986E0
8.198476458E0,2.056041237E0,7.870853959E0,-1.039854067E0,8.201155047E0
8.208501458E0,2.914012545E-1,7.002174060E0,-1.129309596E0,7.098640463E0
8.218526458E0,-1.058497622E0,6.115800487E0,-1.345218034E0,6.350830211E0
8.228551458E0,-1.538780753E0,5.526379514E0,-1.237904670E0,5.868656125E0
8.238576458E0,-1.022702503E0,4.986400843E0,-9.952505562E-1,5.186582444E0
8.248601458E0,-1.826798078E-1,4.553684081E0,-9.547807342E-1,4.656287885E0
8.258626458E0,3.052363515E-1,3.893636929E0,-1.346131516E0,4.131058923E0
8.268651458E0,7.816474561E-1,3.277012371E0,-2.034688521E0,3.935700726E0
8.278677458E0,1.134747142E0,2.385746432E0,-2.831944535E0,3.872899038E0
8.288702458E0,1.105800500E0,1.678193577E0,-3.518597687E0,4.052117732E0
8.298727458E0,1.315867497E0,1.113557782E0,-3.822077535E0,4.192826599E0
8.308752458E0,1.549788867E0,2.339500219E-1,-3.842368543E0,4.149743867E0
8.318777458E0,1.686291094E0,-8.637033337E-1,-3.698491954E0,4.155526902E0
8.328802458E0,1.841622085E0,-1.815206704E0,-3.484811305E0,4.339407461E0
8.338827458E0,1.930927194E0,-2.552676837E0,-3.418799749E0,4.683250003E0
8.348852458E0,1.914669011E0,-3.231419876E0,-3.531212470E0,5.155336395E0
8.358877458E0,2.092218984E0,-4.047150314E0,-3.370670148E0,5.667294168E0
8.368902458E0,3.051030642E0,-4.442730240E0,-2.375095582E0,5.889628086E0
8.378927458E0,4.212692006E0,-4.408534554E0,-1.300386263E0,6.234817983E0
8.388952458E0,5.115877494E0,-4.226724154E0,-8.830663884E-1,6.694565396E0
8.398977458E0,5.865338513E0,-3.482158424E0,-7.628290696E-1,6.863638346E0
8.409002458E0,6.128346273E0,-1.987131216E0,-5.458475945E-1,6.465544687E0
8.419027458E0,4.502754833E0,-1.051855039E0,-4.541077776E-1,4.646225778E0
8.429052458E0,2.053740212E0,-1.734351990E0,-5.517847842E-1,2.744137775E0
8.439077458E0,6.521884205E-1,-3.326241834E0,-3.755016111E-2,3.389785316E0
8.449102458E0,-2.039138252E-1,-4.254956850E0,8.383263447E-1,4.341546925E0
8.459127458E0,-4.990079619E-1,-3.575748373E0,1.194982599E0,3.803021007E0
8.469152458E0,-5.964882097E-1,-2.871162395E0,1.403973781E0,3.251232698E0
8.479178458E0,-1.101873583E0,-2.256644003E0,1.184699759E0,2.776703274E0
8.489203458E0,-1.414775196E0,-2.204944677E0,1.016599837E0,2.810132579E0
8.499228458E0,-1.703455741E0,-2.857093994E0,1.255060401E0,3.555267102E0
8.509253458E0,-1.913686971E0,-3.798866428E0,1.879938304E0,4.650564696E0
8.519278458E0,-2.516453921E0,-4.448171074E0,2.777177759E0,5.816483693E0
8.529303458E0,-3.552539604E0,-5.229321079E0,4.524907009E0,7.774388723E0
8.539328458E0,-4.807085450E0,-5.569117983E0,6.487391626E0,9.808638833E0
8.549353458E0,-5.454460516E0,-5.298741562E0,6.990457994E0,1.032929352E1
8.559378458E0,-5.123992260E0,-4.891699339E0,6.257193763E0,9.451798394E0
8.569403458E0,-4.768060256E0,-4.102760258E0,5.477512579E0,8.340874318E0
8.579428458E0,-4.455440625E0,-2.317273782E0,4.520632694E0,6.756983714E0
8.589453458E0,-3.928992119E0,-4.559617835E-1,3.390025601E0,5.209333335E0
8.599478458E0,-3.357800134E0,9.304282504E-1,2.320683294E0,4.186417253E0
8.609503458E0,-2.656669860E0,1.869154285E0,1.357221199E0,3.520466144E0
8.619528458E0,-1.709796462E0,2.488310103E0,4.569014311E-1,3.053497998E0
8.629553458E0,-6.937135188E-1,2.587627400E0,-2.618722308E-1,2.691770991E0
8.639578458E0,2.864563008E-1,2.540781262E0,-5.758560169E-1,2.620922888E0
8.649603458E0,1.101045618E0,2.840520061E0,-6.256637692E-1,3.110033894E0
8.659628458E0,1.608630276E0,3.789917849E0,-7.320643830E-1,4.181756440E0
8.669653458E0,1.831314467E0,5.259026104E0,-1.103452624E0,5.677030556E0
8.679678458E0,1.750324975E0,6.679848052E0,-1.974335754E0,7.182061625E0
8.689704458E0,1.309401792E0,7.756833254E0,-2.955404985E0,8.403416794E0
8.699729458E0,5.135723528E-1,8.438446106E0,-2.766179731E0,8.895104246E0
8.709754458E0,-2.236060781E-1,8.739916266E0,-1.805500764E0,8.927259884E0
8.719779458E0,-6.231163567E-1,8.820544108E0,-8.002698147E-1,8.878665672E0
8.729804458E0,-1.025726902E0,8.521396462E0,1.044020355E-1,8.583543157E0
8.739829458E0,-1.458387677E0,7.884790798E0,6.976862633E-1,8.048825173E0
8.749854458E0,-1.850225240E0,7.000370194E0,1.071561983E0,7.319614838E0
8.759879458E0,-2.273929396E0,6.122442924E0,1.330331608E0,6.665196504E0
8.769904458E0,-2.518372685E0,5.176554635E0,1.383810242E0,5.920629161E0
8.779929458E0,-2.588453319E0,4.042282507E0,1.177650209E0,4.942367698E0
8.789954458E0,-2.323551792E0,2.604403061E0,5.417702579E-1,3.532042362E0
8.799979458E0,-1.786129670E0,1.082139523E0,-2.999201361E-1,2.109795543E0
8.810004458E0,-1.187162679E0,-4.634497279E-1,-1.284994637E0,1.809793384E0
8.820029458E0,-5.698122982E-1,-1.997565572E0,-2.413976204E0,3.184687643E0
8.830054458E0,1.579883865E-2,-3.621946054E0,-3.456361678E0,5.006513644E0
8.840079458E0,6.605729623E-1,-5.656540874E0,-4.029018098E0,6.976087595E0
8.850104458E0,1.267885976E0,-7.951176576E0,-3.907617037E0,8.949760595E0
8.860129458E0,1.545165035E0,-9.330137138E0,-3.508162161E0,1.008693193E1
8.870154458E0,1.751019625E0,-8.355792205E0,-3.484981459E0,9.221194547E0
8.880180458E0,2.681205947E0,-5.989879528E0,-5.288723527E0,8.428411395E0
8.890205458E0,3.623770678E0,-3.600160498E0,-7.400527321E0,8.992256345E0
8.900230458E0,4.204769321E0,-1.946132879E0,-8.207943603E0,9.425383621E0
8.910255458E0,4.285597722E0,-1.663359191E0,-8.235695658E0,9.431850009E0
8.920280458E0,3.865407742E0,-2.626675690E0,-6.669039474E0,8.143518262E0
8.930305458E0,2.908791274E0,-3.271915353E0,-4.331534325E0,6.158626987E0
8.940330458E0,9.005030778E-1,-2.984914128E0,-2.464465450E0,3.974192761E0
8.950355458E0,-1.769173767E0,-2.105849574E0,-8.971852215E-1,2.893012197E0
8.960380458E0,-3.949917549E0,-8.957279491E-1,3.989062612E-1,4.069803854E0
8.970405458E0,-5.717598084E0,2.860498828E-1,1.444320592E0,5.904135361E0
8.980430458E0,-7.114473345E0,6.736904597E-1,2.667309161E0,7.627852121E0
8.990455458E0,-8.622591299E0,-1.363598757E0,5.369588181E0,1.024894919E1
9.000480458E0,-1.004504287E1,-5.228183210E0,1.057527189E1,1.549429448E1
9.010505458E0,-1.112674034E1,-6.430757834E0,1.202971065E1,1.760320810E1
9.020530458E0,-1.055246541E1,-2.540653208E0,5.502054513E0,1.216889678E1
9.030555458E0,-6.690792870E0,5.816049993E-1,2.738431184E0,7.252860053E0
9.040580458E0,-4.414918836E0,1.727696105E0,2.461925712E0,5.342052075E0
9.050605458E0,-3.192113723E0,1.560872118E0,2.410193056E0,4.293593176E0
9.060631458E0,-2.335914267E0,4.875092661E-1,2.432603095E0,3.407597184E0
9.070656458E0,-1.659881998E0,-9.102980411E-1,2.505945305E0,3.140638891E0
9.080681458E0,-6.507735405E-1,-1.948464748E0,3.249769608E0,3.844609679E0
9.090706458E0,1.247340322E0,-2.366400919E0,7.166645127E0,7.649608720E0
9.100731458E0,3.203525149E0,-1.909259167E0,8.006593562E0,8.832518578E0
9.110756458E0,3.071674822E0,-1.045294463E0,3.322576214E0,4.644064968E0
9.120781625E0,2.453303700E0,7.425753379E-1,5.158238232E-2,2.563742951E0
9.130806625E0,2.168271233E0,2.460379123E0,-1.249647633E0,3.509484973E0
9.140831625E0,2.196713551E0,3.773160313E0,-1.576153232E0,4.641825954E0
9.150856625E0,2.331942400E0,4.827330850E0,-1.504650555E0,5.568218008E0
9.160881625E0,2.402876143E0,5.573073624E0,-1.310615966E0,6.208919197E0
9.170906625E0,2.306918656E0,6.239340459E0,-1.271897458E0,6.772663154E0
9.180931625E0,1.407237112E0,6.112928334E0,-1.377943731E0,6.422377911E0
9.190956625E0,-2.983522052E-1,5.039157931E0,-1.466977676E0,5.256819399E0
9.200981625E0,-1.472592757E0,4.411112006E0,-1.152068129E0,4.791001934E0
9.211006625E0,-2.317334009E0,3.494749233E0,-4.070037778E-1,4.212951600E0
9.221031625E0,-2.792441915E0,2.682196757E0,3.641733617E-1,3.889027325E0
9.231056625E0,-2.284220349E0,2.301232531E0,5.148373979E-1,3.283046042E0
9.241081625E0,-8.417405339E-1,2.118334549E0,-5.787581362E-1,2.351771538E0
9.251107625E0,4.924261898E-1,2.055148367E0,-2.221290714E0,3.065982844E0
9.261132625E0,1.427469501E0,2.282781057E0,-3.434194883E0,4.363765923E0
9.271157625E0,2.063625661E0,2.468305024E0,-3.869501377E0,5.032307768E0
9.281182625E0,2.522168405E0,2.249580567E0,-4.241145142E0,5.423030362E0
9.291207625E0,2.619706102E0,1.831560781E0,-4.581959462E0,5.586754645E0
9.301232625E0,2.593419067E0,1.293869541E0,-4.548553149E0,5.393445707E0
9.311257625E0,1.949172554E0,3.979498029E-1,-3.827626542E0,4.313741142E0
9.321282625E0,1.595719477E0,-5.208120829E-1,-2.972192341E0,3.413428363E0
9.331307625E0,1.352356461E0,-1.437702860E0,-2.507525808E0,3.191166431E0
9.341332625E0,9.786959924E-1,-2.317433411E0,-2.469804835E0,3.525376488E0
9.351357625E0,8.268508916E-1,-3.336777931E0,-2.517095945E0,4.260697286E0
9.361382625E0,1.274868429E0,-4.284537329E0,-2.385945822E0,5.067078754E0
9.371407625E0,2.339416019E0,-4.814431307E0,-2.012288861E0,5.718472050E0
9.381432625E0,3.599777505E0,-4.825847411E0,-1.721029548E0,6.261720533E0
9.391457625E0,4.705296535E0,-4.571646143E0,-1.782977289E0,6.798438935E0
9.401482625E0,5.459299672E0,-4.011430258E0,-2.135880435E0,7.103345047E0
9.411508625E0,5.601874085E0,-3.038145425E0,-2.468626036E0,6.834137502E0
9.421533625E0,4.412543697E0,-2.707376037E0,-2.633813971E0,5.808390734E0
9.431558625E0,2.464901652E0,-3.271454008E0,-2.483246414E0,4.790058896E0
9.441583625E0,8.800712983E-1,-4.170384477E0,-1.382557184E0,4.480858907E0
9.451608625E0,-3.858970834E-1,-4.278238708E0,1.331813731E-1,4.297671495E0
9.461633625E0,-1.625984373E0,-2.676073553E0,1.097309466E0,3.318023946E0
9.471658625E0,-2.331210913E0,-1.195228182E0,1.693392245E0,3.119405716E0
9.481683625E0,-2.196031181E0,-6.136500800E-1,1.803622785E0,2.907262375E0
9.491708625E0,-1.723531718E0,-1.090660086E0,1.659567856E0,2.629499282E0
9.501733625E0,-1.584771443E0,-2.154069808E0,1.921775132E0,3.293134817E0
9.511758625E0,-1.818051666E0,-3.196492118E0,2.618483741E0,4.514347220E0
9.521783625E0,-2.050166540E0,-3.628466869E0,3.275778608E0,5.300913143E0
9.531808625E0,-2.609683097E0,-4.038298799E0,4.582991495E0,6.642447900E0
9.541833625E0,-3.345998406E0,-4.418016983E0,6.778477131E0,8.755702805E0
9.551858625E0,-3.317434757E0,-4.285737762E0,7.221016631E0,9.028621308E0
9.561883625E0,-2.893537935E0,-3.924099169E0,6.219112017E0,7.902434457E0
9.571909625E0,-3.001392167E0,-3.181287019E0,5.396995250E0,6.946689842E0
9.581934625E0,-2.809596477E0,-1.867124716E0,4.307760131E0,5.471451764E0
9.591959625E0,-2.569886363E0,-2.676592201E-1,3.233388049E0,4.138931704E0
9.601984625E0,-2.357979759E0,1.053148443E0,2.196990125E0,3.390568654E0
9.612009625E0,-2.044156625E0,2.053854378E0,1.260743310E0,3.160121486E0
9.622034625E0,-1.515086958E0,2.691904305E0,5.625781596E-1,3.139797997E0
9.632059625E0,-8.092068453E-1,3.007171555E0,9.056752324E-2,3.115461275E0
9.642084625E0,-1.070469869E-1,3.036608192E0,-2.956457484E-1,3.052843720E0
9.652109625E0,5.766061781E-1,3.109776156E0,-5.340893555E-1,3.207558864E0
9.662134625E0,1.101566020E0,3.732610458E0,-7.492247915E-1,3.963226755E0
9.672159625E0,1.204396689E0,4.964196627E0,-1.347937574E0,5.283063054E0
9.682184625E0,7.876553971E-1,6.492788022E0,-2.328547214E0,6.942537681E0
9.692209625E0,-2.057870173E-1,7.515173094E0,-3.494332327E0,8.290388009E0
9.702234625E0,-1.137377731E0,8.190145263E0,-3.341636675E0,8.918443990E0
9.712259625E0,-1.674864319E0,8.903070540E0,-2.431646490E0,9.379911523E0
9.722284625E0,-1.961839231E0,9.247038848E0,-1.400446740E0,9.556034308E0
9.732309625E0,-2.077403162E0,9.026814580E0,-4.981851125E-1,9.276161586E0
9.742335625E0,-2.104619028E0,8.025649638E0,1.769660548E-1,8.298902961E0
9.752360625E0,-1.879071309E0,6.737250168E0,5.540681950E-1,7.016298196E0
9.762385625E0,-1.561358461E0,5.634608552E0,7.772890878E-1,5.898375379E0
9.772410625E0,-1.239984086E0,4.439827098E0,9.377963269E-1,4.704156369E0
9.782435625E0,-9.784727018E-1,3.112407403E0,1.010752110E0,3.415568547E0
9.792460625E0,-8.068817731E-1,1.590553170E0,9.818458144E-1,2.035912273E0
9.802485625E0,-6.127663099E-1,-1.572941941E-1,7.731001425E-1,9.989533744E-1
9.812510625E0,-3.369116323E-1,-2.256688442E0,2.626335382E-1,2.296764800E0
9.822535625E0,2.038573631E-1,-4.755931669E0,-3.800760341E-1,4.775447796E0
9.832560625E0,1.074705300E0,-7.672485999E0,-9.686438978E-1,7.807707979E0
9.842585625E0,2.104237643E0,-1.032636060E1,-1.815801365E0,1.069386150E1
9.852610625E0,2.933453660E0,-1.071199850E1,-4.109702657E0,1.184236962E1
9.862635625E0,3.171553159E0,-7.993737289E0,-7.405523182E0,1.134902458E1
9.872660625E0,3.338180386E0,-4.729108737E0,-9.358244703E0,1.100384758E1
9.882685625E0,3.380781738E0,-2.114707521E0,-1.021487641E1,1.096564513E1
9.892711625E0,3.040946826E0,-8.073858762E-1,-1.008285681E1,1.056234969E1
9.902736625E0,2.144982942E0,-1.104015126E0,-8.698553063E0,9.026883549E0
9.912761625E0,1.348655612E0,-2.340659137E0,-5.655362660E0,6.267430412E0
9.922786625E0,5.670882266E-1,-3.206627682E0,-2.771957657E0,4.276423669E0
9.932811625E0,-5.556810398E-1,-2.334944068E0,-1.725753952E0,2.956175218E0
9.942836625E0,-2.521512347E0,-4.587702012E-1,-1.603814070E0,3.023361405E0
9.952861625E0,-4.435807137E0,7.903149301E-1,-1.156719589E0,4.651772012E0
9.962886625E0,-5.824201596E0,1.537230656E0,-4.456516805E-1,6.040116534E0
9.972911625E0,-7.016802040E0,1.034126281E0,1.235155456E0,7.199342819E0
9.982936625E0,-8.044271851E0,-2.708234993E0,7.066790471E0,1.104465364E1
9.992961625E0,-9.695169455E0,-7.619544724E0,1.450363953E1,1.903705156E1
1.000298663E1,-1.260497025E1,-5.946467460E0,9.940211645E0,1.711880714E1
1.001301163E1,-9.177454058E0,-1.632885842E0,4.733750256E0,1.045468176E1
1.002303663E1,-5.423644520E0,-1.629162920E-1,3.705755950E0,6.570775355E0
1.003306162E1,-3.969166876E0,-3.023495811E-1,2.960423065E0,4.960827117E0
1.004308662E1,-3.019837793E0,-1.346214400E0,3.657190146E0,4.930187955E0
1.005311262E1,-2.096778935E0,-2.053271411E0,5.276247908E0,6.037482702E0
1.006313762E1,-1.015358619E0,-2.460415961E0,6.942125494E0,7.434897861E0
1.007316262E1,4.135961114E-1,-3.422924375E0,1.095860365E1,1.148818815E1
1.008318763E1,2.407856655E0,-3.491112265E0,1.122925957E1,1.200341239E1
1.009321263E1,2.184320670E0,-2.614275500E0,3.761290466E0,5.074741289E0
1.010323763E1,1.383293349E0,-1.160068290E0,-7.837917763E-1,1.968143408E0
1.011325933E1,1.250296674E0,8.516434515E-1,-2.164617015E0,2.640853113E0
1.012328433E1,1.465327738E0,2.177420663E0,-2.386347526E0,3.547252548E0
1.013330933E1,1.810931512E0,2.861186460E0,-2.281367785E0,4.082952348E0
1.014333433E1,2.239183048E0,3.785975071E0,-1.995255337E0,4.829968098E0
1.015335933E1,2.710001145E0,5.080029384E0,-1.578506736E0,5.970133019E0
1.016338433E1,2.802588589E0,6.367100952E0,-1.220296877E0,7.062832420E0
1.017340933E1,1.684054387E0,6.915180355E0,-1.069480886E0,7.197190278E0
1.018343433E1,-3.275597783E-1,6.467997581E0,-1.345980511E0,6.614676988E0
1.019345933E1,-1.634600538E0,6.636335996E0,-1.602410154E0,7.020013723E0
1.020348433E1,-2.286465242E0,6.620109973E0,-1.503525551E0,7.163404808E0
1.021351033E1,-2.475372553E0,6.265648836E0,-1.035673527E0,6.816043154E0
1.022353533E1,-1.877466248E0,5.775656843E0,-2.845958264E-1,6.079809722E0
1.023356033E1,-8.758393760E-1,4.785359536E0,1.449184891E-1,4.867007486E0
1.024358533E1,-1.927819692E-2,3.766655286E0,-2.479875787E-1,3.774859141E0
1.025361033E1,5.453208335E-1,3.009604581E0,-1.096644857E0,3.249265223E0
1.026363533E1,9.059220580E-1,2.207379457E0,-2.140858024E0,3.205696792E0
1.027366033E1,1.232465883E0,1.333261648E0,-3.207204802E0,3.685474381E0
1.028368533E1,1.480748599E0,4.384739310E-1,-3.866120517E0,4.163143483E0
1.029371033E1,1.708891751E0,-2.029159248E-1,-4.020426784E0,4.373250212E0
1.030373533E1,1.951082254E0,-8.248199344E-1,-3.974510939E0,4.503752556E0
1.031376033E1,2.267685008E0,-1.603541005E0,-3.670618277E0,4.602953138E0
1.032378533E1,2.614552658E0,-2.360989906E0,-3.130719713E0,4.712914688E0
1.033381033E1,2.780886940E0,-3.067867992E0,-2.675618055E0,4.929916649E0
1.034383533E1,2.913274627E0,-3.902231167E0,-2.336140555E0,5.401123015E0
1.035386133E1,3.076861594E0,-4.718649822E0,-2.046835966E0,5.993519073E0
1.036388633E1,3.330472879E0,-5.256851524E0,-1.691516458E0,6.448857687E0
1.037391133E1,3.743857577E0,-5.349829270E0,-1.257275911E0,6.649653035E0
1.038393633E1,4.335445235E0,-4.968716524E0,-1.061687717E0,6.679177351E0
1.039396133E1,4.727572088E0,-4.283455009E0,-1.612484906E0,6.580124029E0
1.040398633E1,4.805613998E0,-3.655599119E0,-2.607886832E0,6.577112174E0
1.041401133E1,4.758762891E0,-2.882538738E0,-3.215590294E0,6.426108835E0
1.042403633E1,3.763516501E0,-2.823591202E0,-3.307931278E0,5.751446172E0
1.043406133E1,2.544587799E0,-3.290260992E0,-2.453209852E0,4.828973291E0
1.044408633E1,1.701938243E0,-3.615758530E0,-9.041824383E-1,4.097297819E0
1.045411133E1,1.109531024E0,-2.769202741E0,2.317099535E-1,2.992195251E0
1.046413633E1,4.249504906E-1,-1.687324589E0,1.049328457E0,2.031929477E0
1.047416133E1,-7.560346051E-1,-7.160956371E-1,1.340832623E0,1.697708281E0
1.048418633E1,-1.332050982E0,-2.533113223E-1,1.408291950E0,1.954945692E0
1.049421233E1,-1.689908181E0,-6.732314533E-1,1.568737793E0,2.402075876E0
1.050423733E1,-1.913918960E0,-1.624530755E0,2.156085343E0,3.309212892E0
1.051426233E1,-2.150560747E0,-2.388353705E0,2.972337937E0,4.377663505E0
1.052428733E1,-2.613436425E0,-2.919897768E0,3.630081285E0,5.341661077E0
1.053431233E1,-3.285176838E0,-3.532937399E0,4.713101984E0,6.744432061E0
1.054433733E1,-3.982741187E0,-3.844260702E0,6.398770056E0,8.460781639E0
1.055436233E1,-4.436125810E0,-3.747537230E0,7.298065977E0,9.326575711E0
1.056438733E1,-3.654546620E0,-3.924489178E0,5.946254037E0,8.007200721E0
1.057441233E1,-3.323190756E0,-3.632254695E0,4.893851699E0,6.941660855E0
1.058443733E1,-3.373220411E0,-2.236992096E0,4.133444692E0,5.785163317E0
1.059446233E1,-3.204191732E0,-2.373642111E-1,3.281855035E0,4.592794236E0
1.060448733E1,-2.900054365E0,1.677697148E0,2.325705467E0,4.078466496E0
1.061451233E1,-2.423817068E0,3.196200342E0,1.464860837E0,4.270410177E0
1.062453733E1,-1.866990815E0,4.060727549E0,7.413211101E-1,4.530421605E0
1.063456233E1,-1.305456968E0,4.449857996E0,1.886475492E-1,4.641232808E0
1.064458733E1,-9.169380661E-1,4.844987687E0,-2.403404438E-1,4.936845616E0
1.065461333E1,-4.385186256E-1,4.971886300E0,-4.601021969E-1,5.012349349E0
1.066463833E1,1.444331885E-1,4.868246741E0,-4.525066638E-1,4.891364795E0
1.067466333E1,6.622129601E-1,5.119111589E0,-4.398673224E-1,5.180474179E0
1.068468833E1,8.553300478E-1,5.921502188E0,-7.684796727E-1,6.032108973E0
1.069471333E1,8.318251180E-1,6.913118042E0,-1.294892803E0,7.082364116E0
1.070473833E1,6.094207523E-1,7.601977349E0,-1.958031378E0,7.873711967E0
1.071476333E1,1.041246490E-1,7.847471529E0,-2.246272212E0,8.163295302E0
1.072478833E1,-3.806147819E-1,7.849354917E0,-1.753225633E0,8.051772497E0
1.073481333E1,-7.313299727E-1,7.604036738E0,-1.066785904E0,7.713251611E0
1.074483833E1,-9.488859368E-1,6.652106522E0,-4.835716780E-1,6.736820264E0
1.075486333E1,-1.102389600E0,5.390710663E0,-1.111145660E-1,5.503396290E0
1.076488833E1,-1.269871691E0,4.352053959E0,4.214095630E-2,4.533731755E0
1.077491333E1,-1.375108562E0,2.985579541E0,5.382946730E-2,3.287477204E0
1.078493833E1,-1.408278501E0,1.653323615E0,-5.876378641E-3,2.171810729E0
1.079496433E1,-1.216675623E0,3.151696014E-1,-4.407619464E-1,1.331879327E0
1.080498933E1,-8.659173819E-1,-1.039509813E0,-1.221909100E0,1.823034671E0
1.081501433E1,-3.989987934E-1,-2.452277806E0,-2.210600688E0,3.325600980E0
1.082503933E1,2.250857526E-1,-4.179646466E0,-3.116188213E0,5.218307882E0
1.083506433E1,1.095051929E0,-6.383674884E0,-3.749792501E0,7.484075598E0
1.084508933E1,2.061845622E0,-8.404864377E0,-4.262727799E0,9.646958114E0
1.085511433E1,2.742090957E0,-8.594401288E0,-4.821417561E0,1.022882513E1
1.086513933E1,2.939572187E0,-6.782160877E0,-6.007798905E0,9.525357657E0
1.087516433E1,3.010671405E0,-4.812574816E0,-7.893462803E0,9.722745173E0
1.088518933E1,2.858816876E0,-3.401932871E0,-8.987419549E0,1.002595089E1
1.089521433E1,2.489933290E0,-2.762379625E0,-8.753970634E0,9.511178205E0
1.090523933E1,2.214758351E0,-2.867666345E0,-7.585707471E0,8.406641580E0
1.091526433E1,2.053778657E0,-3.511529573E0,-5.097507881E0,6.521766119E0
1.092528933E1,1.389689764E0,-3.909467681E0,-2.318879428E0,4.753143906E0
1.093531433E1,7.913476215E-1,-3.183572695E0,-1.760328684E0,3.722918645E0
1.094534033E1,-1.416711209E0,-1.082941176E0,-2.175651003E0,2.813056972E0
1.095536533E1,-3.881228845E0,6.256444734E-1,-1.601981553E0,4.245198847E0
1.096539033E1,-5.144766832E0,1.902642458E0,4.638830066E-2,5.485510546E0
1.097541533E1,-6.045856678E0,2.478335338E0,1.640584724E0,6.736916747E0
1.098544033E1,-6.905351771E0,1.264152821E0,3.798435488E0,7.981859281E0
1.099546533E1,-7.453642259E0,-1.908238243E0,7.950516425E0,1.106385410E1
1.100549033E1,-8.306551632E0,-4.940299641E0,1.253958318E1,1.583181944E1
1.101551533E1,-9.219033024E0,-4.140584727E0,9.290390689E0,1.372757702E1
1.102554033E1,-8.273521881E0,-1.204303645E0,4.616349860E0,9.550507715E0
1.103556533E1,-6.129811585E0,3.388976026E-1,3.507972711E0,7.070736468E0
1.104559033E1,-4.189982882E0,6.090360421E-1,3.491691724E0,5.488059087E0
1.105561533E1,-2.959221463E0,-2.398165333E-1,3.861190145E0,4.870656318E0
1.106564033E1,-1.967720214E0,-1.473909404E0,4.693626662E0,5.298534044E0
1.107566533E1,-4.094191164E-1,-2.860814577E0,8.149619966E0,8.646860103E0
1.108569033E1,2.130019040E0,-3.514719813E0,1.122848306E1,1.195696736E1
1.109571633E1,3.197605428E0,-3.405805482E0,7.407662678E0,8.757719898E0
1.110574133E1,2.389902194E0,-2.309039733E0,1.566727520E0,3.673953199E0
1.111577008E1,2.028120198E0,9.884542644E-2,-1.160204530E0,2.338614228E0
1.112579508E1,2.080173427E0,2.065027238E0,-1.793208894E0,3.436139857E0
1.113582008E1,2.369299968E0,3.319543263E0,-1.870816648E0,4.486970554E0
1.114584508E1,2.763772140E0,4.242216352E0,-1.662901939E0,5.329172438E0
1.115587008E1,3.291301796E0,5.151679410E0,-1.460622191E0,6.285370749E0
1.116589508E1,3.363619867E0,6.306205709E0,-1.524708844E0,7.308002881E0
1.117592008E1,2.439225943E0,7.372348419E0,-1.572716238E0,7.923053754E0
1.118594508E1,4.868181983E-1,7.070898140E0,-1.826348573E0,7.319162628E0
1.119597008E1,-1.065641312E0,6.092784677E0,-1.803046834E0,6.442716384E0
1.120599508E1,-1.908923829E0,5.248854287E0,-1.105319640E0,5.693522023E0
1.121602008E1,-2.581781353E0,4.124827065E0,-3.151824653E-1,4.876385266E0
1.122604508E1,-2.989917298E0,3.122127814E0,2.992419322E-1,4.333224351E0
1.123607108E1,-2.232895829E0,2.718246596E0,3.802339089E-1,3.538257504E0
1.124609608E1,-1.898226202E-1,2.710738771E0,-5.520438889E-1,2.772884737E0
1.125612108E1,9.890596705E-1,2.552744080E0,-2.202539863E0,3.513676596E0
1.126614608E1,1.489584619E0,2.278710226E0,-3.553427796E0,4.476408352E0
1.127617108E1,1.679903010E0,1.981510872E0,-4.284930847E0,5.010897307E0
1.128619608E1,1.654953526E0,1.427673715E0,-4.285441309E0,4.810626843E0
1.129622108E1,1.744106900E0,6.314104128E-1,-4.089913926E0,4.490877855E0
1.130624608E1,1.773897733E0,-3.424076861E-1,-3.850703748E0,4.253454543E0
1.131627108E1,1.903532989E0,-1.181600077E0,-3.398585925E0,4.070626840E0
1.132629608E1,1.979337462E0,-2.022263626E0,-2.921483533E0,4.067234072E0
1.133632108E1,1.945170135E0,-2.862288076E0,-2.721863683E0,4.402831111E0
1.134634608E1,2.020114190E0,-3.907700068E0,-2.635103282E0,5.127840722E0
1.135637108E1,2.457217241E0,-4.880611264E0,-2.580545837E0,6.042971098E0
1.136639608E1,3.461536756E0,-5.181923549E0,-2.208790390E0,6.611605203E0
1.137642108E1,4.600103664E0,-4.815263951E0,-1.605866443E0,6.850293984E0
1.138644708E1,5.557206620E0,-4.201421497E0,-1.378043865E0,7.101654238E0
1.139647208E1,5.971943194E0,-3.256074661E0,-1.695985339E0,7.010170753E0
1.140649708E1,5.423006589E0,-2.161297551E0,-2.365405723E0,6.298837337E0
1.141652208E1,3.820151170E0,-1.554595132E0,-2.918704351E0,5.052638526E0
1.142654708E1,2.158881043E0,-1.963977411E0,-2.451937498E0,3.811820054E0
1.143657208E1,7.992782731E-1,-2.811751176E0,-1.431529369E0,3.254852803E0
1.144659708E1,7.649656422E-2,-2.704944765E0,-1.481649363E-1,2.710079474E0
1.145662208E1,-4.363174778E-1,-1.332266452E0,8.371832871E-1,1.632844970E0
1.146664708E1,-1.277097680E0,-4.036701339E-1,1.378809119E0,1.922249372E0
1.147667208E1,-1.581173944E0,-5.697597098E-1,1.875897294E0,2.518675807E0
1.148669708E1,-1.304155670E0,-1.598995380E0,2.607617860E0,3.325248734E0
1.149672208E1,-1.122574700E0,-2.823888241E0,3.302779881E0,4.488081293E0
1.150674708E1,-1.250512729E0,-3.616906339E0,3.916875519E0,5.476103302E0
1.151677208E1,-1.707344871E0,-4.222137013E0,5.085252702E0,6.826511738E0
1.152679808E1,-2.340929570E0,-4.835254996E0,6.696051271E0,8.584680819E0
1.153682308E1,-2.727137287E0,-5.131673747E0,7.410279892E0,9.417197105E0
1.154684808E1,-2.807440901E0,-5.014813049E0,6.901198493E0,8.980902792E0
1.155687308E1,-2.995677683E0,-4.497247340E0,5.796399255E0,7.924491324E0
1.156689808E1,-3.296046227E0,-3.582773218E0,4.841025614E0,6.865545401E0
1.157692308E1,-3.367128197E0,-2.152161276E0,3.943165770E0,5.614081113E0
1.158694808E1,-3.215782375E0,-5.502311790E-1,3.213006409E0,4.579019635E0
1.159697308E1,-2.886508997E0,9.165726882E-1,2.455639955E0,3.899000804E0
1.160699808E1,-2.170023497E0,1.795911477E0,1.690474484E0,3.285118566E0
1.161702308E1,-1.236864304E0,2.342214496E0,1.019470235E0,2.838154614E0
1.162704808E1,-3.886104108E-1,2.524652887E0,4.032555664E-1,2.586021134E0
1.163707308E1,4.408266313E-1,2.379061895E0,3.000556271E-2,2.419744605E0
1.164709808E1,1.199326057E0,2.495367692E0,3.533117931E-2,2.768842936E0
1.165712308E1,1.717352819E0,3.269971154E0,-8.616683565E-2,3.694514416E0
1.166714808E1,1.947030280E0,4.587102088E0,-8.365389971E-1,5.052942704E0
1.167717408E1,1.903853124E0,6.116976947E0,-2.597531121E0,6.912975597E0
1.168719908E1,1.430396910E0,7.310322910E0,-4.090798609E0,8.498322754E0
1.169722408E1,6.991110836E-1,8.189225496E0,-3.834933808E0,9.069668563E0
1.170724908E1,-1.422971366E-1,8.672277430E0,-2.603893769E0,9.055876934E0
1.171727408E1,-8.741430257E-1,8.907818479E0,-1.040843124E0,9.010921734E0
1.172729908E1,-1.386068437E0,9.028347135E0,1.229390247E-1,9.134952201E0
1.173732408E1,-1.834669453E0,8.659454486E0,8.534993577E-1,8.892728780E0
1.174734908E1,-2.241080469E0,7.586468779E0,1.217473329E0,8.003698614E0
1.175737408E1,-2.411115162E0,6.447996011E0,1.435680746E0,7.032162405E0
1.176739908E1,-2.352060330E0,5.102059354E0,1.412129623E0,5.792866952E0
1.177742408E1,-2.210771135E0,3.557577565E0,1.119582899E0,4.335589119E0
1.178744908E1,-1.993764736E0,2.005886160E0,6.098412768E-1,2.893196069E0
1.179747408E1,-1.657925958E0,4.267333066E-1,-2.223813057E-2,1.712108154E0
1.180749908E1,-1.163734348E0,-9.625622088E-1,-7.767394495E-1,1.698272007E0
1.181752408E1,-4.288699523E-1,-2.572215893E0,-1.649717052E0,3.085739845E0
1.182755008E1,7.026107883E-1,-4.956368959E0,-2.541461878E0,5.614114681E0
1.183757508E1,1.689488936E0,-7.928943123E0,-3.375138005E0,8.781461636E0
1.184760008E1,2.311514714E0,-9.959527338E0,-4.516548414E0,1.117741001E1
1.185762508E1,2.780628201E0,-9.262761426E0,-6.044727581E0,1.140479609E1
1.186765008E1,3.466937537E0,-7.072292701E0,-7.970734928E0,1.120578401E1
1.187767508E1,4.070825982E0,-4.609915584E0,-9.698699419E0,1.148423773E1
1.188770008E1,4.201678483E0,-2.871651222E0,-1.010732624E1,1.131629473E1
1.189772508E1,3.991192460E0,-2.834129639E0,-8.802897795E0,1.007238391E1
1.190775008E1,3.929206419E0,-4.232529854E0,-6.184988251E0,8.462094996E0
1.191777508E1,3.708881872E0,-4.550278078E0,-4.028158557E0,7.119473062E0
1.192780008E1,2.090710256E0,-2.053360873E0,-3.203274888E0,4.341466372E0
1.193782508E1,-1.429088742E0,8.585180229E-1,-2.303921373E0,2.843835706E0
1.194785008E1,-4.488086215E0,1.892686404E0,-9.329560018E-1,4.959393773E0
1.195787508E1,-6.237776914E0,2.508199407E0,8.067891678E-1,6.771398220E0
1.196790008E1,-7.756653160E0,2.288360471E0,2.568300598E0,8.485188851E0
1.197792508E1,-9.683962097E0,-9.720949244E-1,6.624117655E0,1.177297860E1
1.198795108E1,-1.442114701E1,-8.347132478E0,1.512865542E1,2.250600623E1
1.199797608E1,-1.608861270E1,-7.906989167E0,1.297285016E1,2.212823485E1
1.200800108E1,-1.152707581E1,-5.671003962E-1,3.174572661E0,1.196966963E1
1.201802608E1,-6.613134829E0,1.066345609E0,2.389714937E0,7.112058964E0
1.202805108E1,-4.061559315E0,1.253793309E0,3.197952168E0,5.319319487E0
1.203807608E1,-3.183435286E0,5.569437826E-1,2.895583291E0,4.339222187E0
1.204810108E1,-2.623598886E0,-1.180772111E0,3.101050941E0,4.230131301E0
1.205812608E1,-1.936215562E0,-2.623399495E0,3.953334078E0,5.124451770E0
1.206815108E1,-7.065477917E-1,-3.658491737E0,5.041359408E0,6.268897531E0
1.207817608E1,1.561552734E0,-4.546401958E0,8.496769159E0,9.762341105E0
1.208820108E1,3.911105779E0,-3.978887579E0,8.828336107E0,1.044355367E1
1.209822608E1,4.035254446E0,-2.056958665E0,3.340735912E0,5.628043517E0
1.210825108E1,3.131842378E0,-1.060667378E-1,-6.689214706E-1,3.204238251E0
1.211827208E1,2.696566582E0,1.914182523E0,-1.657729492E0,3.699139512E0
1.212829708E1,2.496714891E0,3.340817773E0,-1.841815043E0,4.559268723E0
1.213832308E1,2.522644368E0,4.364518468E0,-1.634353493E0,5.299421422E0
1.214834808E1,2.681440712E0,5.305474046E0,-1.503600980E0,6.131801942E0
1.215837308E1,2.571800156E0,6.298639412E0,-1.586273593E0,6.985934325E0
1.216839808E1,1.658223289E0,7.046103607E0,-1.848109571E0,7.470795774E0
1.217842308E1,-1.249204999E-1,6.478975144E0,-2.030458499E0,6.790838370E0
1.218844808E1,-1.447373862E0,5.920532135E0,-1.954195604E0,6.400505630E0
1.219847308E1,-2.250412479E0,5.467329068E0,-1.466641315E0,6.091558110E0
1.220849808E1,-2.921748412E0,4.787063414E0,-6.509490301E-1,5.645912199E0
1.221852308E1,-3.141738206E0,4.052361352E0,2.212046997E-1,5.132356477E0
1.222854808E1,-1.783471964E0,3.878914225E0,3.218171547E-1,4.281391607E0
1.223857308E1,1.275254345E-1,3.528007611E0,-8.795557201E-1,3.638230161E0
1.224859808E1,8.634489799E-1,2.822653894E0,-2.553815290E0,3.903189937E0
1.225862308E1,1.618411059E0,2.386715900E0,-3.684286729E0,4.678636109E0
1.226864808E1,2.273173205E0,2.058674238E0,-4.303866470E0,5.284763252E0
1.227867308E1,2.615470379E0,1.414194714E0,-4.736567445E0,5.592468431E0
1.228869808E1,2.773472671E0,5.547493225E-1,-4.881428120E0,5.641652059E0
1.229872408E1,2.907246732E0,-2.094583744E-1,-4.489958201E0,5.353100132E0
1.230874908E1,2.843386951E0,-8.923073280E-1,-3.562167045E0,4.644361719E0
1.231877408E1,2.595003077E0,-1.606095654E0,-2.627869692E0,4.027317139E0
1.232879908E1,2.102630097E0,-2.588257729E0,-2.225966002E0,4.009371028E0
1.233882408E1,1.642797749E0,-3.699702913E0,-2.016294789E0,4.522392150E0
1.234884908E1,1.655959247E0,-4.690575585E0,-1.612672163E0,5.229188451E0
1.235887408E1,2.087069048E0,-5.335836298E0,-1.076218779E0,5.829687219E0
1.236889908E1,2.844390626E0,-5.581745045E0,-9.686667019E-1,6.339144340E0
1.237892408E1,3.809760667E0,-5.245275791E0,-1.377604008E0,6.627592872E0
1.238894908E1,4.628841852E0,-4.537239372E0,-1.973036064E0,6.775366360E0
1.239897408E1,5.069383358E0,-3.507404947E0,-2.791237389E0,6.766944898E0
1.240899908E1,4.889174511E0,-2.498421693E0,-3.356780087E0,6.435379624E0
1.241902408E1,3.244194581E0,-2.502065093E0,-3.280492634E0,5.248500750E0
1.242904908E1,1.474913371E0,-3.034228376E0,-2.415757851E0,4.149433369E0
1.243907408E1,1.647920056E-1,-2.965219536E0,-8.421522510E-1,3.086892243E0
1.244909908E1,-1.176967620E0,-1.797743994E0,6.620498228E-1,2.248431946E0
1.245912408E1,-2.287517302E0,-1.105328411E0,1.742602412E0,3.080770921E0
1.246915008E1,-2.932954016E0,-1.063355343E0,2.562348132E0,4.037148968E0
1.247917508E1,-3.008572840E0,-1.140922167E0,3.196944693E0,4.535820686E0
1.248920008E1,-2.800391497E0,-1.732620045E0,3.553420780E0,4.844684097E0
1.249922508E1,-2.782503988E0,-2.518667092E0,3.693852189E0,5.265981044E0
1.250925008E1,-2.760931270E0,-3.111565989E0,4.060602418E0,5.813181261E0
1.251927508E1,-2.350801717E0,-3.613691540E0,4.438180522E0,6.187283863E0
1.252930008E1,-1.655819352E0,-3.710837765E0,4.847862178E0,6.325647978E0
1.253932508E1,-1.464547134E0,-3.811094710E0,5.672811336E0,6.989286777E0
1.254935008E1,-1.572611866E0,-3.631676406E0,6.361859508E0,7.492358640E0
1.255937508E1,-1.350069177E0,-3.017213563E0,5.442621658E0,6.367762164E0
1.256940008E1,-1.634878573E0,-2.058319897E0,4.452133148E0,5.170202927E0
1.257942508E1,-2.025510293E0,-7.475331920E-1,3.841363991E0,4.406537771E0
1.258945008E1,-2.111858465E0,5.341589373E-1,2.992868096E0,3.701693043E0
1.259947508E1,-1.889310953E0,1.423214044E0,2.062046328E0,3.138004007E0
1.260950008E1,-1.230088112E0,2.050344880E0,1.358720425E0,2.750118558E0
1.261952508E1,-2.942607257E-1,2.154004319E0,8.368470722E-1,2.329514328E0
1.262955008E1,6.754343918E-1,1.799515116E0,6.268560165E-1,2.021735575E0
1.263957608E1,1.463328867E0,1.885170978E0,6.210544091E-1,2.465950033E0
1.264960108E1,1.944281065E0,2.767817536E0,1.464189577E-1,3.385628640E0
1.265962608E1,1.946769787E0,4.299936556E0,-1.221168770E0,4.875512297E0
1.266965108E1,1.381152098E0,5.741576346E0,-2.836370877E0,6.551204455E0
1.267967608E1,4.676431682E-1,6.694262023E0,-4.380997092E0,8.014048270E0
1.268970108E1,-3.475635416E-1,7.459481873E0,-3.979215024E0,8.461608738E0
1.269972608E1,-9.044306526E-1,8.360054240E0,-2.692921135E0,8.829514480E0
1.270975108E1,-1.276048543E0,9.121887968E0,-1.593030781E0,9.347453506E0
1.271977608E1,-1.613007209E0,9.444039145E0,-7.644756456E-1,9.611248131E0
1.272980108E1,-2.030280598E0,8.996305563E0,-3.459458363E-1,9.229042833E0
1.273982608E1,-2.360250818E0,7.974693493E0,-1.120642269E-1,8.317396144E0
1.274985108E1,-2.536275690E0,6.927529090E0,1.911443102E-1,7.379694426E0
1.275987608E1,-2.706780791E0,5.633780587E0,4.140588089E-1,6.263991590E0
1.276990108E1,-2.779121666E0,4.002537228E0,4.136671185E-1,4.890290582E0
1.277992608E1,-2.589274268E0,2.169254442E0,1.192809335E-1,3.379975445E0
1.278995108E1,-1.917206703E0,5.174177742E-1,-3.341273709E-1,2.013713931E0
1.279997608E1,-9.332930937E-1,-8.332177055E-1,-7.774854811E-1,1.473014398E0
1.281000108E1,2.041252934E-1,-2.544962021E0,-1.215741311E0,2.827812893E0
1.282002708E1,1.461019217E0,-5.441842225E0,-1.808408146E0,5.917648517E0
1.283005208E1,2.512904954E0,-9.125147790E0,-3.229984385E0,1.000079060E1
1.284007708E1,2.868739309E0,-1.214777763E1,-5.843475773E0,1.378203090E1
1.285010208E1,2.718706479E0,-1.140737044E1,-8.249364109E0,1.433776389E1
1.286012708E1,3.323699172E0,-7.628092183E0,-9.635006869E0,1.273059794E1
1.287015208E1,3.799157619E0,-3.673234321E0,-1.023557322E1,1.151925380E1
1.288017708E1,4.006436444E0,-1.067964118E0,-9.725457448E0,1.057244546E1
1.289020208E1,3.953098142E0,-1.771177754E0,-7.380811679E0,8.558062667E0
1.290022708E1,3.582268018E0,-3.762828868E0,-4.880597230E0,7.128236428E0
1.291025208E1,2.398752101E0,-3.903990594E0,-3.275432453E0,5.632371788E0
1.292027708E1,-3.567548164E-1,-2.113684843E0,-2.316787148E0,3.156333364E0
1.293030208E1,-3.408157524E0,-1.367488325E-1,-7.265121594E-1,3.487414210E0
1.294032708E1,-5.480074829E0,1.908721808E0,8.271518040E-1,5.861622572E0
1.295035208E1,-7.014108227E0,2.368878969E0,2.464349967E0,7.802712513E0
1.296037708E1,-8.149405373E0,-2.141191900E-1,6.560499948E0,1.046416812E1
1.297040208E1,-9.519092250E0,-6.857640245E0,1.559745243E1,1.951719420E1
1.298042708E1,-1.366937868E1,-7.250828075E0,1.390590674E1,2.080386174E1
1.299045208E1,-1.272615613E1,-1.135245690E0,4.376189511E0,1.350536439E1
1.300047708E1,-7.501874186E0,7.000690037E-1,2.856481791E0,8.057772716E0
1.301050208E1,-4.409551677E0,8.663877904E-1,3.225559212E0,5.531636830E0
1.302052708E1,-3.252523062E0,2.412742442E-1,2.888892907E0,4.356928019E0
1.303055308E1,-2.526688010E0,-1.162352797E0,3.392065694E0,4.386493588E0
1.304057808E1,-1.912657569E0,-1.973427681E0,4.370935203E0,5.163114403E0
1.305060308E1,-1.131503618E0,-2.587703998E0,5.152046615E0,5.875380562E0
1.306062808E1,3.440431889E-1,-3.456586795E0,7.532692521E0,8.295047595E0
1.307065308E1,3.110340412E0,-3.634967803E0,9.885701562E0,1.098245436E1
1.308067808E1,4.049621640E0,-2.788346525E0,5.844105518E0,7.637269216E0
1.309070308E1,2.994751776E0,-1.450429325E0,1.591722467E-1,3.331308936E0
1.310072808E1,2.540164381E0,1.206509215E0,-2.037186890E0,3.472496219E0
1.311075308E1,2.577717246E0,3.222453756E0,-2.129537814E0,4.643680190E0
1.312077846E1,2.788749106E0,4.378998513E0,-2.167050626E0,5.625731772E0
1.313080346E1,3.447415438E0,5.399549314E0,-2.123530385E0,6.749013801E0
1.314082846E1,3.878192094E0,6.488054700E0,-1.970198849E0,7.811332231E0
1.315085346E1,3.115260260E0,7.568654652E0,-1.823813805E0,8.385444324E0
1.316087846E1,1.255146063E0,7.405120309E0,-1.766131607E0,7.715595848E0
1.317090346E1,-5.001576707E-1,6.456520082E0,-1.847756399E0,6.734316073E0
1.318092846E1,-1.617470096E0,5.916756588E0,-1.589821098E0,6.336540788E0
1.319095346E1,-2.297143573E0,5.207146683E0,-1.098936235E0,5.796456333E0
1.320097846E1,-2.820798572E0,4.099379983E0,-2.141010636E-1,4.980728872E0
1.321100346E1,-3.146378556E0,3.137250468E0,6.844089177E-1,4.495603862E0
1.322102846E1,-1.934119043E0,3.119956743E0,6.449577536E-1,3.727052060E0
1.323105446E1,2.484862000E-2,3.052637165E0,-6.040444203E-1,3.111925573E0
1.324107946E1,8.280312252E-1,2.484857322E0,-2.354193687E0,3.521701227E0
1.325110446E1,1.137844631E0,1.995008000E0,-3.657949700E0,4.319183179E0
1.326112946E1,1.628289053E0,1.691206555E0,-3.938218148E0,4.584873721E0
1.327115446E1,2.014919962E0,1.226307303E0,-3.847559701E0,4.513030878E0
1.328117946E1,2.238438551E0,4.329009497E-1,-3.713343297E0,4.357399319E0
1.329120446E1,2.176078873E0,-4.947399330E-1,-3.372747663E0,4.044195058E0
1.330122946E1,1.916561463E0,-1.409791760E0,-3.098615575E0,3.906678785E0
1.331125446E1,1.601789472E0,-2.442098388E0,-2.815409778E0,4.056612659E0
1.332127946E1,1.579016467E0,-3.655394467E0,-2.425199496E0,4.662273513E0
1.333130446E1,1.999823913E0,-4.693590410E0,-1.981991075E0,5.473333101E0
1.334132946E1,2.864436927E0,-5.331027548E0,-1.386498938E0,6.208641794E0
1.335135446E1,3.865674375E0,-5.568405207E0,-9.935841729E-1,6.851115561E0
1.336137946E1,4.794576794E0,-5.322025759E0,-1.157991943E0,7.256229748E0
1.337140446E1,5.419585383E0,-4.339949053E0,-1.704893864E0,7.149386449E0
1.338142946E1,5.294787675E0,-2.876906700E0,-2.320470455E0,6.457240263E0
1.339145446E1,3.880637107E0,-2.627717664E0,-3.043161167E0,5.587940083E0
1.340147946E1,1.935537432E0,-3.619929934E0,-2.816511394E0,4.978246108E0
1.341150446E1,1.029471751E0,-4.351990809E0,-1.497624541E0,4.716197128E0
1.342152946E1,5.588307521E-1,-3.721520628E0,-2.207628695E-1,3.769714026E0
1.343155446E1,-1.308197558E-1,-2.193975885E0,8.849853715E-1,2.369354997E0
1.344157946E1,-1.028214819E0,-1.702154297E0,1.515598882E0,2.500318967E0
1.345160446E1,-1.311521992E0,-1.481725377E0,1.837548330E0,2.700404394E0
1.346162946E1,-1.513526044E0,-1.780573061E0,2.025040469E0,3.092246822E0
1.347165546E1,-2.025796222E0,-2.480647911E0,2.332453154E0,3.962045193E0
1.348168046E1,-2.474970265E0,-2.863599606E0,2.944954256E0,4.795668472E0
1.349170546E1,-2.813864067E0,-2.859419432E0,3.797878248E0,5.524308976E0
1.350173046E1,-3.031165019E0,-3.046057293E0,4.445368504E0,6.182857555E0
1.351175546E1,-3.194248249E0,-3.522476145E0,5.526413428E0,7.290562766E0
1.352178046E1,-3.035162761E0,-3.751513921E0,6.515733081E0,8.108072968E0
1.353180546E1,-2.328781688E0,-3.724137257E0,5.886045257E0,7.344246131E0
1.354183046E1,-2.319638104E0,-3.452432349E0,4.949334759E0,6.464976768E0
1.355185546E1,-2.548272715E0,-2.325179803E0,4.218513494E0,5.449404650E0
1.356188046E1,-2.608093239E0,-8.532952899E-1,3.442687964E0,4.402540586E0
1.357190546E1,-2.539151058E0,6.908947223E-1,2.647718065E0,3.732965921E0
1.358193046E1,-2.188628899E0,1.868228086E0,1.899786093E0,3.448124104E0
1.359195546E1,-1.642133944E0,2.672443017E0,1.205174296E0,3.360208424E0
1.360198046E1,-9.503540996E-1,2.969328960E0,6.432042468E-1,3.183362858E0
1.361200546E1,-1.559594575E-1,2.679948503E0,3.769664848E-1,2.710821104E0
1.362203046E1,6.606936342E-1,2.536042094E0,2.879379304E-1,2.636462370E0
1.363205546E1,1.329809890E0,3.083546716E0,9.476231575E-2,3.359409857E0
1.364208046E1,1.788812372E0,4.257712643E0,-3.014403391E-1,4.628048501E0
1.365210546E1,1.682923536E0,5.814901015E0,-1.280143787E0,6.187412509E0
1.366213046E1,1.025992877E0,6.963659620E0,-3.078495891E0,7.682600708E0
1.367215546E1,1.415700445E-1,7.526659364E0,-3.995970805E0,8.522817957E0
1.368218046E1,-5.923209722E-1,7.995393221E0,-3.161131082E0,8.617998991E0
1.369220546E1,-1.117900290E0,8.369183498E0,-1.957675721E0,8.667492585E0
1.370223046E1,-1.400395723E0,8.336040310E0,-9.045385337E-1,8.501109704E0
1.371225546E1,-1.602764934E0,7.575585941E0,-9.738537669E-2,7.743890605E0
1.372228046E1,-1.744527461E0,6.558400213E0,4.124965060E-1,6.798981011E0
1.373230546E1,-1.776411597E0,5.852519662E0,8.365845323E-1,6.173127103E0
1.374233046E1,-1.883817493E0,5.144500199E0,1.097946740E0,5.587498339E0
1.375235646E1,-1.955904599E0,4.256211078E0,1.144105976E0,4.821812317E0
1.376238146E1,-1.832034259E0,3.180398827E0,9.760406256E-1,3.797886455E0
1.377240646E1,-1.455986226E0,2.054140307E0,5.515527228E-1,2.577517934E0
1.378243146E1,-8.886639279E-1,8.933779532E-1,-1.436343674E-1,1.268258087E0
1.379245646E1,-2.896890436E-1,-6.487789822E-1,-9.267719134E-1,1.167792828E0
1.380248146E1,4.201418866E-1,-2.799099555E0,-1.579231206E0,3.241210997E0
1.381250646E1,1.314860606E0,-5.710013661E0,-2.050990412E0,6.208033190E0
1.382253146E1,2.380799834E0,-9.119154394E0,-2.518104883E0,9.755410648E0
1.383255646E1,3.406696890E0,-1.122667510E1,-3.765747213E0,1.232171537E1
1.384258146E1,4.069448086E0,-9.791019353E0,-6.285614154E0,1.232612725E1
1.385260646E1,4.447148104E0,-6.755814493E0,-8.782282852E0,1.193929009E1
1.386263146E1,4.675360253E0,-3.738938314E0,-1.019024209E1,1.181861613E1
1.387265646E1,4.452400073E0,-1.584392543E0,-9.904419669E0,1.097413756E1
1.388268146E1,3.618009124E0,-2.129363567E0,-7.380901726E0,8.491283149E0
1.389270646E1,2.405930436E0,-3.881902152E0,-4.326066594E0,6.290669102E0
1.390273146E1,9.962076724E-1,-3.887598510E0,-2.630994444E0,4.798748135E0
1.391275646E1,-1.067881161E0,-2.168693694E0,-1.606091561E0,2.902263360E0
1.392278146E1,-3.290366242E0,2.663775104E-1,-2.984386709E-1,3.314593885E0
1.393280646E1,-5.667206195E0,2.247544566E0,9.007843289E-1,6.162799286E0
1.394283146E1,-7.354866999E0,1.880378600E0,3.416697675E0,8.324885300E0
1.395285646E1,-8.049537268E0,-2.268288733E0,9.529215535E0,1.267856982E1
1.396288146E1,-1.234683439E1,-7.356091990E0,1.581452563E1,2.136950233E1
1.397290646E1,-1.711215026E1,-4.628271164E0,8.501935759E0,1.966035330E1
1.398293146E1,-1.186985011E1,-6.697108448E-2,2.489432184E0,1.212827685E1
1.399295646E1,-6.659011499E0,9.472103441E-1,3.234753374E0,7.463462398E0
1.400298146E1,-4.389961165E0,7.453170973E-1,3.396164593E0,5.600106298E0
1.401300646E1,-3.497956139E0,-7.015150201E-1,3.110460280E0,4.733157891E0
1.402303146E1,-2.830004721E0,-2.385818353E0,3.636830142E0,5.189180033E0
1.403305646E1,-2.264095549E0,-3.698103114E0,4.007827789E0,5.904640453E0
1.404308146E1,-1.148130907E0,-4.684233111E0,4.685154632E0,6.723906479E0
1.405310646E1,1.098213080E0,-5.008665871E0,7.768333558E0,9.308050926E0
1.406313146E1,3.712148419E0,-3.767847533E0,8.063457735E0,9.643447078E0
1.407315646E1,3.830969396E0,-2.145389616E0,3.022099496E0,5.330300975E0
1.408318146E1,2.961290792E0,-3.268681258E-1,-8.876342332E-1,3.108694334E0
1.409320746E1,2.758281312E0,1.983770236E0,-1.648735304E0,3.776478287E0
1.410323246E1,2.738496965E0,3.722104765E0,-1.681422409E0,4.917378451E0
1.411325746E1,2.800202340E0,5.018820730E0,-1.576370164E0,5.959415874E0
1.412328221E1,3.054249242E0,6.094422482E0,-1.436670826E0,6.966666841E0
1.413330721E1,3.035139372E0,6.975285054E0,-1.400804590E0,7.734916037E0
1.414333221E1,1.852056587E0,7.416274458E0,-1.490710208E0,7.788032958E0
1.415335721E1,1.080158340E-1,6.977824500E0,-1.668914630E0,7.175442719E0
1.416338221E1,-1.032254076E0,6.737762384E0,-1.666896756E0,7.017231307E0
1.417340721E1,-1.731524569E0,6.352023906E0,-1.348005987E0,6.720379839E0
1.418343221E1,-2.283697024E0,5.566028899E0,-7.747693764E-1,6.065988575E0
1.419345721E1,-2.843207442E0,4.418715141E0,1.771659565E-1,5.257400482E0
1.420348221E1,-2.945219428E0,3.433825339E0,8.179547185E-1,4.597230020E0
1.421350721E1,-1.580367613E0,3.151704785E0,4.247065886E-1,3.551222399E0
1.422353221E1,3.368168709E-1,3.024534277E0,-9.702774636E-1,3.194165236E0
1.423355721E1,1.328676846E0,2.708320947E0,-2.651442742E0,4.016283497E0
1.424358221E1,2.158389438E0,2.289457993E0,-3.990773215E0,5.081981279E0
1.425360721E1,2.800281277E0,1.946825774E0,-4.582690364E0,5.712508800E0
1.426363221E1,3.060551956E0,1.383321415E0,-4.527265191E0,5.637081383E0
1.427365721E1,2.862285152E0,5.007719207E-1,-4.301736329E0,5.191183319E0
1.428368221E1,2.286774413E0,-5.110039634E-1,-3.972724614E0,4.612266593E0
1.429370721E1,1.852601987E0,-1.366853317E0,-3.407297106E0,4.112188673E0
1.430373221E1,1.710620188E0,-2.344606592E0,-2.777390597E0,4.017125842E0
1.431375721E1,1.822089753E0,-3.587655058E0,-2.221538344E0,4.596358613E0
1.432378221E1,2.389688917E0,-4.697853615E0,-1.647118696E0,5.522086716E0
1.433380721E1,3.281038179E0,-5.385106106E0,-1.153646293E0,6.410575565E0
1.434383221E1,4.165480417E0,-5.720156826E0,-9.325477199E-1,7.137301063E0
1.435385721E1,4.850644576E0,-5.636631104E0,-9.063137484E-1,7.491446297E0
1.436388221E1,5.204001465E0,-5.113656136E0,-1.089635069E0,7.376883822E0
1.437390721E1,5.253977618E0,-4.055442250E0,-1.697749590E0,6.850784358E0
1.438393221E1,4.786386307E0,-2.741209781E0,-2.556127279E0,6.079269003E0
1.439395721E1,3.346486064E0,-2.630730734E0,-3.358196867E0,5.421918421E0
1.440398221E1,1.919064948E0,-3.235603559E0,-3.081904233E0,4.863134212E0
1.441400721E1,1.669908365E0,-3.792105877E0,-1.654804130E0,4.461730341E0
1.442403221E1,1.414466609E0,-2.961846278E0,-5.315417236E-1,3.325024175E0
1.443405721E1,7.298989398E-1,-1.535949531E0,4.569973254E-1,1.760891814E0
1.444408221E1,-4.322163139E-1,-1.008442971E0,1.142441858E0,1.583963878E0
1.445410721E1,-1.301784624E0,-8.279745072E-1,1.552424646E0,2.188654215E0
1.446413221E1,-1.721839826E0,-9.025452179E-1,1.887565413E0,2.709653750E0
1.447415721E1,-2.399750952E0,-1.762648421E0,2.156285318E0,3.676316153E0
1.448418221E1,-2.945963486E0,-2.630096312E0,2.598982692E0,4.727665227E0
1.449420721E1,-3.303333027E0,-3.089153611E0,3.349077550E0,5.627717082E0
1.450423221E1,-3.621876765E0,-3.265740693E0,4.445120582E0,6.598647631E0
1.451425721E1,-3.738664080E0,-3.257235918E0,5.354587734E0,7.297863025E0
1.452428221E1,-3.905319082E0,-3.267656826E0,6.419726477E0,8.194021376E0
1.453430821E1,-3.681087424E0,-3.339519691E0,6.820354890E0,8.439196479E0
1.454433321E1,-3.091649787E0,-3.387382075E0,5.746079287E0,7.351876148E0
1.455435821E1,-3.117383968E0,-2.679811093E0,5.069813713E0,6.527057636E0
1.456438321E1,-3.111563065E0,-1.483354411E0,4.431593633E0,5.614373264E0
1.457440821E1,-2.836950628E0,-4.082467496E-2,3.479519575E0,4.489656111E0
1.458443321E1,-2.298173268E0,1.256519866E0,2.314119210E0,3.495080866E0
1.459445821E1,-1.595120869E0,2.228920015E0,1.440143487E0,3.096208695E0
1.460448321E1,-9.631866914E-1,2.799352155E0,9.116575187E-1,3.097615296E0
1.461450821E1,-3.686191459E-1,2.924903569E0,5.587651902E-1,3.000526537E0
1.462453321E1,2.268320783E-1,2.740526826E0,3.614204925E-1,2.773547341E0
1.463455821E1,8.922250284E-1,2.715977876E0,3.721279138E-1,2.882894467E0
1.464458321E1,1.181481890E0,3.344098645E0,3.397932133E-2,3.546836591E0
1.465460821E1,1.032230395E0,4.574988411E0,-7.866610050E-1,4.755507763E0
1.466463321E1,6.269323227E-1,5.914552188E0,-1.751057485E0,6.200094680E0
1.467465821E1,-5.829317691E-2,7.161952736E0,-2.654076912E0,7.638133892E0
1.468468321E1,-8.102480152E-1,8.040027941E0,-3.541881884E0,8.822895127E0
1.469470821E1,-1.335545863E0,8.664229322E0,-3.132820033E0,9.309517380E0
1.470473321E1,-1.560901647E0,9.132328756E0,-2.204106625E0,9.523335995E0
1.471475821E1,-1.667073781E0,9.118115929E0,-1.249031922E0,9.353034471E0
1.472478321E1,-1.737846579E0,8.353263869E0,-5.162926237E-1,8.547729878E0
1.473480821E1,-1.591444870E0,7.157127029E0,-1.618332414E-1,7.333713526E0
1.474483321E1,-1.351565772E0,6.222428557E0,4.473193064E-3,6.367524417E0
1.475485821E1,-1.145341200E0,5.259793258E0,5.788151465E-2,5.383361576E0
1.476488321E1,-8.560463317E-1,4.031542341E0,-7.077235937E-2,4.122033199E0
1.477490821E1,-5.330780064E-1,2.213928924E0,-3.504552090E-1,2.304012216E0
1.478493321E1,-1.701635503E-1,-1.041564524E-2,-7.441867574E-1,7.634645044E-1
1.479495821E1,4.280503554E-1,-2.250867539E0,-1.220413382E0,2.595966219E0
1.480498321E1,1.032787634E0,-4.371316441E0,-1.864180058E0,4.863149701E0
1.481500821E1,1.812096131E0,-6.451332432E0,-2.489757289E0,7.148585447E0
1.482503321E1,2.692057502E0,-8.426503168E0,-3.200020913E0,9.407085791E0
1.483505821E1,3.247872772E0,-9.699104047E0,-4.239341276E0,1.107218638E1
1.484508321E1,2.973545679E0,-8.762906349E0,-5.483930483E0,1.075657916E1
1.485510821E1,2.827391308E0,-6.222198177E0,-7.511555421E0,1.015545945E1
1.486513321E1,3.099785603E0,-3.895774087E0,-8.948602223E0,1.024027384E1
1.487515821E1,2.910450422E0,-2.154282061E0,-9.297898514E0,9.978104511E0
1.488518321E1,2.495704199E0,-1.445255123E0,-8.421662843E0,8.901781106E0
1.489520821E1,2.344388345E0,-2.786775379E0,-5.669569055E0,6.738418731E0
1.490523321E1,2.414995082E0,-4.685660416E0,-3.493734741E0,6.324064928E0
1.491525821E1,1.161832687E0,-4.364982153E0,-3.408282655E0,5.658561216E0
1.492528321E1,-1.436308299E0,-2.289552718E0,-3.662312307E0,4.551655151E0
1.493530821E1,-3.415259260E0,-3.285199642E-1,-2.266775766E0,4.112200573E0
1.494533321E1,-5.030818632E0,6.123327023E-1,5.875296906E-2,5.068287616E0
1.495535821E1,-6.762786128E0,1.275055540E-1,3.679576796E0,7.700053200E0
1.496538321E1,-8.575935196E0,-2.311193263E0,9.966381444E0,1.334979542E1
1.497540821E1,-1.171880601E1,-5.016584170E0,1.550718312E1,2.007409423E1
1.498543321E1,-1.404705384E1,-3.117689193E0,1.036947095E1,1.773599829E1
1.499545821E1,-1.011654847E1,4.475359458E-1,5.487834084E0,1.151786283E1
1.500548321E1,-6.268275990E0,1.895430502E0,4.961298162E0,8.215742214E0
1.501550821E1,-4.528352773E0,1.443507391E0,4.264395425E0,6.385511786E0
1.502553321E1,-3.250882918E0,1.550763452E-1,4.175586745E0,5.294130059E0
1.503555821E1,-2.018073512E0,-6.246580482E-1,5.095896388E0,5.516428045E0
1.504558321E1,-4.465259854E-1,-1.827847214E0,8.318945975E0,8.529083951E0
1.505560821E1,1.623969423E0,-3.315889338E0,1.090783111E1,1.151577954E1
1.506563321E1,2.312258041E0,-4.391467116E0,6.560273661E0,8.226099391E0
1.507565821E1,2.191827326E0,-3.798960568E0,9.327221131E-1,4.483991409E0
1.508568321E1,1.962208921E0,-1.643595602E0,-1.540916156E0,2.987656766E0
1.509570821E1,2.004696106E0,5.086434424E-1,-2.330468025E0,3.115863579E0
1.510573321E1,2.203395165E0,1.921070543E0,-2.321145809E0,3.732717529E0
1.511575821E1,2.698000612E0,3.251799177E0,-2.269585646E0,4.796292755E0
1.512578333E1,3.457980187E0,4.510179042E0,-2.142282405E0,6.073608143E0
1.513580833E1,3.707715352E0,5.569589269E0,-1.824339470E0,6.935105785E0
1.514583333E1,3.131984758E0,6.598406278E0,-1.769205489E0,7.515210043E0
1.515585833E1,1.089838040E0,6.494304789E0,-2.000021403E0,6.882138277E0
1.516588333E1,-5.155884728E-1,5.987640629E0,-2.408146530E0,6.474321701E0
1.517590833E1,-1.169417110E0,5.742687902E0,-2.355716887E0,6.316280770E0
1.518593333E1,-1.307898911E0,5.219322340E0,-1.638130794E0,5.624535336E0
1.519595833E1,-1.038487061E0,4.748461266E0,-3.409287791E-1,4.872635037E0
1.520598333E1,-6.333053492E-1,4.420882704E0,7.094853598E-1,4.522018246E0
1.521600833E1,-2.984853756E-1,4.303550720E0,6.427027018E-1,4.361503076E0
1.522603333E1,1.734722704E-2,4.207493831E0,-4.495239991E-1,4.231474576E0
1.523605833E1,5.016712224E-1,3.722887123E0,-1.807041067E0,4.168568095E0
1.524608333E1,9.370377237E-1,3.155225394E0,-2.865723900E0,4.364156327E0
1.525610833E1,1.171170106E0,2.433287804E0,-3.565646138E0,4.472847117E0
1.526613333E1,1.229559524E0,1.452289324E0,-3.857635038E0,4.301431040E0
1.527615833E1,1.011223249E0,1.194609547E-1,-3.678298595E0,3.816637779E0
1.528618333E1,7.558771688E-1,-1.483191274E0,-3.180871866E0,3.590146582E0
1.529620833E1,8.508868217E-1,-2.673121294E0,-2.800622170E0,3.963971540E0
1.530623333E1,1.147759974E0,-3.458975968E0,-2.886223068E0,4.648887104E0
1.531625833E1,1.305675215E0,-4.202909029E0,-3.278263090E0,5.487826616E0
1.532628333E1,1.871631165E0,-5.190176309E0,-3.522780785E0,6.546061243E0
1.533630833E1,3.034009397E0,-5.989778371E0,-3.322293794E0,7.491347944E0
1.534633333E1,4.472947481E0,-5.974508952E0,-2.784406087E0,7.965860509E0
1.535635833E1,5.571733443E0,-5.138399799E0,-2.309534554E0,7.923466155E0
1.536638333E1,6.301847779E0,-4.557195334E0,-2.074196257E0,8.048826303E0
1.537640833E1,6.559944463E0,-3.435445018E0,-2.210351597E0,7.727923913E0
1.538643333E1,5.874584715E0,-2.175940148E0,-2.663827145E0,6.807454455E0
1.539645833E1,4.111716731E0,-1.184071110E0,-3.207032894E0,5.347270224E0
1.540648333E1,1.908988149E0,-1.797943384E0,-2.736806828E0,3.790375678E0
1.541650833E1,2.618634599E-1,-2.744096552E0,-1.300105011E0,3.047771546E0
1.542653333E1,-3.863778707E-1,-2.503722779E0,1.656655797E-1,2.538771493E0
1.543655833E1,-5.206803013E-1,-1.014155701E0,1.247665427E0,1.690055851E0
1.544658333E1,-1.244397711E0,-1.958361161E-1,1.661313835E0,2.084907937E0
1.545660833E1,-1.921743557E0,-4.118708539E-1,1.806239998E0,2.669314300E0
1.546663333E1,-2.067693861E0,-1.514774424E0,2.057392529E0,3.286755768E0
1.547665833E1,-2.020706805E0,-2.968288155E0,2.432817103E0,4.337348224E0
1.548668333E1,-2.224642777E0,-3.986253902E0,2.853779792E0,5.383615398E0
1.549670833E1,-2.801195489E0,-4.430974998E0,3.497324347E0,6.301707165E0
1.550673333E1,-3.473130907E0,-4.140347915E0,4.234337229E0,6.865473831E0
1.551675833E1,-4.223269619E0,-3.933288068E0,5.401201737E0,7.904412787E0
1.552678333E1,-4.903119535E0,-3.962157526E0,6.641148840E0,9.156644110E0
1.553680833E1,-4.813571767E0,-3.651427131E0,6.248201914E0,8.691571803E0
1.554683333E1,-4.135550859E0,-2.762743907E0,5.006175542E0,7.056722211E0
1.555685833E1,-3.525903783E0,-1.034855429E0,3.832456343E0,5.309486309E0
1.556688333E1,-2.815295758E0,8.748802865E-1,2.747791407E0,4.030094706E0
1.557690833E1,-2.066465361E0,2.401673078E0,1.929669458E0,3.709708463E0
1.558693333E1,-1.455578821E0,3.190477672E0,1.348752092E0,3.757258267E0
1.559695833E1,-9.184232589E-1,3.278998670E0,8.256759667E-1,3.503865631E0
1.560698333E1,-3.024538260E-1,3.162028629E0,4.238710946E-1,3.204616993E0
1.561700833E1,3.461207046E-1,2.944216923E0,2.033720076E-1,2.971459743E0
1.562703333E1,9.150415217E-1,2.794922304E0,2.491919589E-1,2.951438345E0
1.563705833E1,1.478085193E0,3.169881440E0,4.058119690E-1,3.521017968E0
1.564708333E1,1.957564331E0,4.195988265E0,-6.604196191E-2,4.630630321E0
1.565710833E1,2.014279107E0,5.620911450E0,-1.270596453E0,6.104619660E0
1.566713333E1,1.707907080E0,6.819384252E0,-2.285373713E0,7.392149970E0
1.567715833E1,1.097477866E0,7.674572285E0,-3.580872288E0,8.539681714E0
1.568718333E1,2.518062673E-1,8.266165498E0,-3.429121839E0,8.952752372E0
1.569720833E1,-4.816146149E-1,8.784012458E0,-2.220326947E0,9.073074410E0
1.570723333E1,-9.675219633E-1,8.985278884E0,-1.098030062E0,9.103680870E0
1.571725833E1,-1.331066311E0,8.185120751E0,-3.874410407E-1,8.301689574E0
1.572728333E1,-1.555883566E0,6.842822816E0,-1.196162713E-1,7.018497404E0
1.573730833E1,-1.673755540E0,5.687307168E0,2.259130239E-2,5.928526866E0
1.574733333E1,-1.843113856E0,4.139270273E0,1.767262459E-2,4.531107966E0
1.575735833E1,-1.917539848E0,2.170077145E0,-5.175019741E-2,2.896354945E0
1.576738333E1,-1.752197839E0,2.197225767E-1,-1.530180522E-1,1.772537673E0
1.577740833E1,-1.069681957E0,-1.242411119E0,-3.381456506E-1,1.673961577E0
1.578743333E1,8.512687180E-3,-2.343826573E0,-6.901725912E-1,2.443344773E0
1.579745833E1,1.147896652E0,-3.884763780E0,-1.187015110E0,4.221144539E0
1.580748333E1,2.300252245E0,-6.436712639E0,-1.834251670E0,7.077210550E0
1.581750833E1,3.453803228E0,-9.370462461E0,-2.936877497E0,1.040959043E1
1.582753333E1,4.346206451E0,-1.075126139E1,-4.955088419E0,1.261079035E1
1.583755833E1,3.868448294E0,-8.665343217E0,-8.506583126E0,1.274421523E1
1.584758333E1,3.178404049E0,-4.511254930E0,-1.063559411E1,1.198205055E1
1.585760833E1,2.482429850E0,-1.262388132E0,-9.608586810E0,1.000405029E1
1.586763333E1,1.234828450E0,-1.976899173E0,-7.020444270E0,7.397267698E0
1.587765833E1,-1.062981048E-1,-4.541200860E0,-4.883367349E0,6.669413857E0
1.588768333E1,-1.021926650E0,-5.036155971E0,-3.515448961E0,6.226201285E0
1.589770833E1,-2.206676330E0,-3.177896218E0,-2.571937566E0,4.645783856E0
1.590773333E1,-4.292290737E0,-3.227616262E-1,-1.565966359E0,4.580413243E0
1.591775833E1,-6.324373008E0,-9.856873620E-1,1.304911423E0,6.532386037E0
1.592778333E1,-6.349468088E0,-6.671298838E0,1.057458309E1,1.402297332E1
1.593780833E1,-1.006251669E1,-9.440278215E0,1.538372734E1,2.066475651E1
1.594783333E1,-1.824555349E1,-5.386451551E0,5.098643410E0,1.969543721E1
1.595785833E1,-1.239849220E1,-3.055275428E-1,2.812032427E0,1.271705478E1
1.596788333E1,-6.225315328E0,1.370742300E0,4.757450191E0,7.954044110E0
1.597790833E1,-3.780406183E0,6.718082410E-1,4.216891476E0,5.703066801E0
1.598793333E1,-2.577740927E0,-6.657411700E-1,4.335037977E0,5.087289441E0
1.599795833E1,-1.915765657E0,-1.707264764E0,4.916519015E0,5.545905719E0
1.600798333E1,-1.205514604E0,-1.876098438E0,5.195005524E0,5.653414296E0
1.601800833E1,-1.440048616E-2,-1.726288680E0,6.214106800E0,6.449449845E0
1.602803333E1,1.966759663E0,-1.417829343E0,9.193636227E0,9.507961437E0
1.603805833E1,3.996887063E0,-7.584850270E-1,8.986630175E0,9.864579446E0
1.604808333E1,3.376533151E0,-3.030079776E-1,3.647912954E0,4.979965750E0
1.605810833E1,2.326110972E0,1.028626975E0,-2.316684383E-1,2.553925600E0
1.606813333E1,2.041834257E0,2.706991290E0,-1.394399550E0,3.666229546E0
1.607815833E1,2.121689097E0,3.846923524E0,-1.711146730E0,4.714701300E0
1.608818333E1,2.265049522E0,4.812861330E0,-1.615626615E0,5.559166563E0
1.609820833E1,2.471415450E0,5.804328665E0,-1.347332972E0,6.450847364E0
1.610823333E1,2.755254208E0,6.881112723E0,-1.147302648E0,7.500496078E0
1.611825796E1,2.778348079E0,7.676645123E0,-1.053277082E0,8.231615334E0
1.612828296E1,1.773324267E0,7.329819281E0,-9.994371627E-1,7.607220537E0
1.613830796E1,6.747745335E-2,6.195018564E0,-1.227662103E0,6.315850098E0
1.614833296E1,-8.320630266E-1,5.644312592E0,-1.193537606E0,5.828818536E0
1.615835796E1,-1.372088475E0,4.929127951E0,-6.450631497E-1,5.157037483E0
1.616838296E1,-1.578586843E0,4.122185293E0,-2.596603753E-1,4.421738518E0
1.617840796E1,-1.381256471E0,3.654724376E0,-4.474499917E-1,3.932568015E0
1.618843296E1,-9.836988701E-1,3.228979833E0,-9.861720961E-1,3.516604845E0
1.619845796E1,-8.369234515E-1,2.719892587E0,-1.793985842E0,3.364021663E0
1.620848296E1,-6.415386674E-1,2.297376877E0,-2.723724267E0,3.620522927E0
1.621850796E1,2.582043089E-1,1.841674125E0,-3.481387761E0,3.946960069E0
1.622853296E1,1.193718285E0,1.114336047E0,-3.816922045E0,4.151578262E0
1.623855696E1,1.949348263E0,-7.502153099E-2,-3.712372075E0,4.193720699E0
1.624858196E1,2.499216329E0,-1.490541224E0,-3.499959687E0,4.551649505E0
1.625860696E1,2.848206226E0,-2.747341172E0,-3.420656240E0,5.230779228E0
1.626863196E1,3.084228501E0,-3.639724513E0,-3.479189208E0,5.904643725E0
1.627865696E1,2.958382680E0,-4.284487628E0,-3.753791996E0,6.418708333E0
1.628868196E1,2.628025228E0,-4.797083203E0,-4.105725966E0,6.839262355E0
1.629870696E1,2.532347530E0,-5.072425080E0,-3.810931572E0,6.831213630E0
1.630873196E1,3.073395073E0,-4.956581213E0,-2.902953122E0,6.514644382E0
1.631875696E1,3.938890285E0,-4.675924217E0,-2.307534806E0,6.534817583E0
1.632878196E1,4.501787703E0,-4.236106596E0,-2.167098135E0,6.550343956E0
1.633880696E1,4.415043674E0,-3.369693078E0,-2.120655455E0,5.945134283E0
1.634883196E1,4.288838541E0,-2.240399854E0,-1.599645590E0,5.096311759E0
1.635885696E1,3.812185215E0,-1.073010850E0,-8.785278527E-1,4.056589650E0
1.636888196E1,2.480187736E0,-1.478877783E0,-6.001886932E-1,2.949345210E0
1.637890696E1,1.762737591E0,-2.910341079E0,-2.021482585E-1,3.408547040E0
1.638893196E1,1.090635016E0,-3.833767873E0,7.753706163E-1,4.060598532E0
1.639895696E1,5.681796460E-1,-2.937579163E0,1.815823000E0,3.499916087E0
1.640898196E1,-1.996819760E-1,-1.859792308E0,2.142937878E0,2.844447762E0
1.641900696E1,-9.734570333E-1,-1.516205238E0,1.959344662E0,2.661865591E0
1.642903196E1,-1.495328924E0,-9.848348379E-1,1.811291993E0,2.546897511E0
1.643905696E1,-1.905631262E0,-1.037099590E0,1.885001993E0,2.874063079E0
1.644908196E1,-1.964642825E0,-1.638975132E0,2.354776654E0,3.477216416E0
1.645910696E1,-1.846991875E0,-2.446837556E0,3.059141023E0,4.330904849E0
1.646913196E1,-1.796351187E0,-3.541165600E0,3.703011267E0,5.429458890E0
1.647915696E1,-1.836419817E0,-4.084656109E0,4.239504413E0,6.166867190E0
1.648918196E1,-2.333104680E0,-3.981161562E0,5.439843062E0,7.133366482E0
1.649920696E1,-2.946627437E0,-3.642776760E0,6.833702914E0,8.285646099E0
1.650923196E1,-2.666463362E0,-2.739990637E0,6.056908500E0,7.162661246E0
1.651925696E1,-2.500619954E0,-1.784510576E0,5.031874055E0,5.895535145E0
1.652928196E1,-2.633153236E0,-4.306351537E-1,4.182250232E0,4.960862788E0
1.653930696E1,-2.560722899E0,1.008594999E0,3.189208242E0,4.212554432E0
1.654933196E1,-2.265599307E0,2.115810306E0,2.206825726E0,3.805216584E0
1.655935696E1,-1.743304077E0,2.907072485E0,1.538935704E0,3.722700987E0
1.656938196E1,-1.117368851E0,3.515693375E0,1.185540515E0,3.874805720E0
1.657940696E1,-5.005280918E-1,3.475310749E0,8.762480233E-1,3.618856694E0
1.658943196E1,1.890822348E-1,3.030831143E0,7.260084218E-1,3.122303275E0
1.659945696E1,8.463081595E-1,2.598804352E0,6.974751788E-1,2.820725649E0
