"Time (s)","Linear Acceleration x (m/s^2)","Linear Acceleration y (m/s^2)","Linear Acceleration z (m/s^2)","Absolute acceleration (m/s^2)"
4.239000000E-3,7.028677004E-1,1.528009012E-1,-6.799838179E-1,9.898227681E-1
1.426300000E-2,5.522939305E-1,1.450621113E-1,-1.062450194E0,1.206180756E0
2.428600000E-2,3.967775092E-1,2.741086990E-1,-1.352240540E0,1.435660980E0
3.430900000E-2,5.594343675E-1,3.309904128E-1,-1.323892654E0,1.474860409E0
4.433200000E-2,6.057990235E-1,-1.187040326E-1,-1.260353885E0,1.403415484E0
5.435500000E-2,8.098542783E-1,5.466854274E-3,-1.564375770E0,1.761580367E0
6.437800000E-2,8.453214419E-1,8.337802076E-1,-1.869626155E0,2.214782096E0
7.440100000E-2,4.200216898E-1,1.143716551E0,-1.877929786E0,2.238554455E0
8.442400000E-2,2.079704042E-1,8.873369023E-1,-1.583499089E0,1.827043467E0
9.444700000E-2,4.027996297E-1,1.029697600E0,-1.599164949E0,1.944184462E0
1.044710000E-1,5.156285993E-1,1.080300866E0,-1.489926682E0,1.911231103E0
1.144940000E-1,5.995001104E-1,1.024588011E0,-1.278988377E0,1.744990614E0
1.245170000E-1,5.355667641E-1,9.765759382E-1,-1.063119700E0,1.539725891E0
1.345400000E-1,3.794598837E-1,9.355740926E-1,-7.732591867E-1,1.271699043E0
1.445630000E-1,2.046320095E-1,9.661120534E-1,-3.972469676E-1,1.064449112E0
1.545860000E-1,2.173991491E-1,9.275081509E-1,2.700302660E-2,9.530282910E-1
1.646090000E-1,4.802908053E-1,9.828590637E-1,2.665114117E-1,1.125930517E0
1.746320000E-1,6.544299506E-1,8.583426064E-1,7.178486323E-1,1.296278230E0
1.846550000E-1,7.974166659E-1,5.145985392E-1,1.118432021E0,1.466824864E0
1.946790000E-1,1.143259957E0,1.786944187E-1,1.133461704E0,1.619787165E0
2.047020000E-1,1.538208749E0,2.866743654E-2,9.155687213E-1,1.790299992E0
2.147250000E-1,1.661668907E0,9.783707410E-2,3.433432406E-1,1.699588253E0
2.247480000E-1,1.530711449E0,1.611483863E-1,-2.409929931E-1,1.557922965E0
2.347710000E-1,1.092584916E0,6.812152416E-2,-8.157760459E-1,1.365237305E0
2.447940000E-1,6.916536909E-1,2.345151553E-1,-1.406806757E0,1.585082786E0
2.548170000E-1,2.999981233E-1,2.999016443E-1,-1.665610954E0,1.718778554E0
2.648400000E-1,4.138060630E-1,4.366721115E-1,-1.747211187E0,1.847881198E0
2.748630000E-1,2.423767367E-1,-4.377243179E-1,-1.353757893E0,1.443263487E0
2.848870000E-1,2.088438320E-1,-1.322768819E0,-1.356066374E0,1.905846034E0
2.949100000E-1,6.566041647E-1,-1.677314740E0,-2.767957284E0,3.302438689E0
3.049330000E-1,5.963812056E-1,-2.062866984E0,-3.499142246E0,4.105494757E0
3.149560000E-1,3.847111219E-1,-2.545662810E0,-3.927548441E0,4.696172755E0
3.249790000E-1,4.215395173E-1,-3.274553909E0,-4.187587570E0,5.332568661E0
3.350020000E-1,4.880480871E-1,-3.754128504E0,-4.186216983E0,5.644119451E0
3.450250000E-1,1.092432377E-1,-3.879119170E0,-3.949070288E0,5.536664678E0
3.550480000E-1,-4.013569754E-1,-4.201485524E0,-3.690532724E0,5.606567562E0
3.650710000E-1,-5.983265743E-1,-4.818492783E0,-3.391647034E0,5.922764303E0
3.750950000E-1,-5.247636312E-1,-5.415968295E0,-2.859150460E0,6.146774015E0
3.851180000E-1,1.653855711E-1,-5.945610259E0,-2.285690632E0,6.371971076E0
3.951410000E-1,1.248245471E0,-6.617075268E0,-1.469445055E0,6.892247139E0
4.051640000E-1,2.028144171E0,-6.714184071E0,-3.000644892E-1,7.020233274E0
4.151870000E-1,1.736330688E0,-6.257186746E0,4.139945626E-1,6.506813485E0
4.252100000E-1,1.930715525E-1,-5.809719797E0,6.846247530E-1,5.853104458E0
4.352330000E-1,-1.458155835E0,-5.448878764E0,1.020253177E0,5.732138760E0
4.452560000E-1,-2.434654883E0,-5.232523599E0,1.047595050E0,5.865518135E0
4.552790000E-1,-2.273693315E0,-5.146888202E0,1.593027419E0,5.847894990E0
4.653030000E-1,-1.264070960E0,-4.956777095E0,2.584853480E0,5.731403151E0
4.753260000E-1,-2.588726091E-1,-4.668745006E0,3.281173834E0,5.712293470E0
4.853490000E-1,3.618110865E-1,-4.886802003E0,4.226499621E0,6.471092653E0
4.953720000E-1,5.496277463E-1,-5.184229106E0,5.473638799E0,7.559037226E0
5.053950000E-1,9.394528431E-1,-5.248755469E0,6.614502493E0,8.496096095E0
5.154180000E-1,2.110061324E0,-4.503008017E0,6.438870261E0,8.135630906E0
5.254410000E-1,4.124140018E0,-2.859090233E0,4.959040552E0,7.055140753E0
5.354640000E-1,5.673412430E0,-9.607764691E-1,3.856681357E0,6.927098318E0
5.454870000E-1,6.579792252E0,7.822346628E-1,3.221845645E0,7.367892949E0
5.555110000E-1,6.914472842E0,1.699787929E0,2.441201425E0,7.527195898E0
5.655364583E-1,6.116117406E0,1.147110275E0,1.820283695E0,6.483531972E0
5.755594583E-1,5.171045389E0,-4.449327654E-1,8.969903630E-1,5.267092869E0
5.855824583E-1,5.696315389E0,-2.047028631E0,-3.591517729E-1,6.063606618E0
5.956054583E-1,7.143521143E0,-1.427757915E0,-9.187735802E-1,7.342515365E0
6.056284583E-1,7.827574039E0,1.997183749E0,-6.159166069E-1,8.101790637E0
6.156514583E-1,7.768242341E0,4.006057252E0,-2.645794916E-1,8.744374539E0
6.256744583E-1,8.598800148E0,4.369146540E0,-1.903995211E-1,9.647023243E0
6.356974583E-1,9.266855062E0,3.678318475E0,-6.487509155E-1,9.991271555E0
6.457214583E-1,9.123555009E0,2.877054049E0,-2.169155624E0,9.809277859E0
6.557444583E-1,8.232467410E0,2.631152319E0,-2.780898927E0,9.079090319E0
6.657674583E-1,7.386004592E0,2.774454710E0,-2.035085401E0,8.148143062E0
6.757904583E-1,6.739269211E0,2.938953259E0,-1.497072564E0,7.503094163E0
6.858134583E-1,6.419683793E0,2.517226338E0,-9.467934376E-1,6.960257628E0
6.958364583E-1,6.334290470E0,1.485560566E0,-8.458368739E-1,6.560911977E0
7.058594583E-1,6.596915823E0,7.418847817E-1,-5.068196958E-1,6.657819283E0
7.158824583E-1,6.403609797E0,2.801740158E-1,2.973069423E-1,6.416627411E0
7.259054583E-1,5.856615052E0,1.505429989E-1,4.188372266E-1,5.873502165E0
7.359294583E-1,5.596212811E0,1.042991245E-1,5.350523919E-1,5.622700169E0
7.459524583E-1,4.980841895E0,-1.023087323E-1,6.541198289E-1,5.024651810E0
7.559754583E-1,4.649843881E0,-9.578791738E-2,9.150483191E-1,4.739993341E0
7.659984583E-1,4.605741842E0,-2.251254040E-1,2.011997085E0,5.031070625E0
7.760214583E-1,4.315695972E0,-5.785562611E-1,2.359410573E0,4.952451647E0
7.860444583E-1,3.995354508E0,-8.572257882E-1,4.520036863E0,6.093310015E0
7.960674583E-1,4.352469111E0,-7.799033779E-1,3.319328963E0,5.529030784E0
8.060904583E-1,3.591812428E0,-1.120736409E0,3.509328681E0,5.145148628E0
8.161134583E-1,2.412538374E0,-6.825448984E-1,3.428734168E0,4.247637807E0
8.261364583E-1,3.233571067E0,1.354330920E0,2.764390483E0,4.464532319E0
8.361604583E-1,2.087396639E0,2.183409382E0,9.110219264E-1,3.155069287E0
8.461834583E-1,2.175262456E0,2.808075616E0,9.023633695E-1,3.664875860E0
8.562064583E-1,3.384408181E0,1.711775306E0,-1.491424153E0,4.075382122E0
8.662294583E-1,2.058098580E0,1.299234361E0,-2.265760397E0,3.325274405E0
8.762524583E-1,7.906996769E-1,2.815499825E0,-3.215057613E0,4.346129393E0
8.862754583E-1,1.762267767E0,2.651867250E0,-4.506022841E0,5.517447729E0
8.962984583E-1,3.079618556E0,7.299547076E-2,-6.204522044E0,6.927154725E0
9.063214583E-1,3.363333646E0,-2.823369008E-1,-3.920659837E0,5.173325903E0
9.163444583E-1,2.764923164E0,4.114627182E-2,-2.571240578E0,3.775946402E0
9.263684583E-1,3.266910136E0,3.136218435E-1,-3.487742515E0,4.789092643E0
9.363914583E-1,3.329917978E0,1.263993192E0,-2.723567562E0,4.483732017E0
9.464144583E-1,2.741555352E0,2.320251185E0,-1.599952569E0,3.931862094E0
9.564374583E-1,2.399534166E0,1.822095893E0,-1.146812652E0,3.223814033E0
9.664604583E-1,1.425361142E0,1.256196515E0,-3.220193222E-1,1.927013366E0
9.764834583E-1,5.445728284E-1,1.103635642E0,6.014247215E-1,1.369774759E0
9.865064583E-1,-1.554838961E-1,7.106290752E-1,5.624848965E-1,9.195423771E-1
9.965294583E-1,-1.004866814E0,1.095843058E0,-1.939857647E-1,1.499419820E0
1.006552458E0,-6.674766237E-1,1.706740268E0,-1.113829093E0,2.144551850E0
1.016576458E0,-1.666953474E-1,2.346482964E0,-1.668905860E0,2.884270515E0
1.026599458E0,-2.047573299E0,1.362269685E0,-4.109095716E-1,2.493427718E0
1.036622458E0,-3.829228095E0,1.323852601E0,1.622127550E0,4.364272138E0
1.046645458E0,-5.867173369E0,1.068316121E0,2.585290852E0,6.499903958E0
1.056668458E0,-7.044048311E0,2.407084968E0,1.758280843E0,7.648805539E0
1.066691458E0,-6.156376655E0,2.349591928E0,2.930965962E0,7.211942680E0
1.076714458E0,-5.708241954E0,1.874529630E-1,3.207270291E0,6.550247899E0
1.086737458E0,-5.575256390E0,-2.289724334E0,2.660127611E0,6.588064985E0
1.096760458E0,-3.301252588E0,-2.570321980E0,2.520377988E0,4.884376002E0
1.106784458E0,-2.496994972E0,-2.442261525E0,2.160260986E0,4.106866540E0
1.116807458E0,-2.532332035E0,-2.177936388E0,1.373601589E0,3.611494673E0
1.126830458E0,-2.998903007E0,-1.204966135E0,9.698362181E-1,3.374306584E0
1.136853458E0,-3.655410254E0,-1.060790462E0,8.948776909E-1,3.910000845E0
1.146876458E0,-3.342099482E0,-1.668034332E0,8.177132285E-1,3.823692248E0
1.156899458E0,-2.341955464E0,-1.868487994E0,1.055082702E0,3.176350467E0
1.166922458E0,-2.098540555E0,-1.669730025E0,1.552165030E0,3.098562101E0
1.176945458E0,-2.669010116E0,-1.469975836E0,2.136800056E0,3.721606970E0
1.186968458E0,-3.141720665E0,-1.127155044E0,1.611873872E0,3.706619026E0
1.196991458E0,-3.438955101E0,-1.240351145E0,9.490299976E-1,3.776975124E0
1.207015458E0,-3.336234725E0,-1.342886311E0,2.788416546E-2,3.596468172E0
1.217038458E0,-2.981854865E0,-1.029747448E0,-3.188837163E-1,3.170729422E0
1.227061458E0,-2.467180604E0,-1.188646264E0,-4.273846134E-1,2.771735500E0
1.237084458E0,-2.831777889E0,-2.009215272E0,-5.117611778E-1,3.509673992E0
1.247107458E0,-2.799312394E0,-2.238427442E0,-7.498142640E-1,3.661820411E0
1.257130458E0,-2.547546490E0,-1.872348472E0,-2.900454314E-1,3.174871379E0
1.267153458E0,-1.557084877E0,-1.830060385E0,1.462398867E-1,2.407284867E0
1.277176458E0,-2.945827246E-2,-2.660167372E0,1.094696857E0,2.876755020E0
1.287199458E0,1.262665290E-1,-3.081027735E0,1.704333408E0,3.523269435E0
1.297222458E0,5.832363725E-2,-3.045039877E0,9.149360526E-1,3.180059352E0
1.307246458E0,-4.435019517E-1,-2.759995716E0,3.010311802E-1,2.811563640E0
1.317269458E0,-2.523523790E-1,-2.694159576E0,-2.517039227E-1,2.717633604E0
1.327292458E0,8.323628426E-2,-1.996726058E0,-6.127577218E-1,2.090290711E0
1.337315458E0,4.252486986E-1,-9.770656425E-1,-2.868446656E-1,1.103527792E0
1.347338458E0,6.882441795E-1,-3.460253584E-1,-5.006818736E-1,9.187469389E-1
1.357361458E0,8.264168090E-1,-1.313372344E-2,-6.199686543E-1,1.033198127E0
1.367384458E0,1.672158081E0,8.290942490E-1,-1.400049130E0,2.333162550E0
1.377407458E0,3.308242350E0,2.555459235E0,-1.397054186E0,4.407561655E0
1.387430458E0,4.150440794E0,2.942926150E0,-1.679556563E0,5.357973810E0
1.397454458E0,3.415089691E0,3.661346932E0,-1.318030236E0,5.177403080E0
1.407477458E0,3.482534984E0,4.234949724E0,-4.143789586E0,6.872688063E0
1.417500458E0,3.896970427E0,2.121232722E0,-3.847704127E0,5.872889733E0
1.427523458E0,3.552458913E0,2.916431246E0,-1.548541510E0,4.850104777E0
1.437546458E0,5.205690726E0,4.498821995E0,-3.604521936E0,7.767315731E0
1.447569458E0,4.735395663E0,4.110632657E0,-5.098634055E0,8.081914510E0
1.457592458E0,3.095461587E0,4.142773047E0,-6.282634413E0,8.137318117E0
1.467615458E0,2.016272569E0,3.061786888E0,-6.152461360E0,7.161890449E0
1.477638458E0,2.009783914E0,2.029700992E0,-4.871780798E0,5.647403443E0
1.487662458E0,2.471519823E0,1.776945886E0,-3.340984418E0,4.519748201E0
1.497685458E0,2.404475648E0,6.337772195E-1,-2.154895434E0,3.290402869E0
1.507708458E0,1.824179841E0,-1.661733373E-1,-1.903501414E0,2.641697050E0
1.517731458E0,6.426891071E-1,-1.623891801E0,1.731699693E-1,1.755010458E0
1.527754458E0,-1.241498369E-1,-1.461230594E0,1.204787064E0,1.897925156E0
1.537777458E0,-7.214095867E-1,1.520022300E0,2.163945901E0,2.741087640E0
1.547800458E0,1.316138077E-1,7.577558792E-1,4.758398609E0,4.820152849E0
1.557823458E0,6.021947998E-1,-4.689617519E-1,6.554242258E0,6.598534328E0
1.567846583E0,-6.336434644E-1,-2.411920908E0,6.928398571E0,7.363529946E0
1.577869583E0,-8.016415715E-1,-2.947140238E0,7.169895594E0,7.793309157E0
1.587893583E0,-1.155547807E0,-3.333208791E0,6.220361567E0,7.151116668E0
1.597916583E0,-7.818148327E-1,-3.360315021E0,5.638782295E0,6.610508093E0
1.607939583E0,-6.775051832E-1,-3.735534358E0,4.496824294E0,5.885121829E0
1.617962583E0,-9.367759877E-1,-4.079071434E0,3.098093419E0,5.207163896E0
1.627985583E0,-1.009138790E0,-3.764588003E0,1.950117464E0,4.358146630E0
1.638008583E0,-1.038606418E0,-3.260805643E0,1.895238860E0,3.911967161E0
1.648031583E0,1.202479899E-2,-2.713733130E0,2.252840974E0,3.527007875E0
1.658054583E0,-2.501596731E-1,-1.749922248E0,2.010656465E0,2.677227513E0
1.668077583E0,-7.022488457E-1,-1.060420479E0,2.890390964E0,3.157848153E0
1.678100583E0,-7.953856355E-1,-2.914215005E-1,3.578457388E0,3.677352591E0
1.688124583E0,-1.301199026E0,3.432681039E-1,3.413379965E0,3.669075453E0
1.698147583E0,-1.379059964E0,8.087275929E-1,2.758571334E0,3.188347928E0
1.708170583E0,-1.195726950E0,1.073541485E0,2.220284993E0,2.740788155E0
1.718193583E0,-5.298776060E-1,1.187787746E0,1.356376422E0,1.879193180E0
1.728216583E0,8.436035299E-1,1.326016217E0,2.675814521E-1,1.594235163E0
1.738239583E0,1.549833160E0,1.607349882E0,-2.933594871E-1,2.252024923E0
1.748262583E0,2.109041569E0,1.690278018E0,-7.876994705E-1,2.815238280E0
1.758285583E0,2.351073028E0,1.434687743E0,-1.594790647E0,3.182645206E0
1.768308583E0,1.625273936E0,8.063124736E-1,-2.023528379E0,2.717778923E0
1.778331583E0,1.187663639E0,-4.697073450E-1,-1.107718753E0,1.690624365E0
1.788355583E0,4.735063541E-1,-1.041316822E0,-1.228177242E0,1.678382653E0
1.798378583E0,1.902980427E0,1.295219517E0,-1.583258768E0,2.793856909E0
1.808401583E0,2.506401388E0,2.665626917E0,-6.699073112E-1,3.719729908E0
1.818424583E0,-1.217457542E0,-1.542785072E0,-6.562388599E-1,2.071964789E0
1.828447583E0,-2.748296607E0,-2.234399441E0,-8.553412306E-1,3.643800724E0
1.838470583E0,-2.953560188E0,-2.115107763E0,-2.320046532E-1,3.640195708E0
1.848493583E0,-3.037343187E0,-2.559187420E0,-4.717709005E-1,3.999682696E0
1.858516583E0,-3.749548672E0,-2.506285028E0,-4.257170606E-1,4.530100981E0
1.868539583E0,-3.778578343E0,-1.418952301E0,-8.223424691E-1,4.119141545E0
1.878562583E0,-2.681196299E0,7.136293546E-1,-1.723161004E0,3.266093124E0
1.888586583E0,-2.152961760E0,2.585709220E0,-3.399592815E0,4.783133682E0
1.898609583E0,-2.620606865E0,3.325611211E0,-3.713736230E0,5.631971862E0
1.908632583E0,-2.783768156E0,4.787662169E0,-3.261852295E0,6.427344287E0
1.918655583E0,-2.605201791E0,4.741573246E0,-3.231076060E0,6.301543123E0
1.928678583E0,-2.078967000E0,4.927167379E0,-2.686507325E0,5.984680758E0
1.938701583E0,-1.755976163E0,4.869120900E0,-1.662180392E0,5.436417412E0
1.948724583E0,-1.534200044E0,5.017467685E0,-1.409578337E0,5.432831935E0
1.958747583E0,-2.680623856E0,5.208684500E0,-2.820711449E0,6.501734504E0
1.968770583E0,-1.508564681E0,4.346640314E0,-2.823086003E0,5.398042608E0
1.978793583E0,-6.085717732E-1,4.933527980E0,-3.633344616E0,6.157211304E0
1.988817583E0,-2.844337124E-1,3.523855211E0,-4.150569432E0,5.452126621E0
1.998840583E0,8.589781988E-1,2.633424839E0,-1.290141941E0,3.055689146E0
2.008863583E0,1.358160262E0,1.538346743E0,-9.196255195E-1,2.248737667E0
2.018886583E0,1.787845827E0,3.455366043E-1,-1.165677432E-1,1.824657855E0
2.028909583E0,2.205085595E0,4.146422879E-1,4.638678038E-1,2.291179619E0
2.038932583E0,2.953888217E0,7.315161335E-1,1.387555969E-1,3.046280448E0
2.048955583E0,2.489791203E-1,-1.656119680E-1,-2.386741043E0,2.405400327E0
2.058978583E0,4.664848421E0,4.992869033E0,-9.089170019E-1,6.893161981E0
2.069001583E0,4.467670369E0,2.466439762E0,1.185649200E0,5.239195325E0
2.079024583E0,3.998935928E0,2.242195387E0,-1.769326526E0,4.914208488E0
2.089048583E0,5.142134416E0,2.704107151E0,-7.686117467E-1,5.860418573E0
2.099071583E0,4.631393577E0,1.804280158E0,-3.390274107E-1,4.981984839E0
2.109094583E0,4.679890383E0,7.751854058E-1,8.442209959E-3,4.743665006E0
2.119117583E0,3.980204372E0,-2.023015578E0,1.330854203E0,4.658947498E0
2.129140583E0,1.627173112E0,-6.147605832E0,2.295189872E0,6.760816988E0
2.139163583E0,-2.545024002E-1,-9.152026856E0,2.792610315E0,9.571992448E0
2.149186583E0,5.528513163E-1,-8.926724281E0,2.495084102E0,9.285337670E0
2.159209583E0,2.727726687E0,-6.523696404E0,2.707070520E0,7.571481919E0
2.169232583E0,3.817968696E0,-4.111398058E0,3.323633975E0,6.521274550E0
2.179255583E0,4.495013704E0,-2.707659042E0,3.849459461E0,6.508064522E0
2.189278583E0,4.852110180E0,-1.871179468E0,4.065803809E0,6.601139781E0
2.199302583E0,4.745241205E0,-1.390412041E0,4.381989364E0,6.606995574E0
2.209325583E0,3.503259271E0,-1.540395462E0,4.285809683E0,5.745764382E0
2.219348583E0,1.504003268E0,-1.785353452E0,3.443263038E0,4.159996770E0
2.229371583E0,-8.755047691E-1,-2.324938897E0,1.244485127E0,2.778595456E0
2.239394583E0,-2.718673443E0,-3.165262432E0,-1.993913986E0,4.624474514E0
2.249417583E0,-4.526647140E0,-4.263423910E0,-5.620851808E0,8.382200953E0
2.259440583E0,-6.245039740E0,-4.655356636E0,-7.096403695E0,1.053716338E1
2.269463583E0,-6.571554694E0,-3.322737890E0,-3.266752846E0,8.055904191E0
2.279486583E0,-5.754533191E0,-9.119545573E-1,-2.306182784E-1,5.830908862E0
2.289509583E0,-5.213885599E0,7.723429281E-1,8.970938587E-1,5.346577786E0
2.299533583E0,-4.497426850E0,9.735081965E-1,1.493537337E0,4.837894196E0
2.309556583E0,-3.406531121E0,1.059632713E0,2.518564766E0,4.366971977E0
2.319579583E0,-3.030577374E0,1.555262592E0,3.096791829E0,4.603624722E0
2.329602583E0,-3.087760804E0,2.111418462E0,2.916574795E0,4.743286123E0
2.339625583E0,-3.181085874E0,2.816389187E0,2.770457554E0,5.072158362E0
2.349648583E0,-2.901448048E0,3.740684878E0,2.698832086E0,5.449295253E0
2.359671583E0,-2.125426052E0,4.501187779E0,2.303328758E0,5.484838256E0
2.369694583E0,-1.237297145E0,4.917600750E0,1.835816385E0,5.392951247E0
2.379717583E0,-3.013526309E-1,5.016007050E0,1.447230313E0,5.229303559E0
2.389740583E0,3.698065692E-1,4.644813522E0,1.315168024E0,4.841561368E0
2.399763583E0,7.098929107E-2,4.044341311E0,9.566495043E-1,4.156550781E0
2.409787583E0,-9.282185876E-1,3.817804974E0,5.668758631E-1,3.969706893E0
2.419810583E0,-1.701201201E0,3.490678986E0,5.471795171E-1,3.921521482E0
2.429833583E0,-1.786585752E0,2.846814004E0,1.610691565E-1,3.364845004E0
2.439856583E0,-1.157577376E0,2.100064339E0,-5.281292886E-1,2.455438078E0
2.449879583E0,-2.979480895E-1,1.503788676E0,-1.609249642E0,2.222574601E0
2.459902583E0,6.710808474E-1,9.805453205E-1,-3.249111212E0,3.459558107E0
2.469925583E0,1.389214531E0,5.731791615E-1,-4.888906124E0,5.114670513E0
2.479948583E0,1.668143383E0,2.597724956E-1,-6.420557951E0,6.638806256E0
2.489971583E0,2.273280501E0,-1.206298131E-1,-7.346225399E0,7.690863632E0
2.499994583E0,2.916256707E0,-2.222281086E-1,-7.148048642E0,7.723246591E0
2.510018583E0,3.325026782E0,-3.194994646E-1,-6.071876788E0,6.930048393E0
2.520041583E0,2.915460316E0,-4.310573226E-1,-4.524905840E0,5.400045567E0
2.530064583E0,2.229237519E0,-7.370403636E-1,-2.505330471E0,3.433570908E0
2.540087583E0,1.973567430E0,-9.123609388E-1,-2.076219978E0,3.006336688E0
2.550110583E0,1.942569001E0,-3.135008061E-1,-4.679388108E0,5.076271283E0
2.560133583E0,2.448913903E0,9.173708332E-1,-6.529885681E0,7.034071052E0
2.570153125E0,2.894621424E0,1.909188416E0,-6.196470428E0,7.100709779E0
2.580176125E0,3.718504050E0,1.493427994E0,-4.706207824E0,6.181099548E0
2.590199125E0,3.481405302E0,-1.067859453E-1,-1.873546128E0,3.954966651E0
2.600222125E0,1.820680867E0,-2.296417934E0,2.782404585E0,4.041062907E0
2.610246125E0,7.057630223E-1,-3.819744496E0,7.213628089E0,8.192983563E0
2.620269125E0,-1.587430172E0,-4.742072598E0,9.362451775E0,1.061426824E1
2.630292125E0,-3.554164546E0,-4.090282885E0,7.166553326E0,8.984541517E0
2.640315125E0,-2.291386989E0,-2.984303094E0,3.690598505E0,5.270392454E0
2.650338125E0,-1.287691373E0,-2.427332414E0,-1.727773873E0,3.245811805E0
2.660361125E0,-4.496446272E0,-3.371952442E0,-4.987587243E0,7.514261032E0
2.670384125E0,-5.743817584E0,-3.497628402E0,-3.618123729E0,7.636469354E0
2.680407125E0,-3.241346110E0,-1.408846850E0,-1.799422437E0,3.965992329E0
2.690430125E0,-2.465521165E0,1.589992422E-1,3.475096157E0,4.263844353E0
2.700453125E0,-3.825803381E0,1.001593543E0,9.773373041E0,1.054318651E1
2.710476125E0,-3.367355653E0,1.901328589E0,1.303169537E1,1.359335201E1
2.720500125E0,-2.436948745E0,2.427780896E0,1.316417574E1,1.360618838E1
2.730523125E0,-9.672393966E-1,2.946126623E0,9.736680593E0,1.021852059E1
2.740546125E0,4.849315211E-1,3.591650460E0,5.128023330E0,6.279469315E0
2.750569125E0,1.062812721E0,3.803406206E0,2.197239801E0,4.519218117E0
2.760592125E0,1.123506527E0,3.723576509E0,6.376950002E-1,3.941312453E0
2.770615125E0,9.898549649E-1,3.891130813E0,-1.649816162E0,4.340806978E0
2.780638125E0,1.861189207E-1,4.244330120E0,-3.231464900E0,5.337728339E0
2.790661125E0,-3.398284793E-1,4.938506300E0,-1.700673198E0,5.234177795E0
2.800684125E0,-5.146304065E-1,5.683925723E0,6.539047976E-1,5.744514563E0
2.810707125E0,-9.035298890E-1,6.395887379E0,1.843696239E0,6.717362388E0
2.820730125E0,-1.640696845E0,6.729281582E0,2.724172164E0,7.442864417E0
2.830754125E0,-2.469722974E0,6.950645472E0,2.914516575E0,7.931293143E0
2.840777125E0,-3.124493890E0,7.062652981E0,2.638507531E0,8.161204029E0
2.850800125E0,-3.372967226E0,6.757504923E0,2.323388216E0,7.901829756E0
2.860823125E0,-3.277274911E0,6.338349608E0,2.046919581E0,7.423280027E0
2.870846125E0,-2.749820391E0,6.137811745E0,1.567700643E0,6.905934442E0
2.880869125E0,-1.587449029E0,4.010509322E0,1.618931315E0,4.607072611E0
2.890892125E0,5.070959768E-1,-2.542165298E0,3.385734329E0,4.264146770E0
2.900915125E0,2.010578258E0,-1.182965635E1,5.999356111E0,1.341549358E1
2.910938125E0,2.020157021E0,-1.915174094E1,8.690790884E0,2.112818169E1
2.920961125E0,8.435215227E-2,-2.244985591E1,6.796783009E0,2.345632974E1
2.930984125E0,-3.528968601E0,-1.805176624E1,-2.919315385E0,1.862370226E1
2.941008125E0,-3.740196635E0,-9.078057824E0,-8.827519251E0,1.320323070E1
2.951031125E0,-1.709860781E0,-2.108083795E0,-8.807083232E0,9.215875229E0
2.961054125E0,-4.501585316E-1,1.934941308E0,-6.729885600E0,7.016979461E0
2.971077125E0,2.972253737E-1,3.900516179E0,-4.362063515E0,5.859178056E0
2.981100125E0,6.568637811E-1,4.155560031E0,-2.353900741E0,4.820891816E0
2.991123125E0,3.141978673E-1,2.727221487E0,-9.521793079E-1,2.905701770E0
3.001146125E0,-1.344294247E-1,8.946760350E-1,-1.195624039E0,1.499344297E0
3.011169125E0,-1.960922972E-1,-1.006942576E0,-3.751797511E0,3.889520549E0
3.021192125E0,1.032701972E-1,-2.440602086E0,-8.164061419E0,8.521684230E0
3.031215125E0,-3.241067782E-2,-3.999914752E0,-1.140241551E1,1.208368519E1
3.041238125E0,-6.524258175E-1,-5.725144501E0,-1.093678068E1,1.236188135E1
3.051262125E0,-9.832857643E-1,-6.547144323E0,-8.085733287E0,1.045040824E1
3.061285125E0,-5.610514881E-1,-5.838854719E0,-5.572396517E0,8.090649303E0
3.071308125E0,-2.459299435E-1,-4.687623326E0,-4.486060155E0,6.492998514E0
3.081331125E0,-6.308486415E-1,-3.757740621E0,-4.465955088E0,5.870548478E0
3.091354125E0,-1.327859698E0,-3.171626249E0,-4.742365836E0,5.857683686E0
3.101377125E0,-1.583619542E0,-2.912944844E0,-4.540376695E0,5.622109840E0
3.111400125E0,-1.072008564E0,-3.094243028E0,-3.514055570E0,4.803345586E0
3.121423125E0,-3.061006065E-1,-3.582427062E0,-2.825872201E0,4.573077185E0
3.131446125E0,9.626154184E-2,-3.794922481E0,-3.227266307E0,4.982564674E0
3.141469125E0,1.032544829E-1,-3.300331652E0,-3.137740465E0,4.555026424E0
3.151492125E0,4.952774018E-1,-2.241713723E0,-1.560902816E0,2.776148001E0
3.161516125E0,6.348407549E-1,-1.744135551E0,3.327400459E-1,1.885668991E0
3.171539125E0,-9.715243824E-2,-1.893930691E0,1.894897382E0,2.680867052E0
3.181562125E0,-2.235265560E-1,-2.578555444E0,3.806379515E0,4.602981351E0
3.191585125E0,4.610583629E-1,-3.648530420E0,5.168404786E0,6.343244995E0
3.201608125E0,9.369682880E-1,-4.790911467E0,5.260500187E0,7.176601178E0
3.211631125E0,6.528066174E-1,-5.749995167E0,4.404162591E0,7.272224490E0
3.221654125E0,-3.723288388E-1,-6.607644294E0,3.495831553E0,7.484679694E0
3.231677125E0,-1.024344986E0,-7.317491596E0,3.230746862E0,8.064284915E0
3.241700125E0,-1.015029056E0,-7.416137048E0,2.959024411E0,8.048925280E0
3.251723125E0,-3.025878552E-1,-8.278116038E0,1.426502957E0,8.405574057E0
3.261746125E0,-7.644302566E-1,-8.704271640E0,-1.708882396E-1,8.739445130E0
3.271769125E0,-1.659302100E0,-7.778216522E0,1.599833286E-1,7.954843203E0
3.281793125E0,-1.660890935E0,-5.460447480E0,1.312094289E0,5.856333051E0
3.291816125E0,-1.535689622E0,-2.850655625E0,1.882663984E0,3.745531175E0
3.301839125E0,-1.553091521E0,-8.407810789E-1,1.822472746E0,2.537796880E0
3.311862125E0,-1.441388360E0,7.137707841E-1,1.580754406E0,2.255183724E0
3.321885125E0,-1.122015853E0,1.947985277E0,1.373579077E0,2.634442197E0
3.331908125E0,-9.260579684E-1,3.170463822E0,2.051083091E0,3.887977116E0
3.341931125E0,-8.833438388E-1,3.581187453E0,4.159563035E0,5.559421242E0
3.351954125E0,-1.177695744E0,3.687849437E0,8.979732215E0,9.778690679E0
3.361977125E0,-4.736694914E-1,4.130872502E0,1.003287481E1,1.086034288E1
3.372000125E0,8.716039453E-1,4.216437147E0,8.364551919E0,9.407643937E0
3.382023125E0,1.900694604E0,3.803687457E0,6.785251715E0,8.007516412E0
3.392047125E0,2.401986489E0,3.232996870E0,5.183332728E0,6.564201857E0
3.402070125E0,2.574024729E0,3.242331950E0,4.738416919E0,6.292131172E0
3.412093125E0,2.315455006E0,4.033802290E0,5.306048242E0,7.055993250E0
3.422116125E0,1.787354369E0,5.281651905E0,6.016369169E0,8.202876353E0
3.432139125E0,1.310313081E0,6.633612948E0,6.702041743E0,9.520457166E0
3.442162125E0,8.421906234E-1,7.793322803E0,7.017593753E0,1.052101646E1
3.452185125E0,5.004708987E-1,8.407186307E0,6.808472763E0,1.082989169E1
3.462208125E0,3.264891897E-1,8.538950973E0,6.045035144E0,1.046722164E1
3.472231125E0,1.030415894E-1,8.259042420E0,4.601613123E0,9.455011507E0
3.482254125E0,-2.318784264E-1,7.756169010E0,2.804582489E0,8.250915601E0
3.492277125E0,-2.974076972E-1,7.396873396E0,9.140279800E-1,7.459063917E0
3.502301125E0,-1.779438372E-1,7.137278656E0,-2.052947475E0,7.428795593E0
3.512324125E0,-7.239998667E-2,6.389655417E0,-6.246442487E0,8.935937659E0
3.522347125E0,-3.730912792E-1,4.112849629E0,-1.090149507E1,1.165750076E1
3.532370125E0,-1.625523759E0,-4.235407269E-1,-1.344524438E1,1.354977161E1
3.542393125E0,-3.060507809E0,-5.271944357E0,-1.167831521E1,1.317357778E1
3.552416125E0,-4.155736032E0,-9.352157752E0,-5.669113557E0,1.169922412E1
3.562439125E0,-5.522727928E0,-1.207528502E1,-1.885548708E0,1.341149977E1
3.572462083E0,-6.848312767E0,-1.194110896E1,-3.694152443E0,1.425258690E1
3.582485083E0,-6.707025910E0,-8.407904930E0,-6.160156880E0,1.239453890E1
3.592508083E0,-3.715961680E0,-3.324139760E0,-5.862490334E0,7.695912504E0
3.602531083E0,9.350368431E-2,-9.030375534E-1,-4.162192528E0,4.260054741E0
3.612554083E0,3.217518706E0,-7.799916708E-1,-2.882217726E0,4.389532167E0
3.622578083E0,5.166765811E0,-8.986574042E-1,-3.263310590E0,6.176750771E0
3.632601083E0,6.015915425E0,1.896111703E-1,-5.880338960E0,8.414604987E0
3.642624083E0,5.946014886E0,2.476312201E0,-7.261383469E0,9.706436268E0
3.652647083E0,5.132370150E0,3.959012893E0,-5.897402889E0,8.763239543E0
3.662670083E0,3.197219220E0,3.613054778E0,-1.424250463E0,5.030394115E0
3.672693083E0,1.290846238E0,2.550011092E0,3.546286007E0,4.554666291E0
3.682716083E0,-2.231054103E-1,1.317433235E0,8.816155772E0,8.916838507E0
3.692739083E0,-8.882894138E-1,-1.637226230E0,1.375129934E1,1.387688010E1
3.702762083E0,-2.052358807E0,-5.301075186E0,1.321868348E1,1.438913367E1
3.712785083E0,-4.104292521E0,-8.738290740E0,1.166726397E1,1.514357919E1
3.722808083E0,-7.348487687E0,-1.168823676E1,7.735352923E0,1.582563853E1
3.732831083E0,-1.125610180E1,-8.278492599E0,4.445988016E0,1.466288092E1
3.742854083E0,-1.196508138E1,-4.662379727E0,3.448174114E0,1.329627248E1
3.752878083E0,-1.007894385E1,-1.175945234E0,1.282117514E0,1.022799011E1
3.762901083E0,-6.516679160E0,1.516271896E0,-1.371040801E0,6.829783350E0
3.772924083E0,-2.277947749E0,2.564923831E0,-2.260214021E0,4.108095377E0
3.782947083E0,-3.156354053E-1,1.865970476E0,-1.209875750E0,2.246168038E0
3.792970083E0,5.949951231E-1,8.217413753E-1,2.012218402E0,2.253508594E0
3.802993083E0,2.457031592E0,1.477252257E-1,5.287022572E0,5.831932327E0
3.813016083E0,3.822221084E0,-1.018909487E0,7.214392905E0,8.227698071E0
3.823039083E0,4.247500480E0,-2.551089318E0,6.968393526E0,8.550311420E0
3.833062083E0,3.656246406E0,-2.778295746E0,4.735424022E0,6.596310006E0
3.843085083E0,3.244836605E0,-1.758554201E0,3.609378633E0,5.162275815E0
3.853108083E0,3.291884471E0,6.295755565E-2,3.316495402E0,4.673286721E0
3.863131083E0,3.450660642E0,2.224430523E0,2.769575794E0,4.952342890E0
3.873155083E0,3.375615138E0,4.128346505E0,2.004005549E0,5.696846554E0
3.883178083E0,3.069488548E0,5.475903425E0,1.237750304E0,6.398382927E0
3.893201083E0,2.497891058E0,5.892028713E0,7.499124241E-1,6.443433148E0
3.903224083E0,1.663387550E0,5.169062013E0,7.281268680E-1,5.478706870E0
3.913247083E0,6.823501130E-1,3.521330091E0,6.130945945E-1,3.638853153E0
3.923270083E0,-2.562468073E-1,1.503225589E0,2.448632834E-1,1.544444115E0
3.933293083E0,-8.213624758E-1,-9.493714750E-2,-3.592546839E-1,9.015061322E-1
3.943316083E0,-1.284278207E0,-1.170081646E0,-9.505876958E-1,1.980423828E0
3.953339083E0,-1.578492703E0,-1.280105195E0,-1.667726476E0,2.628996029E0
3.963362083E0,-1.596134191E0,-2.392949617E-1,-2.563671357E0,3.029408731E0
3.973385083E0,-1.538168696E0,1.444434174E0,-3.329714495E0,3.941998432E0
3.983408083E0,-1.548807558E0,2.922526091E0,-3.860857438E0,5.083914217E0
3.993432083E0,-1.641628745E0,3.778121091E0,-4.486755681E0,6.090986821E0
4.003455083E0,-1.875640162E0,3.586936435E0,-5.071096008E0,6.488463125E0
4.013478083E0,-2.039921925E0,2.912350182E0,-5.267757166E0,6.355496094E0
4.023501083E0,-1.971842794E0,1.663846264E0,-4.928110535E0,5.562627242E0
4.033524083E0,-1.450499783E0,-2.934004176E-1,-3.902148721E0,4.173343752E0
4.043547083E0,-8.036566682E-1,-1.544458984E0,-2.693627187E0,3.207311182E0
4.053570083E0,-3.358637016E-2,-1.918024728E0,-1.826248586E0,2.648609220E0
4.063593083E0,1.047220682E0,-1.722054711E0,-1.571768112E0,2.555894870E0
4.073616083E0,1.863030349E0,-1.777737746E0,-1.929680860E0,3.217903323E0
4.083639083E0,2.586555020E0,-2.097908471E0,-3.144380563E0,4.580241909E0
4.093662083E0,3.303877988E0,-2.085400107E0,-5.060048279E0,6.392854757E0
4.103685083E0,3.563642590E0,-2.324966379E0,-6.542643136E0,7.804562536E0
4.113708083E0,3.251571136E0,-2.493403028E0,-7.208615271E0,8.291797612E0
4.123732083E0,2.495013936E0,-2.461586573E0,-7.379555113E0,8.169598317E0
4.133755083E0,1.108704520E0,-2.518541377E0,-7.088145672E0,7.603557421E0
4.143778083E0,2.131997153E-2,-2.680721505E0,-6.082019368E0,6.646629365E0
4.153801083E0,-3.382041593E-1,-3.008646807E0,-4.675289209E0,5.569979071E0
4.163824083E0,-4.205560157E-1,-3.899063730E0,-3.216319734E0,5.071910682E0
4.173847083E0,-8.261996945E-2,-5.102104962E0,-2.063929131E0,5.504371405E0
4.183870083E0,6.076694747E-1,-6.220269765E0,-1.649359787E0,6.463853792E0
4.193893083E0,1.639861570E0,-5.996223757E0,-2.116895257E0,6.566969685E0
4.203916083E0,2.358784482E0,-5.018601460E0,-2.646213284E0,6.144320108E0
4.213939083E0,2.672367880E0,-4.371630437E0,-2.267668344E0,5.603126135E0
4.223962083E0,2.870669767E0,-3.454351405E0,-1.125992471E0,4.630458680E0
4.233985083E0,2.869806426E0,-2.726951931E0,4.835612261E-1,3.988218551E0
4.244008083E0,2.574848894E0,-2.716026408E0,2.719899604E0,4.626499771E0
4.254032083E0,2.082998948E0,-3.522386683E0,4.096482688E0,5.790273134E0
4.264055083E0,9.541227762E-1,-4.914139783E0,4.245923486E0,6.564067819E0
4.274078083E0,-5.432841752E-1,-5.962028655E0,3.861226398E0,7.123904314E0
4.284101083E0,-1.463188972E0,-6.803941755E0,3.524936653E0,7.801264243E0
4.294124083E0,-1.775411869E0,-7.338612909E0,3.324688228E0,8.249901729E0
4.304147083E0,-1.864805856E0,-7.345253592E0,3.052633656E0,8.169995315E0
4.314170083E0,-1.871299774E0,-6.959994001E0,2.759188800E0,7.717279454E0
4.324193083E0,-1.840332920E0,-6.286746760E0,2.634415065E0,7.060464065E0
4.334216083E0,-1.891297106E0,-5.499531439E0,1.815106716E0,6.092328223E0
4.344239083E0,-1.993364348E0,-4.929098130E0,2.422372806E-1,5.322423198E0
4.354262083E0,-1.803184243E0,-3.706164671E0,-1.318802945E-1,4.123654010E0
4.364285083E0,-1.317296995E0,-1.992898909E0,9.463864714E-2,2.390789390E0
4.374308083E0,-7.069051297E-1,-4.108236176E-1,2.585498428E-1,8.575190542E-1
4.384332083E0,-1.808482771E-1,7.956680560E-1,6.592548537E-1,1.049004631E0
4.394355083E0,2.510628486E-1,2.000719560E0,1.497319901E0,2.511548964E0
4.404378083E0,4.440171645E-1,2.901463836E0,2.783283714E0,4.045035459E0
4.414401083E0,2.483243052E-1,3.025875043E0,5.058940816E0,5.900039569E0
4.424424083E0,-1.618630622E-1,3.474448870E0,9.887537588E0,1.048147862E1
4.434447083E0,3.138614331E-1,3.903445049E0,1.213277601E1,1.274910373E1
4.444470083E0,1.164797591E0,3.556497000E0,9.934634571E0,1.061613811E1
4.454493083E0,1.740369214E0,3.396006718E0,6.756472304E0,7.759617557E0
4.464516083E0,1.903756791E0,3.805842741E0,4.488574750E0,6.185146091E0
4.474539083E0,1.535181792E0,4.854578290E0,3.937368840E0,6.436348879E0
4.484562083E0,1.036651182E0,5.874853687E0,4.796058771E0,7.654458260E0
4.494585083E0,6.206342136E-1,6.658465369E0,6.219862214E0,9.132745144E0
4.504608083E0,1.483198875E-1,7.127210335E0,7.261030297E0,1.017554357E1
4.514632083E0,-2.100916278E-1,7.348946108E0,7.690139912E0,1.063905068E1
4.524655083E0,-3.483589822E-1,7.326247217E0,7.068819455E0,1.018643513E1
4.534678083E0,-2.931143425E-1,7.200561901E0,5.716772457E0,9.198668112E0
4.544701083E0,-2.085266937E-1,7.029310988E0,4.027175933E0,8.103878229E0
4.554724083E0,-3.754584879E-2,6.720891412E0,2.040562488E0,7.023936669E0
4.564747083E0,5.873857029E-2,6.420517021E0,-5.613441047E-1,6.445277049E0
4.574770083E0,-2.512080789E-2,5.783945271E0,-3.697421914E0,6.864807554E0
4.584793083E0,-4.089881766E-1,4.044624901E0,-6.081935753E0,7.315477047E0
4.594816083E0,-1.081206746E0,9.329770517E-1,-7.239607853E0,7.379117568E0
4.604839083E0,-1.721872278E0,-2.642906392E0,-7.648735194E0,8.273629699E0
4.614862083E0,-2.198663890E0,-5.606063615E0,-6.692701986E0,9.003017940E0
4.624885083E0,-2.660289287E0,-8.159622213E0,-5.560272315E0,1.022610395E1
4.634908083E0,-3.559967907E0,-9.730920501E0,-6.276297201E0,1.211429287E1
4.644932083E0,-4.215613275E0,-9.070790319E0,-8.617925806E0,1.320300259E1
4.654955083E0,-2.331680591E0,-5.809388260E0,-9.981005330E0,1.178160404E1
4.664978083E0,3.445379730E-1,-2.843753572E0,-8.992447570E0,9.437677367E0
4.675001083E0,1.804853477E0,-2.244751351E0,-7.086695563E0,7.649683569E0
4.685024083E0,2.863343498E0,-3.084034374E0,-5.203022642E0,6.691894247E0
4.695047083E0,3.491413981E0,-3.992241451E0,-3.436660069E0,6.319699029E0
4.705070083E0,3.531642240E0,-5.386308879E0,-4.026693830E0,7.595991275E0
4.715093083E0,2.799303038E0,-8.002502850E0,-7.343287173E0,1.121606062E1
4.725116083E0,2.126390697E0,-9.675056203E0,-9.004219185E0,1.338671778E1
4.735139083E0,2.582008225E0,-6.995624009E0,-2.321337597E0,7.809873878E0
4.745162083E0,2.072910747E0,-1.687950826E0,1.025446206E1,1.059717553E1
4.755185083E0,1.364320596E-1,2.018226709E0,1.701585831E1,1.713567293E1
4.765208083E0,-1.665747048E0,4.257302753E0,1.756091353E1,1.814621239E1
4.775231083E0,-2.775195845E0,5.722782226E0,1.303108843E1,1.450038669E1
4.785255083E0,-3.316396292E0,6.533023882E0,8.839096738E0,1.148078902E1
4.795278083E0,-4.695903568E0,6.767192590E0,5.522026262E0,9.916611312E0
4.805301083E0,-9.042642993E0,6.050899901E0,8.272561768E-1,1.091178879E1
4.815324083E0,-6.950598110E0,3.787685382E0,1.481218131E0,8.053035564E0
4.825347083E0,-4.890055979E0,1.069890776E0,1.781819979E0,5.313397800E0
4.835370083E0,-4.625616820E0,-1.810962210E0,2.497026255E0,5.559771147E0
4.845393083E0,-4.852356640E0,-4.910977024E0,4.361159828E0,8.165952200E0
4.855416083E0,-4.365227736E0,-7.135532677E0,5.330036445E0,9.918685814E0
4.865439083E0,-2.590034406E0,-7.966507391E0,5.155363741E0,9.836223540E0
4.875462083E0,-4.162070028E-2,-6.457826350E0,4.890665843E0,8.100855871E0
4.885485083E0,1.515882764E0,-4.168805729E0,4.116234874E0,6.051465219E0
4.895508083E0,2.173262416E0,-2.194634866E0,3.227007860E0,4.466886102E0
4.905531083E0,2.820852951E0,-2.418168658E-1,2.328776571E0,3.665908767E0
4.915554083E0,3.483041938E0,1.414708684E0,1.726332972E0,4.136811252E0
4.925578083E0,4.388582977E0,2.882467402E0,1.167481828E0,5.378781710E0
4.935601083E0,4.810156116E0,4.049831847E0,5.802659138E-1,6.314700973E0
4.945624083E0,4.815806572E0,4.838751631E0,6.700434051E-2,6.827151666E0
4.955647083E0,4.796513392E0,5.113469025E0,-3.911377966E-1,7.021901094E0
4.965670083E0,4.668054742E0,4.938682886E0,-7.180579627E-1,6.833515271E0
4.975693083E0,3.868207096E0,4.152057549E0,-1.150949557E0,5.790275720E0
4.985716083E0,1.777681759E0,2.718264138E0,-1.677952672E0,3.655767707E0
4.995739083E0,3.560333431E-1,1.450162691E0,-2.129553602E0,2.600909479E0
5.005762083E0,-6.840017322E-1,4.809106833E-1,-2.526687133E0,2.661443466E0
5.015785083E0,-1.425644001E0,-9.244974196E-2,-2.699252501E0,3.054009141E0
5.025808083E0,-1.621925382E0,-3.059345090E-1,-2.656116421E0,3.127170017E0
5.035831083E0,-1.730807847E0,1.380282032E-1,-3.061142524E0,3.519281339E0
5.045854083E0,-1.561941282E0,9.650554615E-1,-3.692191579E0,4.123502306E0
5.055877083E0,-1.347711726E0,1.687528072E0,-3.817174060E0,4.385760560E0
5.065900083E0,-9.795974138E-1,2.294042210E0,-3.480324737E0,4.281927256E0
5.075924083E0,-4.830532127E-1,2.479922857E0,-2.854517711E0,3.812037400E0
5.085947083E0,1.411664039E-2,2.268568815E0,-2.399840561E0,3.302398895E0
5.095970083E0,2.855477531E-1,1.453154712E0,-2.110410549E0,2.578183240E0
5.105993083E0,8.028603505E-1,5.211272478E-1,-1.786467785E0,2.026727781E0
5.116016083E0,1.620321637E0,-2.344990754E-1,-1.449838171E0,2.186884255E0
5.126039083E0,2.096404859E0,-1.049589828E0,-1.104066728E0,2.591431164E0
5.136062083E0,2.432476064E0,-2.050831953E0,-1.125542235E0,3.374862489E0
5.146085083E0,2.744913700E0,-3.066544767E0,-2.034469981E0,4.591003826E0
5.156108083E0,2.895043008E0,-3.766312054E0,-3.814264193E0,6.092207469E0
5.166131083E0,2.719207293E0,-4.239074058E0,-6.250298141E0,8.026833998E0
5.176154083E0,2.386118607E0,-4.589907582E0,-8.797137119E0,1.020541205E1
5.186177083E0,2.077275401E0,-4.767631363E0,-1.013116183E1,1.138796829E1
5.196200083E0,1.717812556E0,-4.781318525E0,-9.599800199E0,1.086130980E1
5.206224083E0,1.261718187E0,-4.515653790E0,-7.858170179E0,9.150622957E0
5.216247083E0,8.213613063E-1,-4.227750925E0,-6.104731708E0,7.471028142E0
5.226270083E0,9.768381127E-1,-4.316763673E0,-4.552418451E0,6.349265711E0
5.236293083E0,1.664571611E0,-4.758697987E0,-2.997756660E0,5.865368716E0
5.246316083E0,2.624731199E0,-5.013993854E0,-2.324092221E0,6.118067741E0
5.256339083E0,3.533988728E0,-4.532487924E0,-2.924089637E0,6.448474495E0
5.266362083E0,3.987220739E0,-3.171169581E0,-3.381001593E0,6.114361578E0
5.276385083E0,3.969095247E0,-2.278512590E0,-2.358074192E0,5.148383299E0
5.286408083E0,3.384368420E0,-2.453168921E0,-3.788245837E-1,4.197081775E0
5.296431083E0,2.494958095E0,-2.805309298E0,1.453630675E0,4.025868638E0
5.306454083E0,1.631069843E0,-3.116957706E0,3.391969800E0,4.886846969E0
5.316477083E0,1.087729315E0,-3.501024465E0,4.549745981E0,5.842988607E0
5.326500083E0,6.598332164E-1,-4.132796820E0,4.568385150E0,6.195605888E0
5.336523083E0,-1.225494266E-1,-4.814948201E0,4.228012295E0,6.408965011E0
5.346546083E0,-1.116800940E0,-5.411070083E0,3.918116298E0,6.773371325E0
5.356569083E0,-1.956096534E0,-6.112389221E0,3.892984965E0,7.506193948E0
5.366593083E0,-2.561231314E0,-6.920611249E0,4.132562932E0,8.457709045E0
5.376616083E0,-3.022258540E0,-7.385332162E0,4.281792061E0,9.055988134E0
5.386639083E0,-3.286054797E0,-7.417104762E0,4.333378537E0,9.197269634E0
5.396662083E0,-3.349999363E0,-6.902125862E0,4.215297525E0,8.753888871E0
5.406685083E0,-3.329684382E0,-5.791833165E0,3.533484990E0,7.557621694E0
5.416708083E0,-3.294204062E0,-3.982754928E0,2.336779071E0,5.672270590E0
5.426731083E0,-3.036245373E0,-1.439595019E0,1.244632184E0,3.583340488E0
5.436754083E0,-2.530575532E0,7.102343881E-1,7.411565110E-1,2.730853050E0
5.446777083E0,-1.847836944E0,2.100947853E0,5.874302879E-1,2.858943441E0
5.456800083E0,-1.298944485E0,2.838888103E0,8.829538295E-1,3.244402858E0
5.466823083E0,-1.597713670E0,3.482253733E0,2.941190988E0,4.830050151E0
5.476846083E0,-1.416395898E0,4.075277760E0,5.079029510E0,6.664128370E0
5.486869083E0,-4.341622672E-1,4.381714545E0,7.047199960E0,8.309689916E0
5.496892083E0,8.554042344E-1,4.184132450E0,7.680626493E0,8.788100141E0
5.506915083E0,1.478469062E0,3.618329551E0,7.092881917E0,8.098589593E0
5.516939083E0,1.703264391E0,3.024979835E0,5.962196470E0,6.899231793E0
5.526962083E0,1.793013304E0,3.182304434E0,5.292151750E0,6.430305464E0
5.536985083E0,1.657314047E0,4.031832948E0,5.654219529E0,7.139507354E0
5.547008083E0,1.556552488E0,5.157742973E0,6.550088981E0,8.481086834E0
5.557031083E0,1.603595969E0,6.262658570E0,7.804664648E0,1.013435754E1
5.567054208E0,1.615734643E0,7.248420777E0,8.414888259E0,1.122321463E1
5.577077208E0,1.492377250E0,8.177169707E0,8.118064882E0,1.161878960E1
5.587100208E0,1.268031279E0,8.754314450E0,7.344651328E0,1.149738353E1
5.597123208E0,9.280074301E-1,8.833420261E0,5.948381254E0,1.068989012E1
5.607146208E0,5.311062522E-1,8.415356621E0,4.148603014E0,9.397404316E0
5.617169208E0,1.659121860E-1,7.543867135E0,2.199130206E0,7.859620339E0
5.627192208E0,3.368191367E-1,6.805643880E0,-3.047896242E-1,6.820786792E0
5.637215208E0,6.018385582E-1,6.145752849E0,-4.012367567E0,7.364209477E0
5.647238208E0,3.924191043E-1,4.666806654E0,-8.867653370E0,1.002837741E1
5.657261208E0,-5.123636968E-1,1.220157201E0,-1.327652531E1,1.334231706E1
5.667284208E0,-2.155785673E0,-3.782388389E0,-1.605130278E1,1.663124153E1
5.677307208E0,-4.199224114E0,-8.414415219E0,-1.365299829E1,1.657830597E1
5.687331208E0,-6.714112735E0,-1.263754275E1,-7.918929182E0,1.635531216E1
5.697354208E0,-8.981315641E0,-1.476819212E1,-5.709259955E0,1.820327384E1
5.707377208E0,-9.332136301E0,-1.266212445E1,-6.940247954E0,1.719259158E1
5.717400208E0,-5.993616484E0,-6.696745335E0,-7.006247815E0,1.139549670E1
5.727423208E0,-2.605679508E0,-1.962445441E0,-5.977131429E0,6.809321400E0
5.737446208E0,9.279260807E-2,1.118642521E-1,-4.222183206E0,4.224684024E0
5.747469208E0,2.267847269E0,1.015846131E0,-4.670870469E0,5.290756612E0
5.757492208E0,3.709773280E0,1.535599868E0,-5.004889739E0,6.416338991E0
5.767515208E0,4.789082458E0,1.355073516E0,-4.225941212E0,6.529174079E0
5.777538208E0,4.757770326E0,1.155251938E0,-3.438798688E0,5.983002752E0
5.787561208E0,3.704471902E0,1.132993927E0,5.271241522E-1,3.909558438E0
5.797584208E0,2.399041246E0,1.346986817E0,6.879949712E0,7.409688281E0
5.807607208E0,5.889758166E-1,1.645229314E0,1.518866189E1,1.528885614E1
5.817630208E0,-9.518579303E-1,1.715970683E-1,1.808875455E1,1.811459413E1
5.827653208E0,-1.642062754E0,-1.916865225E0,1.527149355E1,1.547867105E1
5.837676208E0,-3.398431558E0,-4.502648413E0,8.728980219E0,1.039318409E1
5.847699208E0,-8.183211050E0,-5.709176340E0,3.799184516E0,1.067677107E1
5.857723208E0,-1.089762889E1,-4.076926675E0,3.974173554E0,1.229527153E1
5.867746208E0,-1.161731589E1,-3.180744982E0,2.068043524E0,1.222112806E1
5.877769208E0,-1.046311528E1,-3.010269409E0,-8.782664090E-2,1.088789313E1
5.887792208E0,-6.679175037E0,-2.768916813E0,-2.459274584E-1,7.234553186E0
5.897815208E0,-3.655652329E0,-2.262284812E0,5.837009338E-1,4.338482834E0
5.907838208E0,-1.992104858E0,-2.076753829E0,2.457447914E0,3.784235521E0
5.917861208E0,-7.081067325E-1,-1.846288748E0,4.273733721E0,4.709033574E0
5.927884208E0,4.006465387E-1,-1.869187029E0,4.988997592E0,5.342702946E0
5.937907208E0,1.284846264E0,-1.821079647E0,5.569086993E0,5.998490721E0
5.947930208E0,1.832850531E0,-1.282757492E0,5.687794826E0,6.111940595E0
5.957953208E0,2.090371556E0,-1.828289849E-1,4.603559661E0,5.059233265E0
5.967976208E0,2.085232292E0,1.369372882E0,3.052991506E0,3.942604842E0
5.977999208E0,2.352612600E0,2.912781706E0,2.218695428E0,4.352205500E0
5.988022208E0,2.705529487E0,4.450754959E0,1.491370944E0,5.417868289E0
5.998045208E0,2.884938435E0,6.020527709E0,3.306086627E-1,6.684229631E0
6.008068208E0,3.062875639E0,7.192245407E0,-1.212696154E0,7.910766912E0
6.018092208E0,3.450655088E0,7.668008201E0,-2.103879063E0,8.667853103E0
6.028115208E0,3.923734303E0,7.366069095E0,-2.180252470E0,8.626016787E0
6.038138208E0,3.273759857E0,5.890406111E0,-2.244137979E0,7.102854568E0
6.048161208E0,2.053288953E0,3.699945572E0,-2.686142166E0,5.012080655E0
6.058184208E0,1.103747543E0,1.596883950E0,-3.261708453E0,3.795660552E0
6.068207208E0,1.431112883E-1,-1.766198266E-1,-3.840536610E0,3.847258356E0
6.078230208E0,-3.359341240E-1,-1.306956194E0,-4.091481564E0,4.308271999E0
6.088253208E0,4.831143161E-2,-1.397968690E0,-3.866335695E0,4.111593628E0
6.098276208E0,9.376060000E-1,-1.035053650E0,-2.829279374E0,3.155196166E0
6.108299208E0,1.641711337E0,-4.222046381E-1,-2.054916964E0,2.663861220E0
6.118322208E0,2.228077870E0,1.451126897E-1,-1.472937304E0,2.674870649E0
6.128345208E0,2.495157777E0,4.448561668E-1,-8.783985561E-1,2.682404400E0
6.138368208E0,2.731904815E0,7.770943755E-1,-9.824143830E-1,3.005381441E0
6.148391208E0,3.031510297E0,7.177866518E-1,-2.274613667E0,3.857348791E0
6.158414208E0,2.817351054E0,-4.379874426E-1,-3.641121121E0,4.624614900E0
6.168437208E0,1.980624142E0,-1.795896859E0,-4.280120635E0,5.046538434E0
6.178460208E0,1.526861496E0,-2.279216595E0,-5.010936345E0,5.712759173E0
6.188484208E0,1.161903877E0,-2.633120492E0,-5.600571325E0,6.296804214E0
6.198507208E0,8.177834681E-1,-3.383628747E0,-5.734823397E0,6.708644624E0
6.208530208E0,7.011679879E-1,-4.785313928E0,-5.453588111E0,7.289203607E0
6.218553208E0,6.874503469E-1,-6.173306683E0,-5.081974168E0,8.025507138E0
6.228576208E0,6.528609234E-1,-7.187421454E0,-4.774858814E0,8.653584877E0
6.238599208E0,6.119987532E-1,-7.478151448E0,-4.774985113E0,8.893692955E0
6.248622208E0,1.155297839E0,-6.842819307E0,-5.073580490E0,8.596517211E0
6.258645208E0,2.634945992E0,-6.134083561E0,-5.022005124E0,8.354068289E0
6.268668208E0,4.042424594E0,-5.953057272E0,-4.850713573E0,8.678105188E0
6.278691208E0,4.540253611E0,-5.594448121E0,-4.966555978E0,8.750910291E0
6.288714208E0,4.440637522E0,-4.742409398E0,-4.497149399E0,7.901522715E0
6.298737208E0,4.039832523E0,-3.828163317E0,-3.138580125E0,6.389504394E0
6.308760208E0,3.423985645E0,-3.440236226E0,-1.735760000E0,5.154780865E0
6.318783208E0,2.260085528E0,-3.325351303E0,6.251620781E-1,4.069001782E0
6.328806208E0,1.052061373E0,-3.264689949E0,3.392087329E0,4.824032550E0
6.338829208E0,3.060096640E-1,-3.633995996E0,4.381260216E0,5.700439448E0
6.348852208E0,-5.901452963E-1,-3.754567922E0,3.952568092E0,5.483415566E0
6.358875208E0,-1.552925168E0,-3.773118213E0,3.416722233E0,5.321840701E0
6.368899208E0,-2.245779146E0,-4.161946945E0,3.250886427E0,5.738779391E0
6.378922208E0,-2.592885801E0,-4.741230599E0,3.230640442E0,6.295979831E0
6.388945208E0,-2.722413029E0,-5.403807841E0,3.228508548E0,6.858275244E0
6.398968208E0,-2.697120021E0,-5.862235395E0,3.210955206E0,7.207669080E0
6.408991208E0,-2.532189071E0,-5.934612231E0,3.204001697E0,7.203973258E0
6.419014208E0,-2.355260365E0,-5.554411651E0,3.206252875E0,6.832188352E0
6.429037208E0,-2.202941421E0,-4.815459248E0,2.529062272E0,5.868368994E0
6.439060208E0,-2.091020304E0,-4.080340864E0,8.773162365E-1,4.668107889E0
6.449083208E0,-1.926800960E0,-2.610691742E0,-1.431912947E-1,3.247888092E0
6.459106208E0,-1.611337098E0,-6.615680122E-1,-4.520783553E-1,1.799570592E0
6.469129208E0,-1.119122943E0,1.091514364E0,-1.441864908E-2,1.563345024E0
6.479152208E0,-6.703771350E-1,2.570585105E0,8.927350518E-1,2.802550474E0
6.489175208E0,-1.049223792E0,4.160997941E0,5.409776094E0,6.905103317E0
6.499198208E0,-1.561021076E0,5.575697270E0,9.445658823E0,1.107906392E1
6.509221208E0,-1.130150865E0,5.262576533E0,9.962453284E0,1.132353426E1
6.519244208E0,-4.749214534E-1,4.777728919E0,8.976554838E0,1.017992047E1
6.529267208E0,5.441355298E-1,4.069294889E0,6.338857731E0,7.552242164E0
6.539290208E0,1.351930930E0,3.487706262E0,4.226965644E0,5.644382230E0
6.549313208E0,1.682789635E0,3.783273073E0,3.680661455E0,5.540054588E0
6.559337208E0,1.543625025E0,4.891567191E0,4.511630906E0,6.831180076E0
6.569363750E0,1.147637475E0,6.016861505E0,5.569532551E0,8.278851791E0
6.579386750E0,6.946780171E-1,6.912523965E0,6.337088948E0,9.403417541E0
6.589409750E0,2.929560657E-1,7.742790581E0,6.505967646E0,1.011752165E1
6.599432750E0,-7.420832947E-2,8.356989130E0,5.778701488E0,1.016061834E1
6.609455750E0,-4.683279137E-1,8.801959317E0,4.421633194E0,9.861270656E0
6.619478750E0,-5.360046840E-1,9.054073715E0,3.203231619E0,9.618952368E0
6.629501750E0,4.923896447E-2,8.861251838E0,2.206699426E0,9.132016808E0
6.639524750E0,8.261095378E-1,8.490947671E0,9.273052526E-1,8.581290366E0
6.649547750E0,1.272744574E0,7.939991437E0,-1.137269996E0,8.121374626E0
6.659570750E0,1.161810979E0,5.980066731E0,-5.402510344E0,8.142365803E0
6.669593750E0,3.686574452E-1,1.858790680E0,-1.230564777E1,1.245070192E1
6.679616750E0,-2.111757199E-1,-3.227996916E0,-1.454953549E1,1.490481608E1
6.689639750E0,-8.434593961E-1,-9.329738358E0,-1.189232915E1,1.513878906E1
6.699662750E0,-2.448259307E0,-1.377568807E1,-8.783983807E0,1.652034888E1
6.709685750E0,-4.533230520E0,-1.433640682E1,-8.040489287E0,1.705087116E1
6.719708750E0,-4.495095272E0,-9.084326039E0,-7.003220127E0,1.231973836E1
6.729731750E0,-1.852635169E0,-1.694304995E0,-5.005226539E0,5.599573126E0
6.739755750E0,-4.910194593E-1,1.753899232E0,-6.153346628E0,6.417237517E0
6.749778750E0,8.154781303E-1,3.149743629E0,-6.184380725E0,6.988022214E0
6.759801750E0,3.265726368E0,4.073891385E0,-2.968312714E-1,5.229691055E0
6.769824750E0,4.156858405E0,4.026452340E0,6.416694696E0,8.640935196E0
6.779847750E0,3.211386438E0,3.438838157E0,1.023099017E1,1.126107324E1
6.789870750E0,1.909577987E0,2.290398225E0,1.228888381E1,1.264551610E1
6.799893750E0,7.453613169E-1,-8.276792228E-1,1.220555864E1,1.225627505E1
6.809916750E0,-1.143763621E0,-5.217253010E0,1.187454426E1,1.302047332E1
6.819939750E0,-4.664966535E0,-1.078970098E1,9.136037060E0,1.488780485E1
6.829962750E0,-9.310118026E0,-1.590788345E1,2.935746938E0,1.866434203E1
6.839985750E0,-1.168279067E1,-1.268394625E1,4.866278569E0,1.791788931E1
6.850008750E0,-1.065746386E1,-8.149998280E0,3.764627179E0,1.393472015E1
6.860031750E0,-7.131201060E0,-4.096750490E0,1.339310885E0,8.332535435E0
6.870054750E0,-3.439740382E0,-1.011663617E0,1.890252793E-1,3.590404953E0
6.880077750E0,-1.891406741E0,1.012275821E-1,-2.195454061E-2,1.894240873E0
6.890100750E0,-1.335668800E0,5.716121078E-2,2.239397348E0,2.608098739E0
6.900123750E0,-7.486549073E-1,-2.982483441E-1,4.790043740E0,4.857360938E0
6.910146750E0,-1.969999313E-1,-2.900803685E-1,5.838005118E0,5.848526255E0
6.920169750E0,4.824352351E-1,-8.990152538E-2,6.502161108E0,6.520653734E0
6.930192750E0,1.032859043E0,1.976616168E-1,5.827374880E0,5.921500309E0
6.940216750E0,1.234220193E0,6.489450431E-1,4.201837234E0,4.427173511E0
6.950239750E0,1.466148541E0,1.388511989E0,3.108500293E0,3.706795268E0
6.960262750E0,1.936726901E0,2.508516911E0,2.598648816E0,4.098358678E0
6.970285750E0,2.266925455E0,3.804731770E0,2.028092716E0,4.871149240E0
6.980308750E0,2.522100285E0,5.146971817E0,1.226350572E0,5.861420004E0
6.990331750E0,2.906550621E0,6.588291180E0,-5.275346267E-1,7.220243068E0
7.000354750E0,3.003067979E0,7.601314859E0,-2.515038310E0,8.551246843E0
7.010377750E0,2.389738911E0,7.783733370E0,-3.375374817E0,8.814222166E0
7.020400750E0,1.557900417E0,7.033835564E0,-3.236070167E0,7.897724139E0
7.030423750E0,8.902993941E-1,5.674169059E0,-2.448500651E0,6.243715477E0
7.040446750E0,-2.308923849E-1,4.053319711E0,-1.758736195E0,4.424462112E0
7.050469750E0,-1.308369466E0,2.226121538E0,-1.242221231E0,2.865407710E0
7.060492750E0,-1.634438131E0,4.343317634E-1,-1.108444977E0,2.022049048E0
7.070515750E0,-1.262144887E0,-8.225634938E-1,-1.397782457E0,2.055095184E0
7.080538750E0,-6.917209339E-1,-1.813360153E0,-2.647029848E0,3.282304055E0
7.090561750E0,2.766735070E-1,-2.303690116E0,-3.924322240E0,4.558929855E0
7.100584750E0,1.484428252E0,-1.671946412E0,-2.932405839E0,3.687537938E0
7.110607750E0,2.068579129E0,-1.179376380E0,-1.690501966E0,2.920230326E0
7.120630750E0,2.939042721E0,-7.120528722E-1,-2.319357438E0,3.811090439E0
7.130653750E0,4.077041865E0,-8.846252561E-2,-4.332744406E0,5.950022695E0
7.140676750E0,4.917841070E0,6.778267801E-2,-5.931030226E0,7.704990255E0
7.150700750E0,5.254565263E0,-7.826492304E-1,-6.509437383E0,8.402128954E0
7.160723750E0,4.752152613E0,-2.770116661E0,-7.633481562E0,9.408854422E0
7.170746750E0,3.257851630E0,-4.721701484E0,-7.982526423E0,9.829994417E0
7.180769750E0,2.202085973E0,-5.271028098E0,-5.306526545E0,7.796931692E0
7.190792750E0,1.920572945E0,-5.389809022E0,-2.548462164E0,6.263649187E0
7.200815750E0,1.335054258E0,-5.073624344E0,-2.325218102E0,5.738525340E0
7.210838750E0,9.046959700E-1,-4.404928576E0,-4.059045012E0,6.057864060E0
7.220861750E0,1.173409516E0,-3.780776312E0,-5.517782353E0,6.790955861E0
7.230884750E0,1.987615365E0,-3.653606973E0,-5.650382001E0,7.016143921E0
7.240907750E0,3.003124989E0,-4.344829139E0,-4.541492051E0,6.965733989E0
7.250930750E0,3.390033202E0,-5.633830288E0,-3.148430929E0,7.290060778E0
7.260953750E0,3.121320021E0,-5.804428067E0,-3.033437247E0,7.255051026E0
7.270976750E0,3.227767705E0,-4.099075343E0,-3.290840159E0,6.168511326E0
7.280999750E0,3.828010120E0,-2.186480339E0,-2.444737821E0,5.040942448E0
7.291022750E0,4.064415388E0,-1.507623280E0,-9.032217407E-1,4.428115842E0
7.301045750E0,3.458249451E0,-1.997132294E0,1.152097511E0,4.156363235E0
7.311068750E0,1.592218457E0,-2.823793516E0,3.965843611E0,5.122195328E0
7.321091750E0,4.199265629E-2,-3.862828535E0,5.005350500E0,6.322716291E0
7.331114750E0,-7.250901166E-1,-5.332418600E0,4.255087243E0,6.860481853E0
7.341137750E0,-1.105075153E0,-6.678449982E0,3.627793270E0,7.680089145E0
7.351160750E0,-1.415416928E0,-7.671370935E0,3.352595235E0,8.490773340E0
7.361183750E0,-1.612735752E0,-8.328786255E0,3.395651207E0,9.137835860E0
7.371207750E0,-1.831967162E0,-8.522008665E0,3.539024935E0,9.407732610E0
7.381230750E0,-2.050436535E0,-8.509130173E0,3.834820372E0,9.555910923E0
7.391253750E0,-2.099336215E0,-8.082843593E0,3.959024588E0,9.241939666E0
7.401276750E0,-1.690875603E0,-7.853212910E0,2.728296790E0,8.483844452E0
7.411299750E0,-1.158409727E0,-7.276033668E0,7.740652254E-1,7.408222189E0
7.421322750E0,-9.818553161E-1,-5.056983168E0,-4.575924258E-1,5.171702761E0
7.431345750E0,-7.179538822E-1,-2.543181544E0,-6.386878574E-1,2.718667380E0
7.441368750E0,-4.423204487E-1,-6.650500292E-1,8.158269167E-2,8.028665245E-1
7.451391750E0,-5.644178033E-1,8.007504559E-1,2.779239779E0,2.946852983E0
7.461414750E0,-1.474784732E0,2.146566660E0,7.546849215E0,7.983587634E0
7.471437750E0,-1.012355343E0,3.214336066E0,7.110943966E0,7.869075154E0
7.481460750E0,-1.285545152E0,3.636080528E0,4.466036072E-1,3.882417125E0
7.491483750E0,2.716301739E-1,2.921393486E0,6.162410397E0,6.825219758E0
7.501506750E0,5.409414517E-1,3.423500326E0,1.114847912E1,1.167482586E1
7.511529750E0,-1.859359760E-1,4.301891865E0,1.005946795E1,1.094229141E1
7.521552750E0,-3.359382536E-1,4.495160469E0,7.988751369E0,9.172756978E0
7.531575750E0,-2.314880883E-1,4.309635333E0,6.293648813E0,7.631288150E0
7.541598750E0,-1.413584484E-1,4.771477661E0,5.913179846E0,7.599518220E0
7.551621750E0,-4.895321835E-1,6.124244451E0,6.303109608E0,8.801999920E0
7.561644750E0,-1.278768814E0,7.486559744E0,7.095930655E0,1.039403956E1
7.571663958E0,-1.865803830E0,8.598265713E0,7.751906975E0,1.172618689E1
7.581686958E0,-2.325094141E0,9.455071086E0,7.679914302E0,1.240102882E1
7.591709958E0,-2.529593199E0,1.011497089E1,6.436809703E0,1.225332596E1
7.601733958E0,-2.403264544E0,1.054421850E1,4.799098738E0,1.183163441E1
7.611756958E0,-1.872701498E0,1.023171523E1,3.444365530E0,1.095712833E1
7.621779958E0,-1.027786949E0,8.928236371E0,2.295173646E0,9.275644063E0
7.631802958E0,7.847331597E-2,7.559791442E0,3.174950391E-2,7.560265388E0
7.641825958E0,9.238947909E-1,5.481113879E0,-4.039967009E0,6.871500882E0
7.651848958E0,3.989980259E-1,1.362491294E0,-1.134063032E1,1.142915036E1
7.661871958E0,-1.899142607E0,-4.455293568E0,-1.699900196E1,1.767547597E1
7.671894958E0,-3.736929211E0,-1.001353924E1,-1.547854345E1,1.881012800E1
7.681917958E0,-3.782962001E0,-1.401545315E1,-1.167661718E1,1.863027421E1
7.691940958E0,-2.582078392E0,-1.421349484E1,-8.200453904E0,1.661138190E1
7.701963958E0,-5.557438974E-1,-8.982386851E0,-7.427448487E0,1.166872383E1
7.711986958E0,1.187105522E0,-2.178560870E0,-6.185520347E0,6.664533664E0
7.722009958E0,2.149827653E0,1.670735453E0,-5.966390678E0,6.558272152E0
7.732032958E0,2.693528369E0,2.504568286E0,-1.084705164E1,1.145366696E1
7.742055958E0,4.275178860E0,1.804878767E0,-1.281731540E1,1.363151920E1
7.752078958E0,6.299879022E0,3.082991230E-1,-4.508570473E0,7.753111101E0
7.762101958E0,5.540221043E0,-1.766085414E0,8.122997008E0,9.989804167E0
7.772124958E0,2.160163776E0,-3.701601503E0,1.811913084E1,1.861910480E1
7.782147958E0,-9.957335363E-1,-5.731167718E0,2.531779590E1,2.597746250E1
7.792170958E0,-1.268330072E0,-7.138512418E0,2.257634522E1,2.371198819E1
7.802193958E0,-3.324437383E0,-8.777478195E0,2.498457361E0,9.712790359E0
7.812216958E0,-9.467753112E0,-1.037792251E1,-1.171397855E1,1.829089714E1
7.822239958E0,-1.097871457E1,-4.093730988E0,-2.197128119E0,1.192133293E1
7.832263958E0,-9.670855563E0,-1.296055230E0,1.543263813E0,9.878606667E0
7.842286958E0,-6.640805023E0,-1.166818315E0,5.716491206E0,8.839684839E0
7.852309958E0,-2.964905833E0,-6.474399698E-1,7.433022637E0,8.028678013E0
7.862332958E0,-1.007978995E0,-6.302731293E-1,7.743419741E0,7.834144188E0
7.872355958E0,-9.642596555E-1,-2.170884061E0,7.912632900E0,8.261494641E0
7.882378958E0,-3.785868579E-1,-2.931837198E0,6.591375586E0,7.223934487E0
7.892401958E0,9.000863175E-1,-2.754965356E0,5.022489274E0,5.798740208E0
7.902424958E0,1.635776705E0,-3.039445846E0,5.047674401E0,6.114982693E0
7.912447958E0,1.902638365E0,-3.172654189E0,5.512031617E0,6.638392870E0
7.922470958E0,2.379152965E0,-2.171575786E0,5.095662500E0,6.028423222E0
7.932493958E0,3.185496137E0,-9.867293358E-2,3.940174334E0,5.067750563E0
7.942516958E0,3.593560161E0,2.062915224E0,2.790479590E0,4.995605088E0
7.952539958E0,3.647758588E0,4.056022879E0,1.399793022E0,5.631774570E0
7.962562958E0,4.180830235E0,6.191641213E0,-1.612205994E0,7.642968699E0
7.972585958E0,4.654603807E0,8.297455704E0,-5.083874513E0,1.078697770E1
7.982608958E0,4.299992397E0,9.383164952E0,-6.070312073E0,1.197423934E1
7.992631958E0,3.375522167E0,8.886527597E0,-5.061748064E0,1.076967112E1
8.002654958E0,2.089539059E0,6.971075644E0,-2.542031981E0,7.708696109E0
8.012677958E0,7.501732830E-1,4.208018326E0,-1.439043626E-2,4.274387122E0
8.022700958E0,-3.366749297E-1,1.979461423E0,6.820255195E-1,2.120560384E0
8.032723958E0,-1.156031664E0,5.097625995E-1,-5.758870071E-1,1.388493054E0
8.042746958E0,-1.698363109E0,-2.572020596E-1,-2.729807126E0,3.225280932E0
8.052769958E0,-1.789796751E0,-5.062443298E-1,-3.806564872E0,4.236695865E0
8.062792958E0,-1.377586174E0,-6.133793539E-1,-3.711910729E0,4.006527070E0
8.072816958E0,-7.338368203E-1,-5.218499637E-1,-2.986575907E0,3.119371653E0
8.082839958E0,-3.088339240E-1,-6.926026940E-3,-1.868856077E0,1.894214718E0
8.092862958E0,-2.736215345E-1,7.315012962E-1,-7.098069566E-1,1.055361931E0
8.102885958E0,-2.396125386E-1,1.350769966E0,-3.488510254E-1,1.415517823E0
8.112908958E0,2.706529214E-1,1.439628932E0,-7.985334840E-1,1.668364526E0
8.122931958E0,1.200736405E0,8.921365893E-1,-1.394491059E0,2.045062572E0
8.132954958E0,1.736170474E0,-2.708734345E-1,-1.794942885E0,2.511867890E0
8.142977958E0,2.003774146E0,-1.921499729E0,-2.917732252E0,4.027459935E0
8.153000958E0,2.084668620E0,-3.857435063E0,-4.691371391E0,6.421418383E0
8.163023958E0,2.156395099E0,-5.708508587E0,-6.224885557E0,8.717012695E0
8.173046958E0,2.363035262E0,-7.105924716E0,-6.766658739E0,1.009285748E1
8.183069958E0,2.905142319E0,-7.389697693E0,-6.949252666E0,1.055175798E1
8.193092958E0,3.526982594E0,-6.439461415E0,-6.657059113E0,9.910736883E0
8.203115958E0,3.940412608E0,-5.000783240E0,-6.106233273E0,8.821608091E0
8.213138958E0,4.177999598E0,-3.988468242E0,-6.058710612E0,8.370874138E0
8.223161958E0,4.356650163E0,-3.405762797E0,-5.895308416E0,8.082962464E0
8.233184958E0,4.738839380E0,-3.418659416E0,-4.833224843E0,7.583132154E0
8.243207958E0,5.394602569E0,-3.934945169E0,-3.656430301E0,7.612818986E0
8.253230958E0,5.777015736E0,-4.895433370E0,-3.256397135E0,8.242772652E0
8.263253958E0,5.708913800E0,-5.344764411E0,-3.595567510E0,8.607340420E0
8.273276958E0,4.821925976E0,-4.479277092E0,-3.283519737E0,7.355025170E0
8.283299958E0,3.360718186E0,-3.841669216E0,-1.610524920E0,5.352255563E0
8.293322958E0,2.001864884E0,-3.883354016E0,9.153861420E-1,4.463836155E0
8.303345958E0,7.391703580E-1,-4.386991072E0,4.681941587E0,6.458532380E0
8.313368958E0,-1.491658517E-1,-4.980375872E0,6.709440810E0,8.357211871E0
8.323391958E0,-4.484394137E-1,-5.108767279E0,6.471342189E0,8.257049760E0
8.333415958E0,-6.116853424E-1,-4.728936828E0,5.449218487E0,7.240924292E0
8.343438958E0,-8.331251733E-1,-4.475534874E0,4.571954876E0,6.451920749E0
8.353461958E0,-1.118810044E0,-4.930171679E0,4.284388225E0,6.626787393E0
8.363484958E0,-1.456497565E0,-6.063632213E0,4.626048052E0,7.764621134E0
8.373507958E0,-1.940739115E0,-7.358661257E0,5.039204124E0,9.127428006E0
8.383530958E0,-2.305735179E0,-8.011751391E0,5.065654589E0,9.755277110E0
8.393553958E0,-2.390065185E0,-7.880969642E0,4.725662388E0,9.494944923E0
8.403576958E0,-2.174713987E0,-7.185412935E0,4.079140138E0,8.543940791E0
8.413599958E0,-1.996652676E0,-6.119573695E0,2.062462357E0,6.759404936E0
8.423622958E0,-2.416116578E0,-3.801140410E0,-1.389956251E-1,4.506174377E0
8.433645958E0,-2.852121814E0,-1.436778415E0,-6.557953486E-1,3.260214501E0
8.443668958E0,-2.824394318E0,1.599891758E-1,-7.526360571E-2,2.829923039E0
8.453691958E0,-3.033525248E0,1.190624084E0,2.144700522E0,3.901230763E0
8.463714958E0,-3.655380141E0,2.616465282E0,5.724522942E0,7.278588974E0
8.473737958E0,-2.668615429E0,3.990181476E0,5.889161823E0,7.597715677E0
8.483760958E0,-2.020671722E0,4.658873152E0,6.631885681E0,8.352851066E0
8.493783958E0,-1.030747614E0,4.676943387E0,6.406426985E0,7.998659063E0
8.503806958E0,-1.062485131E-1,4.910543745E0,5.737303786E0,7.552574617E0
8.513829958E0,2.032381795E-1,5.141388311E0,5.274910650E0,7.368843999E0
8.523852958E0,2.403896701E-1,5.549335683E0,6.062920607E0,8.222646776E0
8.533875958E0,3.315178682E-1,6.492828367E0,6.839947155E0,9.436715604E0
8.543898958E0,6.000242768E-1,7.562311007E0,7.477519364E0,1.065184833E1
8.553921958E0,6.687647653E-1,8.526687607E0,8.202658889E0,1.185053841E1
8.563944958E0,6.446374724E-1,9.163585632E0,8.381560884E0,1.243532959E1
8.573968833E0,6.527964579E-1,9.502321267E0,8.270471973E0,1.261431565E1
8.583991833E0,6.114594572E-1,9.377706576E0,7.977257497E0,1.232687716E1
8.594014833E0,5.180480675E-1,8.710729889E0,7.572961126E0,1.155400057E1
8.604037833E0,5.894391719E-1,7.764635779E0,7.045223601E0,1.050105628E1
8.614060833E0,9.017454650E-1,6.925846261E0,6.280431182E0,9.392779522E0
8.624083833E0,1.324727783E0,6.412946046E0,4.853549765E0,8.150934057E0
8.634107833E0,1.678952838E0,6.038481585E0,2.610071937E0,6.789301731E0
8.644130833E0,1.520213212E0,5.180265863E0,-5.956245759E-1,5.431479656E0
8.654153833E0,8.737707042E-1,3.132629998E0,-5.563382449E0,6.444227667E0
8.664176833E0,-5.707019886E-1,-1.151167658E0,-1.332328081E1,1.338509243E1
8.674199833E0,-2.994819311E0,-6.940529789E0,-2.081087902E1,2.214119649E1
8.684222833E0,-5.204917139E0,-1.287528586E1,-1.819267829E1,2.288750077E1
8.694245833E0,-6.538880453E0,-1.746724231E1,-1.060682347E1,2.145614633E1
8.704268833E0,-7.874096240E0,-1.695642253E1,-8.467276973E0,2.052355807E1
8.714291833E0,-6.679632289E0,-1.041864019E1,-1.026777617E1,1.608082020E1
8.724314833E0,-3.822876264E0,-2.333668790E0,-6.366149025E0,7.783845217E0
8.734337833E0,-9.273972000E-1,3.551062013E0,-1.491477948E0,3.961642772E0
8.744360833E0,1.146694319E0,5.562959111E0,-2.390975597E0,6.162644419E0
8.754383833E0,1.989050711E0,4.723295435E0,-4.191385044E0,6.620691133E0
8.764406833E0,3.750125207E0,2.584315537E0,-2.257816370E0,5.083292302E0
8.774429833E0,5.113594156E0,-2.236875737E-1,1.622046858E0,5.369349805E0
8.784452833E0,4.455980031E0,-1.647168251E0,6.739262195E0,8.245397274E0
8.794475833E0,3.099370451E0,-8.652078223E-1,1.427700145E1,1.463514442E1
8.804498833E0,2.483563333E0,-2.604712379E-1,1.840309853E1,1.857175187E1
8.814521833E0,1.332628102E0,-9.035877764E-1,1.487614225E1,1.496302031E1
8.824544833E0,-2.549503554E0,-7.297770692E0,1.697929099E0,7.914568129E0
8.834567833E0,-9.120468264E0,-1.221348630E1,-1.255040520E1,1.974499581E1
8.844590833E0,-1.121033798E1,-7.114411365E0,-3.440913919E0,1.371591832E1
8.854613833E0,-1.179306682E1,-4.284987565E0,4.068589130E-1,1.255400643E1
8.864636833E0,-1.070899070E1,-2.649137185E0,1.306075896E0,1.110883629E1
8.874659833E0,-6.366960034E0,-8.549097061E-1,3.671640663E0,7.399324012E0
8.884682833E0,-2.174576285E0,4.664253759E-1,6.686816179E0,7.046974192E0
8.894705833E0,-1.454546788E0,-1.915255487E-1,9.561555315E0,9.673454835E0
8.904728833E0,-1.190452176E0,-9.699864185E-1,9.846888914E0,9.965905444E0
8.914751833E0,-3.327736309E-1,-1.324321255E0,9.238797197E0,9.339161565E0
8.924774833E0,4.960327524E-1,-1.626483725E0,8.415675294E0,8.585749150E0
8.934797833E0,1.491051247E0,-1.439468719E0,6.284919505E0,6.617818160E0
8.944820833E0,2.981670385E0,-1.228815758E0,5.100286478E0,6.034340777E0
8.954844833E0,4.482620822E0,-4.186851990E-1,4.120777284E0,6.103277165E0
8.964867833E0,5.176005582E0,1.008897884E0,3.203224018E0,6.170052903E0
8.974890833E0,6.032401065E0,3.152459076E0,2.575706681E0,7.277508210E0
8.984913833E0,6.603350099E0,5.669997656E0,1.361575620E0,8.809483192E0
8.994936833E0,6.269149565E0,7.983356727E0,-2.032845333E0,1.035223073E1
9.004959833E0,5.319989174E0,9.186485667E0,-4.690797195E0,1.160592013E1
9.014982833E0,4.513843492E0,8.669974796E0,-4.096114898E0,1.059817924E1
9.025005833E0,3.679907456E0,7.016761109E0,-2.841650913E0,8.417341342E0
9.035028833E0,2.089621650E0,4.673319283E0,-2.146971434E0,5.551208706E0
9.045051833E0,-3.324580640E-3,2.229710559E0,-1.949117444E0,2.961533224E0
9.055074833E0,-1.290759407E0,9.764850140E-3,-2.011491155E0,2.390031771E0
9.065097833E0,-1.654349216E0,-1.656518533E0,-2.930073677E0,3.750500864E0
9.075120833E0,-1.391682934E0,-2.504198742E0,-3.592800023E0,4.595215417E0
9.085143833E0,-4.582711048E-1,-2.284814134E0,-3.425326411E0,4.142855182E0
9.095166833E0,4.739516927E-1,-1.773262872E0,-2.866150162E0,3.403514091E0
9.105189833E0,7.981898139E-1,-9.643736762E-1,-2.202488846E0,2.533393117E0
9.115212833E0,4.255276839E-1,4.104622597E-1,-1.943665646E0,2.031597701E0
9.125235833E0,1.320681363E-2,1.430288005E0,-1.746126236E0,2.257178555E0
9.135258833E0,3.812742747E-2,2.011105385E0,-1.757876070E0,2.671352999E0
9.145281833E0,7.137741463E-1,2.194628434E0,-2.029749524E0,3.073393992E0
9.155304833E0,1.376611151E0,1.337695007E0,-2.008315094E0,2.778095698E0
9.165327833E0,1.463223032E0,-6.166315752E-1,-1.594589210E0,2.250326841E0
9.175350833E0,1.342360792E0,-2.416520328E0,-2.585573565E0,3.785061909E0
9.185373833E0,1.791996473E0,-4.004173864E0,-4.633716091E0,6.380907812E0
9.195396833E0,2.608492312E0,-5.572691801E0,-6.663180563E0,9.069570071E0
9.205419833E0,3.276567982E0,-6.807891549E0,-7.479957068E0,1.063169990E1
9.215442833E0,3.243716571E0,-7.505984194E0,-7.525971147E0,1.111313356E1
9.225465833E0,2.987157120E0,-7.352856141E0,-7.721045955E0,1.107258559E1
9.235488833E0,3.166862815E0,-6.650263479E0,-7.819118965E0,1.074214345E1
9.245511833E0,4.073938748E0,-6.080073999E0,-6.884287176E0,1.004777023E1
9.255534833E0,5.579664606E0,-6.005681629E0,-5.456853197E0,9.847746735E0
9.265557833E0,6.774463602E0,-6.427433692E0,-4.425216952E0,1.033381856E1
9.275580833E0,6.451517789E0,-6.458457264E0,-3.936770377E0,9.941424094E0
9.285603833E0,4.995186870E0,-5.765344108E0,-2.835401409E0,8.138217600E0
9.295626833E0,3.728903908E0,-4.854071336E0,-1.458406096E0,6.292351010E0
9.305650833E0,2.565780448E0,-4.045263417E0,1.053803916E0,4.904884108E0
9.315673833E0,1.374941040E0,-3.785434788E0,4.626860231E0,6.134151530E0
9.325696833E0,7.434722277E-1,-3.780169955E0,5.290909801E0,6.544934100E0
9.335719833E0,4.823440186E-1,-4.452399196E0,4.960050366E0,6.682710078E0
9.345742833E0,-1.251591029E-2,-5.306601974E0,4.805997868E0,7.159455054E0
9.355765833E0,-7.945984541E-1,-6.310854830E0,4.899055136E0,8.028637283E0
9.365788833E0,-1.612034525E0,-7.142950455E0,4.968312482E0,8.848984429E0
9.375811833E0,-2.381516264E0,-7.675708399E0,4.889739937E0,9.407320330E0
9.385834833E0,-2.850692755E0,-7.979222161E0,4.728302990E0,9.703158488E0
9.395857833E0,-2.995414266E0,-7.795072875E0,4.267285119E0,9.377920347E0
9.405880833E0,-2.918163484E0,-6.786156864E0,3.767140020E0,8.292101485E0
9.415903833E0,-2.714521919E0,-4.901363032E0,3.068293669E0,6.387989892E0
9.425926833E0,-2.765807848E0,-2.508055565E0,1.400649054E0,3.987712821E0
9.435949833E0,-2.668628001E0,3.808999068E-1,-5.744070768E-2,2.696286257E0
9.445972833E0,-2.242776747E0,2.647985283E0,-5.644858137E-1,3.515752811E0
9.455995833E0,-1.559824590E0,3.959622173E0,2.329124334E-1,4.262148368E0
9.466018833E0,-1.839915721E0,4.718790155E0,3.324794940E0,6.058591568E0
9.476041833E0,-1.875451297E0,5.348748119E0,4.760409174E0,7.401886214E0
9.486064833E0,-1.550939599E0,5.632980688E0,6.093759992E0,8.442144035E0
9.496087833E0,-8.410787753E-1,5.465228748E0,7.124522370E0,9.018589567E0
9.506110833E0,-3.540867685E-1,4.975555428E0,7.894261533E0,9.338141914E0
9.516133833E0,-3.196105983E-1,4.720758328E0,7.900249082E0,9.208780901E0
9.526156833E0,-2.897451038E-1,4.632941920E0,7.768372734E0,9.049625296E0
9.536179833E0,-4.372730225E-1,4.965459040E0,8.253797468E0,9.642207414E0
9.546202833E0,-6.216886859E-1,5.718752909E0,7.995164595E0,9.849532403E0
9.556225833E0,-6.610082144E-1,6.503493689E0,7.714312887E0,1.011152735E1
9.566248833E0,-7.073979769E-1,7.191001119E0,8.023220120E0,1.079735940E1
9.576270833E0,-7.312584905E-1,7.741387834E0,8.162617741E0,1.127351555E1
9.586293833E0,-5.114925713E-1,7.842759842E0,7.725651807E0,1.102071697E1
9.596316833E0,-8.248251420E-2,7.412796534E0,6.592424576E0,9.920504907E0
9.606339833E0,1.856298925E-1,6.684239311E0,4.842119628E0,8.255884938E0
9.616362833E0,4.166192316E-2,5.723261113E0,2.794530541E0,6.369211444E0
9.626385833E0,-2.456973887E-1,4.695586064E0,8.414932698E-1,4.776715045E0
9.636408833E0,-4.669715790E-1,3.657042212E0,-1.599947307E0,4.018936623E0
9.646431833E0,-7.513987863E-1,2.415912217E0,-5.126417685E0,5.716763967E0
9.656454833E0,-1.305346163E0,5.121155190E-1,-9.898152623E0,9.996980357E0
9.666477833E0,-2.750377046E0,-2.453382345E0,-1.630676062E1,1.671807706E1
9.676500833E0,-5.001924031E0,-5.086835543E0,-1.536873508E1,1.694382359E1
9.686523833E0,-6.602680593E0,-7.881415200E0,-1.176059723E1,1.562125935E1
9.696546833E0,-6.781790748E0,-1.037325059E1,-1.169776539E1,1.704214566E1
9.706569833E0,-5.830194992E0,-9.421479417E0,-1.197725177E1,1.631594337E1
9.716593833E0,-3.456452309E0,-5.146726234E0,-9.428136472E0,1.128386507E1
9.726616833E0,-1.927373549E0,-1.692293553E0,-5.169774204E0,5.771065030E0
9.736639833E0,-6.773573948E-1,4.069305414E-1,-3.546143043E0,3.633116566E0
9.746662833E0,7.360029213E-1,1.812452080E0,-6.904099297E0,7.175881127E0
9.756685833E0,3.431585855E0,2.390955132E0,-4.993574792E0,6.513696119E0
9.766708833E0,6.299859726E0,1.786706790E0,1.066863380E0,6.634662854E0
9.776731833E0,6.666546221E0,1.029562529E0,8.985464240E0,1.123572005E1
9.786754833E0,5.318187062E0,6.549898946E-1,1.805267256E1,1.883112083E1
9.796777833E0,3.743732739E0,-7.859055448E-1,2.033355911E1,2.069025879E1
9.806800833E0,2.071900494E0,-2.841970755E0,1.580329079E1,1.618992185E1
9.816823833E0,3.079762288E-2,-4.315383731E0,1.067885648E1,1.151787572E1
9.826846833E0,-6.235788276E0,-9.017082474E0,-4.686746244E0,1.192302068E1
9.836869833E0,-1.035672753E1,-8.219188383E0,-1.553166658E0,1.331274538E1
9.846892833E0,-9.699088259E0,-5.256120622E0,2.209925043E0,1.125090600E1
9.856915833E0,-7.449454483E0,-3.934169828E0,3.371793398E0,9.074197212E0
9.866938833E0,-5.250215519E0,-2.920886532E0,3.886027363E0,7.155246313E0
9.876961833E0,-3.465888838E0,-2.393029724E0,3.757997606E0,5.644601200E0
9.886984833E0,-1.074698064E0,-2.119760100E0,5.145367341E0,5.667730047E0
9.897007833E0,1.106333986E0,-2.337947198E0,6.940273097E0,7.406575635E0
9.907030833E0,1.874318838E0,-2.486309186E0,6.696864034E0,7.385309226E0
9.917053833E0,2.016139253E0,-2.680474167E0,6.217405799E0,7.064410387E0
9.927076833E0,2.397993279E0,-2.621999672E0,5.121417730E0,6.233311609E0
9.937099833E0,2.824378530E0,-2.125847636E0,3.755835598E0,5.157775033E0
9.947122833E0,3.201708419E0,-1.119539484E0,2.643546077E0,4.300307119E0
9.957145833E0,3.830829940E0,3.970733052E-1,1.561001927E0,4.155677111E0
9.967168833E0,4.295849937E0,2.038601916E0,4.221968906E-1,4.773727545E0
9.977191833E0,4.367977389E0,3.559882538E0,-4.003728160E-1,5.649096259E0
9.987214833E0,4.032818788E0,4.784549696E0,-8.543495429E-1,6.315493355E0
9.997237833E0,2.760048048E0,5.125595566E0,-8.456933248E-1,5.882583814E0
1.000726083E1,1.267071167E0,4.561286631E0,-4.517208346E-1,4.755508047E0
1.001728383E1,-1.703506977E-1,3.981351011E0,-5.059771486E-1,4.016987442E0
1.002730683E1,-1.485203008E0,3.725200866E0,-1.454179729E0,4.265863119E0
1.003732983E1,-2.200540115E0,3.565810445E0,-2.416709778E0,4.837134180E0
1.004735283E1,-2.579051288E0,3.332034085E0,-3.148802227E0,5.260124729E0
1.005737583E1,-2.924698624E0,2.914674450E0,-3.647093174E0,5.509126774E0
1.006739883E1,-3.207160656E0,2.312164485E0,-4.023777823E0,5.641167614E0
1.007742183E1,-3.442781812E0,1.825090252E0,-4.340601017E0,5.833053936E0
1.008744483E1,-3.295389000E0,1.512188786E0,-3.375483283E0,4.953805707E0
1.009746783E1,-2.820314715E0,1.312095312E0,-2.053763162E0,3.727427038E0
1.010749083E1,-1.908825304E0,1.451640868E0,-1.738551461E0,2.961998722E0
1.011751383E1,-8.356046851E-1,1.525763097E0,-1.648387395E0,2.396532750E0
1.012753683E1,-2.293934329E-1,1.267883930E0,-1.642992754E0,2.087959817E0
1.013755983E1,4.069531994E-1,4.954445225E-1,-1.867669677E0,1.974655971E0
1.014758283E1,1.679458037E0,-1.005462645E0,-2.484029356E0,3.162583797E0
1.015760583E1,3.307569043E0,-2.959992710E0,-4.287721138E0,6.171395497E0
1.016762883E1,4.375152507E0,-4.846711446E0,-5.139310795E0,8.309337323E0
1.017765183E1,4.823110330E0,-6.155000805E0,-5.374864123E0,9.488708685E0
1.018767483E1,5.131037570E0,-6.603282856E0,-6.702958587E0,1.071730119E1
1.019769883E1,5.003463019E0,-6.238674461E0,-8.654985459E0,1.178407716E1
1.020772083E1,3.957173359E0,-5.315832388E0,-9.470934582E0,1.155923427E1
1.021774483E1,2.368324945E0,-4.673897572E0,-9.088420259E0,1.049064652E1
1.022776783E1,1.257119936E0,-4.316388867E0,-8.327368305E0,9.463436282E0
1.023779083E1,8.709587051E-1,-3.709230950E0,-7.263101966E0,8.201805501E0
1.024781383E1,1.055380471E0,-3.512756318E0,-5.466695230E0,6.583163497E0
1.025783683E1,1.650379249E0,-4.122316856E0,-3.497491285E0,5.652405967E0
1.026785983E1,2.475120246E0,-5.185210853E0,-2.723661995E0,6.358534932E0
1.027788283E1,3.131530722E0,-5.628323380E0,-3.380478267E0,7.274073278E0
1.028790583E1,3.126406514E0,-4.804077058E0,-1.863083121E0,6.026993677E0
1.029792883E1,2.425782610E0,-4.422818717E0,9.404360524E-1,5.131292882E0
1.030795183E1,1.663490022E0,-4.979572465E0,3.626024487E0,6.380548140E0
1.031797483E1,1.289902205E0,-4.619302704E0,4.566595902E0,6.622356326E0
1.032799783E1,1.095478630E0,-3.966448213E0,4.600127345E0,6.172030172E0
1.033802083E1,7.622726340E-1,-4.221169884E0,4.615597324E0,6.301037487E0
1.034804383E1,2.165835356E-1,-4.799089383E0,4.463555683E0,6.557552644E0
1.035806683E1,-3.516930646E-1,-5.792145991E0,4.491548059E0,7.338027470E0
1.036808983E1,-8.475921350E-1,-6.934843957E0,4.685930557E0,8.412396705E0
1.037811283E1,-1.279639757E0,-7.837643529E0,4.765414099E0,9.261495857E0
1.038813583E1,-1.535467574E0,-8.256178454E0,4.706677648E0,9.626783358E0
1.039815883E1,-1.559606781E0,-8.010486054E0,4.471768098E0,9.305749301E0
1.040818183E1,-1.415646724E0,-6.999899493E0,4.020491688E0,8.195547692E0
1.041820483E1,-1.110098423E0,-5.307275573E0,3.360831915E0,6.379238487E0
1.042822783E1,-4.901027621E-1,-3.683078109E0,1.408435353E0,3.973531832E0
1.043825083E1,1.368129691E-2,-1.908612465E0,-3.480631131E-1,1.940138307E0
1.044827383E1,1.594012383E-1,1.673350328E-1,-4.431417632E-1,4.997843438E-1
1.045829683E1,2.701267086E-1,1.741966819E0,4.190442181E-1,1.811909185E0
1.046831983E1,2.995833730E-2,2.838723212E0,2.114543799E0,3.539850626E0
1.047834283E1,-6.277863085E-1,3.964757783E0,5.594695458E0,6.885785155E0
1.048836583E1,-1.114239641E0,4.993993453E0,6.600668566E0,8.351666067E0
1.049838883E1,-1.055741245E0,5.307729317E0,7.248640632E0,9.045958826E0
1.050841183E1,-7.461048634E-1,5.736867583E0,7.714700557E0,9.642869221E0
1.051843483E1,-3.397222792E-1,6.274264124E0,7.312847153E0,9.641552521E0
1.052845783E1,-2.382425725E-1,6.738587426E0,6.788734902E0,9.568293557E0
1.053848083E1,-3.723396196E-1,7.135987591E0,6.788192280E0,9.855988541E0
1.054850383E1,-3.570397586E-2,7.732825171E0,6.818988395E0,1.031001759E1
1.055852683E1,5.380025315E-1,8.258019158E0,6.953801799E0,1.080924080E1
1.056854983E1,9.730537216E-1,8.832934942E0,7.611579062E0,1.170058584E1
1.057857321E1,1.274791976E0,9.072013557E0,8.279942123E0,1.234843983E1
1.058859621E1,1.125360826E0,8.504610860E0,8.581668391E0,1.213424391E1
1.059861921E1,7.875910778E-1,7.340602716E0,8.383617350E0,1.117093496E1
1.060864221E1,6.772611351E-1,6.355436341E0,7.460775862E0,9.824124907E0
1.061866521E1,5.852963465E-1,5.793274503E0,5.262898130E0,7.848738625E0
1.062868821E1,2.903173269E-1,5.392467166E0,1.935127249E0,5.736523665E0
1.063871121E1,-1.704388811E-1,4.671061088E0,-1.993416973E0,5.081493120E0
1.064873421E1,-1.035464343E0,3.108304412E0,-6.989875612E0,7.719592204E0
1.065875721E1,-2.597118600E0,-1.238440275E-3,-1.251717314E1,1.278376509E1
1.066878021E1,-5.058135070E0,-4.992073812E0,-1.644405207E1,1.791402746E1
1.067880321E1,-7.095747637E0,-9.068080720E0,-1.175972599E1,1.645815536E1
1.068882621E1,-7.371025195E0,-1.216281433E1,-7.778376735E0,1.621015760E1
1.069884921E1,-6.872610286E0,-1.333071029E1,-9.378143363E0,1.768870210E1
1.070887221E1,-3.994440588E0,-1.010303555E1,-1.216153028E1,1.630735116E1
1.071889521E1,-7.179027922E-1,-4.893195056E0,-1.093248999E1,1.199908662E1
1.072891821E1,1.580269818E0,-2.783128470E-1,-6.094609008E0,6.302298763E0
1.073894121E1,3.844790752E0,2.267564263E0,-4.170092116E0,6.108513065E0
1.074896421E1,5.042208424E0,1.763136079E0,-7.955188351E0,9.582146749E0
1.075898721E1,5.154253355E0,-1.657962795E0,-1.115759025E1,1.240189455E1
1.076901021E1,6.623673266E0,-4.699546968E0,-7.297443248E0,1.091840040E1
1.077903321E1,7.344690505E0,-4.744750623E0,6.101859555E0,1.066254318E1
1.078905621E1,4.905847262E0,-3.732927377E0,2.082295937E1,2.171630082E1
1.079907921E1,1.801372484E0,-2.562666221E0,2.610414116E1,2.629141279E1
1.080910221E1,3.651878536E-1,-2.410787718E0,1.983905541E1,1.998833107E1
1.081912521E1,-9.417392506E-1,-1.741315439E0,1.225467526E1,1.241354574E1
1.082914821E1,-6.519552482E0,-1.534878321E0,-1.767982251E0,6.927205588E0
1.083917121E1,-1.050411478E1,-8.554283541E-1,-1.943078293E0,1.071651708E1
1.084919421E1,-8.293186651E0,-3.775857049E-1,1.884521060E0,8.512986281E0
1.085921721E1,-6.763069718E0,-1.119079308E0,1.535893106E0,7.024985277E0
1.086924021E1,-5.374181753E0,-1.580214123E0,1.633385486E0,5.834968238E0
1.087926421E1,-3.565585327E0,-2.495174149E0,3.691624399E0,5.706783986E0
1.088928721E1,-1.554210970E0,-3.515755355E0,5.290473014E0,6.539511616E0
1.089931021E1,9.190204789E-1,-3.612870591E0,5.360955352E0,6.529722416E0
1.090933221E1,1.878285589E0,-3.674984978E0,4.782103514E0,6.316801830E0
1.091935621E1,2.010361619E0,-3.864356997E0,4.341807883E0,6.150293044E0
1.092937921E1,2.379665035E0,-3.560176653E0,4.077917193E0,5.913296214E0
1.093940221E1,2.914519791E0,-2.020204822E0,3.536873159E0,5.008505254E0
1.094942521E1,3.880446196E0,2.659816539E-1,3.201699064E0,5.037805654E0
1.095944821E1,3.881669433E0,2.247953871E0,2.585525326E0,5.177412037E0
1.096947121E1,3.906345560E0,3.926090730E0,1.935492700E0,5.866843790E0
1.097949421E1,3.901773622E0,5.505790883E0,1.105896760E0,6.838170683E0
1.098951721E1,3.497200678E0,6.827514220E0,-6.542882288E-1,7.698925646E0
1.099954021E1,3.067515990E0,7.785021511E0,-2.766485540E0,8.813039006E0
1.100956321E1,1.935964571E0,7.304292092E0,-3.916553337E0,8.511171002E0
1.101958621E1,4.214260814E-1,5.922963408E0,-4.149601133E0,7.244189743E0
1.102960921E1,-8.291501630E-1,4.711716194E0,-3.817836549E0,6.120754480E0
1.103963221E1,-1.809577297E0,3.490061520E0,-2.840966789E0,4.850380573E0
1.104965521E1,-2.425845760E0,2.007031045E0,-1.907289387E0,3.681121306E0
1.105967821E1,-2.794387576E0,6.586496669E-1,-1.795323978E0,3.386090592E0
1.106970121E1,-3.000462167E0,-1.524491912E-1,-2.192988875E0,3.719571773E0
1.107972421E1,-2.816843516E0,-5.803414160E-1,-2.651887715E0,3.912021473E0
1.108974721E1,-1.589461056E0,-6.187862742E-1,-3.055690581E0,3.499503940E0
1.109977021E1,8.793909017E-2,-6.282271886E-1,-2.628924530E0,2.704375504E0
1.110979321E1,9.385801461E-1,-5.074699062E-1,-1.135925136E0,1.558455746E0
1.111981621E1,1.105581668E0,-3.684587860E-1,2.463617603E-1,1.191119985E0
1.112983921E1,1.506744736E0,-8.667854011E-2,5.324188060E-1,1.600394530E0
1.113986221E1,2.218241830E0,2.068943703E-1,-4.416255802E-1,2.271218891E0
1.114988521E1,3.228900896E0,7.019582391E-3,-2.451176483E0,4.053901382E0
1.115990821E1,4.646013370E0,-1.006960117E0,-5.213612534E0,7.055576841E0
1.116993121E1,5.700186830E0,-2.950096298E0,-7.899048064E0,1.017792505E1
1.117995421E1,5.548926963E0,-5.364207573E0,-9.205547590E0,1.201280233E1
1.118997721E1,4.528325584E0,-6.949939713E0,-9.205976776E0,1.239182807E1
1.120000021E1,3.615871966E0,-7.052706867E0,-9.116956426E0,1.208031865E1
1.121002321E1,3.263846780E0,-6.071668627E0,-8.964436483E0,1.130835873E1
1.122004621E1,3.474792101E0,-5.418348697E0,-7.871320567E0,1.016810554E1
1.123006921E1,3.799175745E0,-5.622812380E0,-5.781670704E0,8.915013827E0
1.124009221E1,4.031376865E0,-6.434263825E0,-3.262105479E0,8.263962884E0
1.125011521E1,4.007762300E0,-7.116854331E0,-1.429683403E0,8.291909844E0
1.126013821E1,3.821544853E0,-6.630120991E0,-8.145533931E-1,7.695856460E0
1.127016121E1,3.759560567E0,-5.235171218E0,-6.525068745E-1,6.478200256E0
1.128018421E1,3.827323949E0,-4.080787591E0,-1.966273905E-1,5.598204918E0
1.129020721E1,3.252436231E0,-3.105522307E0,3.639739716E-1,4.511661256E0
1.130023021E1,2.382677521E0,-2.878463813E0,1.953817289E0,4.216646546E0
1.131025321E1,1.571768259E0,-3.307751184E0,4.406190405E0,5.729414214E0
1.132027621E1,1.032184859E0,-3.999551055E0,5.416023844E0,6.811396957E0
1.133029921E1,1.537751570E-1,-4.883672281E0,5.285954871E0,7.198279005E0
1.134032221E1,-1.032076467E0,-5.771843289E0,5.112439331E0,7.779228284E0
1.135034521E1,-2.009790346E0,-6.718225667E0,4.959125336E0,8.588756455E0
1.136036821E1,-2.742953129E0,-7.730029618E0,4.926794912E0,9.568200346E0
1.137039121E1,-3.165862064E0,-8.367032892E0,4.956495259E0,1.022725610E1
1.138041421E1,-3.349922180E0,-8.281316804E0,4.876582532E0,1.017758536E1
1.139043721E1,-3.313608924E0,-7.516543681E0,4.641095277E0,9.434945595E0
1.140046021E1,-3.060331223E0,-6.032802184E0,4.324654491E0,8.028883226E0
1.141048321E1,-2.645340003E0,-4.009925185E0,3.737198768E0,6.086376455E0
1.142050621E1,-2.343433494E0,-1.952373612E0,2.461290704E0,3.919361580E0
1.143052921E1,-2.191530726E0,1.939942431E-1,1.305613673E0,2.558333002E0
1.144055221E1,-1.948368123E0,1.799530903E0,1.626538981E0,3.111282512E0
1.145057521E1,-2.123305413E0,3.312440066E0,4.037025275E0,5.637220782E0
1.146059821E1,-1.535015731E0,4.336573455E0,4.263904844E0,6.272402024E0
1.147062121E1,-9.335777801E-1,4.646999795E0,4.503196297E0,6.537962333E0
1.148064421E1,-3.101677470E-1,4.512810874E0,4.427680384E0,6.329772476E0
1.149066721E1,6.743179391E-1,4.445709397E0,4.599438836E0,6.432252663E0
1.150069021E1,1.407790843E0,4.580164366E0,5.306000880E0,7.149365428E0
1.151071321E1,1.595354611E0,4.799236733E0,6.648422776E0,8.353403795E0
1.152073621E1,1.256656398E0,5.211108756E0,7.705311683E0,9.386515216E0
1.153075921E1,1.154070654E0,6.046399884E0,8.433123971E0,1.044070929E1
1.154078221E1,1.194604577E0,7.020585188E0,8.968007963E0,1.145167513E1
1.155080521E1,9.898078217E-1,7.695326393E0,8.925011632E0,1.182597144E1
1.156082821E1,6.760788281E-1,8.083052924E0,8.792669261E0,1.196260255E1
1.157085121E1,4.506850369E-1,8.054907936E0,8.312595314E0,1.158377744E1
1.158087383E1,3.776723168E-1,7.574642200E0,7.487978863E0,1.065775156E1
1.159089683E1,4.836648680E-1,6.916945045E0,6.465275702E0,9.480392944E0
1.160091983E1,6.715874355E-1,6.389857730E0,5.256116529E0,8.301088631E0
1.161094283E1,9.412673072E-1,6.064111100E0,3.451847920E0,7.040929033E0
1.162096583E1,1.287693419E0,5.792866952E0,5.422202012E-1,5.958981844E0
1.163098883E1,1.457049250E0,5.355698120E0,-4.277034182E0,7.007104699E0
1.164101183E1,9.214211994E-1,3.515043749E0,-1.188676494E1,1.242979205E1
1.165103483E1,-1.343263895E0,-1.677559154E0,-2.179869360E1,2.190437411E1
1.166105783E1,-4.673293262E0,-7.616559135E0,-2.090623074E1,2.273592150E1
1.167108083E1,-6.319964207E0,-1.265909910E1,-1.010623515E1,1.738766018E1
1.168110383E1,-6.679925235E0,-1.718160115E1,-7.411553416E0,1.986856671E1
1.169112683E1,-5.892503507E0,-1.494414536E1,-1.124578146E1,1.960909684E1
1.170114983E1,-2.641964405E0,-6.652625754E0,-1.134475962E1,1.341420800E1
1.171117283E1,-1.120551856E0,4.259404242E-2,-5.131952074E0,5.253035580E0
1.172119583E1,-4.407745910E-1,3.471783124E0,-1.708299721E0,3.894335404E0
1.173121883E1,2.928953643E-1,3.936996372E0,-4.521352487E0,6.002362571E0
1.174124183E1,1.514970599E0,1.705536911E0,-4.622299402E0,5.154575039E0
1.175126483E1,3.628789343E0,-1.469888858E0,-2.920193052E0,4.884282221E0
1.176128783E1,5.166198632E0,-2.794518262E0,1.285244605E0,6.012553061E0
1.177131083E1,4.880765338E0,-1.951493021E0,1.026390064E1,1.153160230E1
1.178133383E1,3.754467642E0,-1.143884366E0,1.991048967E1,2.029364673E1
1.179135683E1,2.554026082E0,-1.644697802E0,2.192872866E1,2.213813951E1
1.180137983E1,1.082847328E0,-2.471754296E0,1.748986168E1,1.769681862E1
1.181140283E1,-3.718337112E0,-4.827626719E0,1.969197221E0,6.403885407E0
1.182142583E1,-8.783997840E0,-5.703880516E0,-2.834650334E0,1.085025868E1
1.183144883E1,-1.000006608E1,-4.551014242E0,2.618704766E-1,1.099006954E1
1.184147183E1,-9.920784856E0,-4.472691958E0,-2.954571757E-1,1.088642459E1
1.185149483E1,-8.464002532E0,-3.986784829E0,5.997223046E-1,9.375151144E0
1.186151783E1,-5.617993104E0,-2.910756231E0,3.029880678E0,7.015306500E0
1.187154083E1,-2.688903514E0,-1.280434393E0,5.428964317E0,6.192202185E0
1.188156383E1,-1.196932938E0,-6.160684884E-2,7.072487998E0,7.173320733E0
1.189158683E1,-5.012258839E-1,1.414622730E-1,8.243611618E0,8.260046699E0
1.190160983E1,6.313242394E-1,6.767450452E-2,8.390035254E0,8.414026485E0
1.191163283E1,1.579320669E0,-1.806766248E-1,7.656285703E0,7.819565754E0
1.192165583E1,1.765123547E0,-2.833665955E-1,6.762950435E0,6.995245267E0
1.193167883E1,2.234722792E0,4.637216234E-1,5.452120460E0,5.910553376E0
1.194170183E1,2.861253996E0,1.722725387E0,4.345447190E0,5.480644895E0
1.195172483E1,3.370095951E0,3.172514441E0,3.579806925E0,5.851274410E0
1.196174783E1,3.391793799E0,4.317619706E0,2.895906057E0,6.207445287E0
1.197177083E1,2.858941422E0,5.116938179E0,2.295392332E0,6.294873179E0
1.198179383E1,2.727138749E0,5.677863915E0,1.672241696E0,6.517040485E0
1.199181683E1,2.618705643E0,5.744854295E0,7.102390659E-1,6.353377814E0
1.200183983E1,1.924504028E0,5.269570388E0,-1.496876682E0,5.806266238E0
1.201186283E1,8.394314685E-1,4.232388936E0,-3.999520065E0,5.883359758E0
1.202188583E1,1.545170225E-1,2.635133103E0,-4.730987447E0,5.417568108E0
1.203190883E1,-4.373771395E-1,1.089049178E0,-5.088993750E0,5.222564912E0
1.204193183E1,-1.084075536E0,-4.858053875E-1,-5.110676980E0,5.246927276E0
1.205195483E1,-1.623516848E0,-2.047068100E0,-4.907861043E0,5.559981545E0
1.206197783E1,-1.973836256E0,-3.331953394E0,-5.557731700E0,6.773944540E0
1.207200083E1,-1.856899836E0,-3.699652042E0,-6.772128224E0,7.937078992E0
1.208202383E1,-4.615038476E-1,-3.270189255E0,-7.150372910E0,7.876227290E0
1.209204683E1,1.615820158E0,-2.039341589E0,-6.273956560E0,6.792077725E0
1.210206983E1,3.149318244E0,-5.096672899E-1,-4.422191895E0,5.452865972E0
1.211209283E1,3.885758683E0,6.564370805E-1,-1.913483781E0,4.380804762E0
1.212211583E1,3.937762065E0,1.325177872E0,5.511031450E-1,4.191155109E0
1.213213883E1,3.736345951E0,1.772765273E0,1.735530789E0,4.484979922E0
1.214216183E1,3.808800262E0,2.117786665E0,1.461787687E0,4.596607775E0
1.215218483E1,4.516755698E0,2.026657809E0,-1.193138972E-2,4.950612716E0
1.216220783E1,5.897301732E0,1.090443154E0,-2.201347177E0,6.388518090E0
1.217223083E1,6.129374213E0,-8.146375930E-1,-3.145535388E0,6.937381028E0
1.218225383E1,4.178236703E0,-3.119510016E0,-2.408599836E0,5.743723344E0
1.219227683E1,2.969042738E0,-4.721278730E0,-2.468746781E0,6.099212924E0
1.220229983E1,2.444099598E0,-5.505563427E0,-3.639466066E0,7.037795446E0
1.221232283E1,1.551614660E0,-5.884256594E0,-5.501782032E0,8.203754583E0
1.222234583E1,1.811128088E-1,-6.135763466E0,-7.813882198E0,9.936656891E0
1.223236883E1,-1.357119311E0,-6.227142583E0,-9.719272848E0,1.162253596E1
1.224239183E1,-2.496485972E0,-5.854939824E0,-1.010091886E1,1.193906715E1
1.225241483E1,-2.607846487E0,-5.458295705E0,-8.198965788E0,1.018905763E1
1.226243783E1,-2.097339537E0,-5.311249925E0,-5.334658669E0,7.814524427E0
1.227246083E1,-1.261452431E0,-5.122262068E0,-3.580022687E0,6.375373979E0
1.228248383E1,1.757445715E-1,-3.778437425E0,-2.928062235E0,4.783411334E0
1.229250683E1,1.559067229E0,-2.336024634E0,-1.684133763E0,3.274753158E0
1.230252983E1,2.025998097E0,-2.160107058E0,1.938819766E-2,2.961605425E0
1.231255283E1,1.860451874E0,-2.468423722E0,1.818565344E0,3.586304053E0
1.232257583E1,1.955890274E0,-2.651480164E0,4.306807619E0,5.422586624E0
1.233259883E1,2.544328475E0,-2.732412645E0,5.706846224E0,6.819661288E0
1.234262183E1,2.932617508E0,-2.861536124E0,5.340466708E0,6.731212305E0
1.235264483E1,2.577022012E0,-3.395014445E0,4.342725896E0,6.084934982E0
1.236266783E1,1.724064984E0,-4.028425775E0,3.629543341E0,5.689832964E0
1.237269083E1,8.849468529E-1,-4.618751897E0,3.519703395E0,5.874037113E0
1.238271383E1,1.825315809E-1,-5.192923331E0,3.602288300E0,6.322677557E0
1.239273683E1,-4.322458788E-1,-5.885656418E0,3.820288872E0,7.030106331E0
1.240275983E1,-9.636759572E-1,-6.580182261E0,4.003382735E0,7.762380000E0
1.241278283E1,-1.320587516E0,-6.940613989E0,4.087823546E0,8.162498103E0
1.242280583E1,-1.583136708E0,-6.749518211E0,3.622341326E0,7.821999399E0
1.243282883E1,-1.963780068E0,-6.896734144E0,9.982082972E-1,7.240013385E0
1.244285183E1,-2.364475869E0,-6.029074000E0,-1.087262269E0,6.566781454E0
1.245287483E1,-2.568158218E0,-3.599710262E0,-1.444419849E0,4.651849020E0
1.246289783E1,-2.139347249E0,-9.078638452E-1,-7.431691226E-1,2.439943393E0
1.247292083E1,-1.274374047E0,1.128844743E0,5.386373198E-1,1.785623092E0
1.248294383E1,-9.562875617E-1,2.235876448E0,2.139990589E0,3.239319236E0
1.249296683E1,-6.534952294E0,8.341262459E0,-1.132823188E1,1.551164396E1
1.250298983E1,-8.230270611E0,6.343536088E0,-5.198199273E0,1.161891045E1
1.251301283E1,-2.402448711E0,1.963779776E0,2.341166207E1,2.361639498E1
1.252303583E1,-2.182374278E0,4.900730363E0,2.217825742E1,2.281786620E1
1.253305883E1,-2.761741402E0,5.617333539E0,1.626899813E1,1.743163652E1
1.254308183E1,-2.624953685E0,6.598171805E0,1.343734830E1,1.519830853E1
1.255310483E1,-1.926458606E0,6.528230919E0,1.088538014E1,1.283824531E1
1.256312783E1,-1.547346120E-1,5.899179858E0,6.255299265E0,8.599595031E0
1.257315058E1,1.741514537E0,6.622250639E0,1.331874104E0,6.975741181E0
1.258317358E1,2.236649157E0,8.043006513E0,7.185842121E-1,8.379076112E0
1.259319658E1,1.192608995E0,9.246555283E0,3.168548859E0,9.846867659E0
1.260321958E1,-2.508326876E-1,1.012897731E1,5.511535188E0,1.153412842E1
1.261324258E1,-6.119132376E-1,1.077250198E1,6.551716846E0,1.262324168E1
1.262326558E1,-3.174516966E-1,1.062827807E1,5.803298970E0,1.211360183E1
1.263328858E1,-1.485564439E-1,9.614514717E0,3.817822516E0,1.034585574E1
1.264331158E1,-1.971991751E-2,8.302865548E0,1.033940340E0,8.367018454E0
1.265333458E1,1.634501793E-1,6.872697995E0,-2.985993524E0,7.495121814E0
1.266335758E1,-6.115460325E-2,4.462456992E0,-9.609845130E0,1.059558331E1
1.267338058E1,-1.790864891E0,-7.017588490E-1,-1.834794525E1,1.844848930E1
1.268340358E1,-4.496174376E0,-7.447755282E0,-2.153324171E1,2.322423607E1
1.269342658E1,-6.056171166E0,-1.357755985E1,-1.350470588E1,2.008493021E1
1.270344958E1,-5.420212789E0,-1.804725219E1,-6.268000002E0,1.985874725E1
1.271347258E1,-3.794188363E0,-1.803379073E1,-6.689387784E0,1.960513663E1
1.272349558E1,-1.178202771E0,-9.421465968E0,-8.220409282E0,1.255895344E1
1.273351858E1,8.105955590E-1,-3.673361206E-1,-6.084417896E0,6.149157838E0
1.274354158E1,1.953742591E0,4.125766128E0,-4.791272240E0,6.617805221E0
1.275356458E1,2.724365415E0,3.348648949E0,-6.621897467E0,7.904754440E0
1.276358758E1,3.129680370E0,-7.337694311E-1,-7.606905967E0,8.258228332E0
1.277361058E1,3.469193100E0,-5.238518749E0,-4.930009126E0,7.986386506E0
1.278363358E1,3.962320371E0,-6.169861504E0,3.475405474E0,8.114531219E0
1.279365658E1,2.800670702E0,-3.964115174E0,1.258253916E1,1.348622472E1
1.280367958E1,8.725027355E-1,-1.542047592E0,1.913920918E1,1.922104316E1
1.281370258E1,-2.792068497E-1,2.293014854E-1,2.180920222E1,2.181219469E1
1.282372558E1,-8.773080504E-1,1.050438843E0,1.750212212E1,1.755555097E1
1.283374858E1,-3.285780855E0,6.641378635E-1,3.829685932E0,5.089590285E0
1.284377158E1,-8.903206780E0,1.593196696E-1,-9.350913464E0,1.291247677E1
1.285379458E1,-9.013060759E0,1.173297615E0,-4.193546760E0,1.000988142E1
1.286381758E1,-7.007206174E0,2.362503165E-1,5.571636379E-1,7.033291114E0
1.287384058E1,-5.406357812E0,-1.916170576E0,6.278860620E0,8.504381527E0
1.288386358E1,-3.461940214E0,-3.108020822E0,9.731394711E0,1.078632776E1
1.289388658E1,-1.977580520E0,-3.506163583E0,9.829629103E0,1.062194032E1
1.290390958E1,-6.996756323E-1,-3.584860674E0,8.226265268E0,9.000678436E0
1.291393258E1,7.477931008E-1,-3.313832288E0,6.177606141E0,7.050070680E0
1.292395558E1,1.848718997E0,-2.646526403E0,5.082969364E0,6.021498276E0
1.293397858E1,2.481390508E0,-2.065164648E0,4.642235484E0,5.654427837E0
1.294400158E1,3.128731367E0,-1.232514707E0,4.256078346E0,5.424228549E0
1.295402458E1,3.909324424E0,3.161893559E-1,3.064751426E0,4.977498816E0
1.296404758E1,4.431940958E0,2.204201496E0,1.823042557E0,5.274854411E0
1.297407058E1,4.232723105E0,4.020889884E0,4.501655117E-1,5.855437586E0
1.298409358E1,4.056918088E0,5.564089378E0,-1.368363068E0,7.020690312E0
1.299411658E1,3.805450977E0,6.795730510E0,-2.899250665E0,8.310780031E0
1.300413958E1,2.910757985E0,7.172267810E0,-3.411083179E0,8.458689380E0
1.301416258E1,1.533723642E0,6.564668428E0,-3.141426550E0,7.437455247E0
1.302418558E1,1.582642106E-1,5.069723666E0,-2.356474686E0,5.592863181E0
1.303420858E1,-1.046083837E0,3.133046905E0,-1.903182741E0,3.812135733E0
1.304423158E1,-1.834920591E0,1.149335725E0,-2.348725955E0,3.194435756E0
1.305425458E1,-2.329067324E0,-5.067559612E-1,-3.452875568E0,4.195677048E0
1.306427758E1,-2.629876749E0,-1.599331010E0,-4.286754593E0,5.277345577E0
1.307430058E1,-2.611823178E0,-1.943682895E0,-4.320769601E0,5.410043757E0
1.308432358E1,-2.139459662E0,-1.524586052E0,-4.158484223E0,4.918804866E0
1.309434658E1,-1.457445983E0,-3.624577886E-1,-4.502544333E0,4.746412320E0
1.310436958E1,-7.405542478E-2,7.087638134E-1,-4.301755040E0,4.360381494E0
1.311439258E1,1.814566433E0,1.184542395E0,-2.945002788E0,3.656341539E0
1.312441558E1,2.833802488E0,1.068009142E0,-1.299161856E0,3.295284751E0
1.313443858E1,3.117581019E0,7.806570840E-1,-2.357103261E-1,3.222467417E0
1.314446158E1,3.603538435E0,7.513233572E-1,-5.107224199E-1,3.716290277E0
1.315448458E1,4.337274536E0,4.523330015E-1,-1.594958462E0,4.643322953E0
1.316450758E1,4.982530571E0,-6.822449362E-1,-1.961889371E0,5.398155143E0
1.317453058E1,5.428053321E0,-1.916654141E0,-1.994158400E0,6.092125546E0
1.318455358E1,5.496356986E0,-2.746160619E0,-2.658887124E0,6.694850185E0
1.319457658E1,4.912355797E0,-4.071851876E0,-4.167692711E0,7.621081269E0
1.320459958E1,3.849700951E0,-5.685167087E0,-6.280737576E0,9.305320345E0
1.321462258E1,3.107891014E0,-6.518873620E0,-8.210551461E0,1.093470874E1
1.322464558E1,2.319544695E0,-6.508224671E0,-9.651014791E0,1.186926124E1
1.323466858E1,1.370621994E0,-5.731581700E0,-1.042470375E1,1.197514433E1
1.324469158E1,1.113523284E0,-5.047781990E0,-9.353469867E0,1.068678790E1
1.325471458E1,1.777574024E0,-4.953314958E0,-6.787340925E0,8.588544424E0
1.326473758E1,2.723190417E0,-5.733900121E0,-3.873582734E0,7.436263836E0
1.327476058E1,3.011777406E0,-6.212387719E0,-1.489634613E0,7.062830565E0
1.328478358E1,2.905909474E0,-5.235120932E0,-3.171940537E-1,5.995949725E0
1.329480658E1,2.349302929E0,-3.623279804E0,6.463295835E-1,4.366362642E0
1.330482958E1,1.558165442E0,-3.018658994E0,2.637875447E0,4.300996227E0
1.331485258E1,1.024773806E0,-3.056840728E0,4.658685456E0,5.665490867E0
1.332487558E1,7.685707431E-1,-3.174896597E0,5.395382588E0,6.307204028E0
1.333489758E1,4.345646288E-1,-4.018950947E0,5.212874615E0,6.596580545E0
1.334492058E1,-2.709702425E-1,-5.059384620E0,4.895402380E0,7.045265223E0
1.335494358E1,-1.030787009E0,-6.030113050E0,4.753313870E0,7.747178712E0
1.336496658E1,-1.785047058E0,-6.901044711E0,4.760905895E0,8.571874710E0
1.337498958E1,-2.495057205E0,-7.557796372E0,4.610645317E0,9.198024065E0
1.338501258E1,-2.973079071E0,-7.971829526E0,4.461936297E0,9.607192133E0
1.339503558E1,-3.177182858E0,-8.047474955E0,4.220892141E0,9.626643991E0
1.340505858E1,-3.342093343E0,-7.927794730E0,3.000147879E0,9.111553352E0
1.341508158E1,-3.500537392E0,-6.916401839E0,1.088534184E0,7.827853032E0
1.342510458E1,-3.595117859E0,-4.501301215E0,-6.081952125E-2,5.761100942E0
1.343512758E1,-3.284833314E0,-1.742641003E0,-3.806475994E-1,3.737889801E0
1.344515058E1,-2.493073537E0,5.452686471E-1,3.026439884E-1,2.569888508E0
1.345517358E1,-1.672119489E0,2.256142897E0,1.364696864E0,3.122268709E0
1.346519658E1,-1.619400116E0,3.324725066E0,3.378224165E0,5.008857356E0
1.347521958E1,-1.705169414E0,4.283265560E0,5.935645434E0,7.515707106E0
1.348524258E1,-1.074706031E0,5.110710894E0,7.205079460E0,8.898737490E0
1.349526558E1,-4.562595530E-1,5.560917848E0,8.354863667E0,1.004667741E1
1.350528858E1,1.524201013E-1,5.551688018E0,8.105367068E0,9.825550725E0
1.351531158E1,7.062187397E-1,5.453698039E0,6.878592573E0,8.806622678E0
1.352533458E1,1.011706521E0,5.534137600E0,5.600684761E0,7.938381375E0
1.353535758E1,8.325118004E-1,6.205058818E0,5.253922069E0,8.173097818E0
1.354538058E1,6.065161845E-1,7.267582102E0,6.127457496E0,9.525300355E0
1.355540358E1,7.531412566E-1,8.381031711E0,7.422987061E0,1.122094698E1
1.356542658E1,1.010165926E0,9.428617113E0,8.265887756E0,1.257951336E1
1.357545421E1,1.021426787E0,9.995333347E0,8.337938901E0,1.305646302E1
1.358547721E1,1.189832518E0,1.010644682E1,8.021894556E0,1.295788412E1
1.359550021E1,1.194501300E0,9.436877475E0,7.190399441E0,1.192406533E1
1.360552321E1,1.331113966E0,8.298189529E0,6.312201444E0,1.051074217E1
1.361554621E1,1.549919114E0,7.207487344E0,4.853744477E0,8.826605152E0
1.362556921E1,1.549480281E0,6.445980476E0,2.016631296E0,6.929527777E0
1.363559221E1,1.229804961E0,5.414033452E0,-2.382846213E0,6.041699639E0
1.364561521E1,2.862296847E-1,2.745773533E0,-9.438173218E0,9.833631751E0
1.365563821E1,-1.550388207E0,-2.119419792E0,-1.808051466E1,1.827021221E1
1.366566121E1,-3.982090099E0,-7.438740045E0,-2.097898413E1,2.261215758E1
1.367568421E1,-6.467563133E0,-1.198450933E1,-1.552085858E1,2.064836284E1
1.368570721E1,-8.499006888E0,-1.520073990E1,-9.034267441E0,1.961921506E1
1.369573021E1,-8.496800734E0,-1.406603040E1,-7.386479970E0,1.801690651E1
1.370575321E1,-5.156637849E0,-7.377895088E0,-7.615052308E0,1.179038895E1
1.371577621E1,-2.305768801E0,-1.496500706E0,-5.645013673E0,6.278715115E0
1.372579921E1,2.754450070E-1,1.653262804E0,-3.072262174E0,3.499706090E0
1.373582221E1,2.808331431E0,2.089973214E0,-1.937526362E0,4.001090085E0
1.374584521E1,3.927604575E0,1.249070513E0,-4.251792337E0,5.921485702E0
1.375586821E1,4.701148521E0,5.847677583E-1,-4.786496527E0,6.734485856E0
1.376589121E1,5.925016950E0,7.744970423E-1,-3.619619739E0,6.986223485E0
1.377591421E1,5.408392643E0,1.046242881E0,-2.672464067E-1,5.515138782E0
1.378593721E1,3.381876629E0,7.143321168E-1,7.174547639E0,7.963761280E0
1.379596021E1,1.320959545E0,3.134481812E-1,1.653725201E1,1.659288667E1
1.380598321E1,5.982715008E-1,-4.056447387E-1,1.882760405E1,1.884147421E1
1.381600621E1,-2.858789065E-1,-1.393835294E0,1.419138535E1,1.426253560E1
1.382602921E1,-3.088354004E0,-4.887701012E0,6.845525984E0,8.960400529E0
1.383605221E1,-8.466416847E0,-6.921447986E0,-1.163929206E-1,1.093618781E1
1.384607521E1,-1.090528874E1,-5.026262482E0,2.270638437E0,1.222065612E1
1.385609821E1,-1.093528262E1,-4.224664764E0,1.986280154E0,1.189005917E1
1.386612121E1,-9.735526353E0,-4.112316363E0,2.640552887E-1,1.057172382E1
1.387614421E1,-6.752977424E0,-3.533050250E0,-1.852777988E-2,7.621383827E0
1.388616721E1,-3.285175376E0,-2.083064729E0,1.084843276E0,4.038368588E0
1.389619021E1,-1.658618561E0,-1.008066995E0,3.425595091E0,3.937247303E0
1.390621321E1,-1.247007908E0,-4.324191391E-1,5.414605894E0,5.573147407E0
1.391623621E1,-6.804272562E-1,-3.589488745E-1,6.850056406E0,6.893119636E0
1.392625921E1,3.013173648E-1,-6.117625988E-1,6.958953781E0,6.992287420E0
1.393628221E1,9.448923616E-1,-5.915745020E-1,6.333921511E0,6.431278541E0
1.394630521E1,1.458932053E0,-1.573175830E-1,5.649921241E0,5.837365980E0
1.395632821E1,2.385850220E0,7.976081622E-1,4.957201602E0,5.558984420E0
1.396635121E1,3.202848334E0,2.096286453E0,4.330287406E0,5.779623116E0
1.397637421E1,3.624687229E0,3.655219635E0,3.540693730E0,6.247839641E0
1.398639721E1,4.477919369E0,5.270096052E0,2.773758892E0,7.451134992E0
1.399642021E1,5.065247038E0,6.875018170E0,1.083414216E0,8.607925926E0
1.400644321E1,4.133804880E0,7.929321438E0,-1.770118239E0,9.115689762E0
1.401646621E1,2.631185940E0,7.012550529E0,-2.923761023E0,8.040359625E0
1.402648921E1,1.447162193E0,5.088684433E0,-2.345627077E0,5.787136948E0
1.403651221E1,5.632402837E-1,3.505844910E0,-1.921771039E0,4.037498245E0
1.404653521E1,-3.151938674E-1,2.090205933E0,-2.145590906E0,3.011954242E0
1.405655721E1,-9.706527087E-1,7.758939421E-1,-3.043978023E0,3.287853448E0
1.406658121E1,-1.260060355E0,-2.655542225E-1,-4.310216546E0,4.498470609E0
1.407660421E1,-8.027241835E-1,-9.245746028E-1,-5.346464197E0,5.484877731E0
1.408662621E1,6.115500159E-1,-7.014822757E-1,-5.179441406E0,5.262383878E0
1.409664921E1,1.886884358E0,-3.592657936E-1,-3.660107907E0,4.133496629E0
1.410667221E1,1.942133676E0,-3.839761269E-1,-1.635968201E0,2.568211992E0
1.411669521E1,1.720177462E0,-4.410086989E-2,-5.957991153E-1,1.820970064E0
1.412671821E1,1.998667480E0,6.628099608E-1,-6.288475782E-1,2.197598238E0
1.413674121E1,2.277164076E0,9.466864336E-1,-7.689727391E-1,2.583217084E0
1.414676421E1,1.962238596E0,6.334230244E-2,-5.142822048E-1,2.029502092E0
1.415678721E1,1.704795338E0,-1.228931533E0,-6.310396993E-1,2.194267750E0
1.416681021E1,1.570283212E0,-2.606936075E0,-1.896505513E0,3.585894341E0
1.417683321E1,1.683621986E0,-4.266434349E0,-4.767012143E0,6.615243746E0
1.418685621E1,2.100045482E0,-5.872065734E0,-8.569930691E0,1.059882347E1
1.419687921E1,2.492688498E0,-6.897994804E0,-1.175538736E1,1.385586375E1
1.420690221E1,2.579994444E0,-7.032895916E0,-1.314748544E1,1.513189908E1
1.421692521E1,2.376800046E0,-6.445041413E0,-1.242395332E1,1.419656132E1
1.422694821E1,2.247867917E0,-5.855001805E0,-9.763878332E0,1.160462306E1
1.423697121E1,2.844035992E0,-5.777026845E0,-5.762144512E0,8.640884750E0
1.424699421E1,3.801583044E0,-6.065923737E0,-2.092313855E0,7.458233148E0
1.425701721E1,4.673638248E0,-6.382912408E0,-4.350778681E-1,7.922989210E0
1.426704021E1,5.148135998E0,-5.663792590E0,-9.292105678E-1,7.710076721E0
1.427706321E1,4.757903935E0,-3.784148401E0,-2.363088617E0,6.522393486E0
1.428708621E1,3.677244634E0,-2.797362932E0,-1.937827494E0,5.010243793E0
1.429710921E1,2.533154154E0,-2.845082059E0,6.816086130E-1,3.869877542E0
1.430713221E1,1.689106674E0,-2.780307189E0,3.834156713E0,5.028314541E0
1.431715521E1,1.195642019E0,-2.717503415E0,5.018109124E0,5.830592065E0
1.432717821E1,1.019025554E0,-3.201509614E0,4.798328660E0,5.857647550E0
1.433720121E1,5.956982143E-1,-3.976476188E0,4.446037425E0,5.994536514E0
1.434722421E1,-1.540812222E-1,-5.033649269E0,4.550872740E0,6.787621725E0
1.435724721E1,-1.070028770E0,-6.421245584E0,5.053711066E0,8.241198454E0
1.436727021E1,-1.999108945E0,-7.764400136E0,5.410177213E0,9.672247077E0
1.437729321E1,-2.630355636E0,-8.707311607E0,5.439682263E0,1.059840504E1
1.438731621E1,-2.894820814E0,-8.890703679E0,5.192941457E0,1.069538407E1
1.439733921E1,-2.818813443E0,-8.207633116E0,4.707875158E0,9.872944803E0
1.440736221E1,-2.696046765E0,-6.864484411E0,3.575445779E0,8.195951861E0
1.441738521E1,-2.757052520E0,-4.908746896E0,1.824163030E0,5.918167406E0
1.442740821E1,-2.822995956E0,-2.222289857E0,4.645244461E-1,3.622659429E0
1.443743121E1,-2.518872037E0,8.274277925E-2,-3.399436694E-1,2.543054149E0
1.444745421E1,-1.838283910E0,1.713714243E0,6.885388792E-3,2.513195505E0
1.445747721E1,-1.590421754E0,2.661581814E0,1.296013130E0,3.360522153E0
1.446750021E1,-1.775502063E0,3.452335285E0,3.736811097E0,5.388393422E0
1.447752321E1,-1.314755210E0,4.303670588E0,5.383547239E0,7.016604782E0
1.448754621E1,-8.137403378E-1,4.936284943E0,6.743189185E0,8.396408920E0
1.449756921E1,5.057256818E-3,5.432287874E0,7.416814156E0,9.193416631E0
1.450759221E1,6.335953711E-1,5.397692238E0,7.373448281E0,9.159927082E0
1.451761521E1,8.575353983E-1,5.585029426E0,6.898596482E0,8.917317650E0
1.452763821E1,9.255521842E-1,6.187975593E0,6.995086066E0,9.385036913E0
1.453766121E1,8.544066994E-1,7.033488824E0,7.371661956E0,1.022454771E1
1.454768421E1,7.539249296E-1,8.066687737E0,7.898995439E0,1.131521024E1
1.455770721E1,5.486791818E-1,9.168228906E0,8.637339147E0,1.260797754E1
1.456773021E1,5.875514349E-1,1.000980988E1,9.069855934E0,1.352049545E1
1.457775296E1,6.885334705E-1,1.016502890E1,8.965077338E0,1.357109069E1
1.458777496E1,8.297502335E-1,9.501936520E0,8.396326273E0,1.270722542E1
1.459779796E1,1.230752064E0,8.516128705E0,7.284832558E0,1.127421767E1
1.460782096E1,1.538404192E0,7.398858526E0,5.638955957E0,9.429083690E0
1.461784396E1,1.569835900E0,6.368459260E0,3.744180928E0,7.552519376E0
1.462786696E1,1.338686695E0,5.307994196E0,9.809563798E-1,5.561399093E0
1.463788996E1,9.139670227E-1,3.214433130E0,-3.665379757E0,4.960133549E0
1.464791296E1,8.629507240E-2,-1.207031372E0,-1.125231865E1,1.131720136E1
1.465793596E1,-1.286712110E0,-7.610917157E0,-1.911800952E1,2.061746774E1
1.466795896E1,-3.374686015E0,-1.373980956E1,-1.773947464E1,2.269052297E1
1.467798196E1,-6.648644385E0,-1.563619140E1,-1.125645731E1,2.038143236E1
1.468800496E1,-9.692682635E0,-1.386631641E1,-1.026198275E1,1.978714526E1
1.469802796E1,-1.067342442E1,-8.538633469E0,-1.321523129E1,1.901243247E1
1.470805096E1,-7.334573067E0,-3.231323397E-1,-1.276222644E1,1.472327410E1
1.471807396E1,-2.723794434E0,3.696838362E0,-6.623934637E0,8.059911914E0
1.472809696E1,1.079351278E0,3.949619926E0,-8.394654554E-1,4.179617087E0
1.473811996E1,3.034032494E0,2.565327873E0,-7.826164860E-1,4.049536867E0
1.474814296E1,3.537487409E0,6.283768773E-1,-1.757750793E0,3.999795310E0
1.475816596E1,3.474188669E0,-1.892116300E0,-2.993791956E-1,3.967331459E0
1.476818896E1,2.803045841E0,-3.084341937E0,3.680894174E0,5.560504752E0
1.477821196E1,1.761965759E0,-2.077659563E0,7.859757113E0,8.318471883E0
1.478823496E1,1.059463875E0,-8.940679246E-1,1.252940668E1,1.260586582E1
1.479825796E1,2.923206561E-1,-1.062019839E0,1.387676188E1,1.392041155E1
1.480828096E1,-1.886050837E0,-3.485927539E0,9.618527076E0,1.040312173E1
1.481830396E1,-5.954752965E0,-6.055671814E0,8.897211045E-2,8.493418630E0
1.482832696E1,-9.009603301E0,-4.210352535E0,2.561621323E-1,9.948147523E0
1.483834996E1,-9.690740190E0,-3.171681798E0,3.260681390E0,1.070523489E1
1.484837296E1,-8.962879370E0,-3.789272316E0,3.260831079E0,1.026278766E1
1.485839596E1,-5.683974840E0,-4.260693553E0,3.865335821E0,8.087144153E0
1.486841896E1,-2.936889777E0,-3.859564619E0,5.353625867E0,7.223771212E0
1.487844196E1,-1.303768292E0,-3.343853062E0,6.903538549E0,7.780746080E0
1.488846496E1,3.132430901E-1,-2.737927154E0,7.484018544E0,7.975268014E0
1.489848796E1,1.146984194E0,-2.326635175E0,7.147914741E0,7.604044261E0
1.490851096E1,1.476072581E0,-1.905514026E0,6.071514845E0,6.532462513E0
1.491853396E1,1.771671990E0,-1.934456574E0,5.406083577E0,6.008883717E0
1.492855696E1,2.423799965E0,-1.758312126E0,4.700305060E0,5.573090297E0
1.493857996E1,2.973745654E0,-1.286313184E0,3.826450667E0,5.013929550E0
1.494860296E1,3.384338014E0,-1.449934065E-1,3.111108152E0,4.599321778E0
1.495862596E1,3.684077983E0,1.483708752E0,2.492448177E0,4.688935931E0
1.496864896E1,3.748528333E0,3.253554511E0,1.624672112E0,5.222704385E0
1.497867196E1,3.697508745E0,4.775077207E0,4.906982645E-1,6.059184602E0
1.498869496E1,2.775731742E0,5.490233781E0,-5.048380014E-1,6.172699174E0
1.499871796E1,1.282527989E0,5.266580122E0,-1.132032645E0,5.537440034E0
1.500874096E1,2.538509107E-1,4.753614417E0,-1.639614818E0,5.034841315E0
1.501876396E1,-2.251440785E-1,4.231839883E0,-1.813770627E0,4.609655360E0
1.502878596E1,-7.155771352E-1,3.507036572E0,-1.631899416E0,3.933757982E0
1.503880896E1,-1.274445236E0,2.683296618E0,-1.778918883E0,3.462490981E0
1.504883196E1,-1.667289397E0,2.133168935E0,-2.268363139E0,3.532100646E0
1.505885496E1,-1.691587501E0,1.942022871E0,-2.775198476E0,3.786112477E0
1.506887796E1,-1.244265418E0,1.964344032E0,-2.966533991E0,3.769239687E0
1.507890096E1,-8.413450794E-2,2.473110266E0,-3.002457529E0,3.890771674E0
1.508892396E1,1.018902909E0,2.565275833E0,-2.748559731E0,3.895302791E0
1.509894696E1,1.283711319E0,1.999530237E0,-2.058808140E0,3.143998549E0
1.510896996E1,1.345906544E0,1.067722043E0,-2.884152277E-1,1.742032758E0
1.511899296E1,1.403324155E0,-3.889333963E-2,1.296556336E0,1.910991813E0
1.512901596E1,1.539680640E0,-1.040797954E0,1.763079068E0,2.561703467E0
1.513903896E1,1.838662517E0,-1.685044175E0,7.201493655E-1,2.595894611E0
1.514906196E1,2.450320450E0,-1.638683356E0,-1.777615539E0,3.442276929E0
1.515908496E1,3.096759669E0,-1.345030339E0,-4.508398565E0,5.632467016E0
1.516910796E1,3.621792272E0,-1.577146674E0,-6.571166439E0,7.667137619E0
1.517913096E1,3.929767460E0,-2.671106343E0,-8.432131698E0,9.678777111E0
1.518915396E1,3.740079691E0,-4.210760086E0,-9.693834536E0,1.121111612E1
1.519917696E1,3.016609545E0,-5.504696285E0,-9.338174136E0,1.125180477E1
1.520919996E1,2.087942769E0,-5.486340120E0,-7.886022806E0,9.831011577E0
1.521922296E1,1.789410396E0,-4.653916467E0,-6.434838606E0,8.140520618E0
1.522924596E1,1.803298995E0,-3.896772206E0,-5.304250224E0,6.824352814E0
1.523926896E1,1.825653778E0,-3.581710778E0,-4.483031297E0,6.021564035E0
1.524929196E1,2.160639593E0,-3.889191876E0,-3.644033619E0,5.750926700E0
1.525931496E1,2.700481878E0,-4.932007120E0,-2.638865673E0,6.211353205E0
1.526933796E1,2.865119298E0,-5.734012973E0,-2.532992478E0,6.892304713E0
1.527936096E1,2.906285450E0,-6.066031911E0,-3.698509496E0,7.676080429E0
1.528938396E1,3.215115208E0,-5.297514816E0,-4.696029283E0,7.775173313E0
1.529940696E1,2.951300824E0,-3.762167548E0,-3.768472016E0,6.088141141E0
1.530942996E1,2.265966512E0,-3.012955036E0,-9.701894630E-1,3.892784334E0
1.531945296E1,1.657572348E0,-2.633799938E0,2.148328426E0,3.781502774E0
1.532947596E1,1.007147959E0,-2.561541801E0,4.672627557E0,5.423033440E0
1.533949896E1,5.370905485E-1,-3.290788411E0,5.303151532E0,6.264277356E0
1.534952196E1,1.364792027E-1,-4.581465372E0,4.954351670E0,6.749374193E0
1.535954496E1,-4.202491099E-1,-5.935816757E0,4.526970491E0,7.476897199E0
1.536956796E1,-9.813231464E-1,-7.103719731E0,4.229675828E0,8.325622304E0
1.537959096E1,-1.507811414E0,-7.831355433E0,3.899218097E0,8.877360246E0
1.538961396E1,-1.980274186E0,-7.952284623E0,3.594766442E0,8.948891683E0
1.539963696E1,-2.257726762E0,-7.542802942E0,3.433948131E0,8.589715136E0
1.540965996E1,-2.461987107E0,-6.691798591E0,3.408987536E0,7.903337581E0
1.541968296E1,-2.620760939E0,-5.422835265E0,2.971979502E0,6.716263275E0
1.542970496E1,-2.797740662E0,-4.011809742E0,1.485307527E0,5.111566166E0
1.543972796E1,-2.747932617E0,-1.934063641E0,4.262365857E-1,3.387242752E0
1.544975096E1,-2.382359286E0,1.786558270E-1,1.258218482E-1,2.392359674E0
1.545977396E1,-1.852421600E0,1.494821386E0,8.757179001E-1,2.536304122E0
1.546979696E1,-1.849550909E0,2.615626792E0,2.892703537E0,4.316257156E0
1.547981996E1,-1.719510003E0,3.875105934E0,5.014089164E0,6.566144286E0
1.548984296E1,-1.042466165E0,4.553972349E0,5.779977350E0,7.431926939E0
1.549986596E1,-1.067222837E-2,5.046297382E0,6.086711174E0,7.906534264E0
1.550988896E1,1.126335118E0,4.944723060E0,5.385910099E0,7.397766185E0
1.551991196E1,1.811336139E0,4.744053050E0,4.442382916E0,6.746980356E0
1.552993496E1,1.808915977E0,4.655321553E0,4.825953246E0,6.945071670E0
1.553995796E1,1.807228470E0,4.722230072E0,5.864578959E0,7.743307947E0
1.554998096E1,1.789041729E0,4.938674700E0,6.943189688E0,8.706265625E0
1.556000396E1,1.577920845E0,5.559388216E0,7.901238431E0,9.789085773E0
1.557002696E1,1.239391617E0,6.490273719E0,8.707291142E0,1.093053812E1
1.558004608E1,9.039935001E-1,7.240102528E0,9.371017946E0,1.187654269E1
1.559006908E1,6.043972632E-1,7.612333353E0,9.156530966E0,1.192287610E1
1.560009208E1,5.821935946E-1,7.555775574E0,8.376131160E0,1.129549765E1
1.561011508E1,7.321245363E-1,7.286308395E0,7.367904536E0,1.038808518E1
1.562013808E1,9.023153492E-1,7.048059500E0,5.976437949E0,9.284779279E0
1.563016108E1,1.037455978E0,6.868942913E0,4.068634738E0,8.050619869E0
1.564018408E1,7.992652631E-1,6.558066337E0,1.278016570E0,6.729070173E0
1.565020708E1,2.788273655E-1,5.585929897E0,-3.291824538E0,6.489720048E0
1.566023008E1,-7.232251471E-1,3.122904909E0,-9.540068552E0,1.006421868E1
1.567025308E1,-2.693221975E0,-1.876232924E0,-1.746141614E1,1.776723806E1
1.568027608E1,-5.517091797E0,-8.343737000E0,-2.054017399E1,2.284633442E1
1.569029908E1,-7.119856292E0,-1.305520469E1,-1.013730608E1,1.799710248E1
1.570032208E1,-6.947858689E0,-1.426232260E1,-4.957522030E0,1.662117959E1
1.571034508E1,-5.640597855E0,-1.241613559E1,-8.650543914E0,1.614957204E1
1.572036808E1,-3.551239768E0,-8.568471226E0,-1.278647367E1,1.579632590E1
1.573039108E1,-1.394876390E0,-3.431999838E0,-1.090576938E1,1.151781702E1
1.574041408E1,4.190853678E-1,6.712030542E-1,-6.442849876E0,6.491260326E0
1.575043708E1,2.463472300E0,2.888916296E0,-3.661711214E0,5.274719154E0
1.576045908E1,3.604539185E0,3.685084873E0,-7.417339820E0,9.032689703E0
1.577048308E1,4.793129901E0,4.363565372E0,-7.618420889E0,1.000275631E1
1.578050508E1,7.146364644E0,5.294412868E0,2.623546261E-1,8.897761808E0
1.579052808E1,7.262916024E0,4.769052821E0,6.936778800E0,1.111812548E1
1.580055108E1,5.423739245E0,4.120811198E0,1.153884742E1,1.339936686E1
1.581057408E1,4.184371894E0,4.145636721E0,1.677968459E1,1.778350604E1
1.582059708E1,4.192156877E0,2.173946248E0,1.677336024E1,1.742543645E1
1.583062008E1,2.886123081E0,-1.565986093E0,1.380821964E1,1.419327124E1
1.584064308E1,-1.126208453E-1,-6.006265765E0,1.222866099E1,1.362453895E1
1.585066608E1,-4.154105244E0,-1.045097997E1,8.900505951E0,1.434219575E1
1.586068908E1,-1.069787865E1,-1.453807612E1,5.287278095E0,1.880839106E1
1.587071208E1,-1.408119925E1,-1.179018063E1,5.491627758E0,1.916889425E1
1.588073508E1,-1.407738101E1,-8.630385053E0,2.647117264E0,1.672314062E1
1.589075808E1,-1.257073363E1,-6.104057524E0,5.158451656E-1,1.398388210E1
1.590078108E1,-8.435938236E0,-3.178554030E0,-7.954025924E-1,9.049912979E0
1.591080408E1,-2.651161491E0,2.663675702E-1,-2.548271253E0,3.686908639E0
1.592082708E1,3.430147733E-1,2.154346966E0,-3.680734837E0,4.278630496E0
1.593085008E1,1.325753531E0,2.573861884E0,-2.766902447E0,4.004764235E0
1.594087308E1,5.390723526E-1,1.467446476E0,1.550688900E-1,1.571001121E0
1.595089608E1,-4.654942799E-1,3.449330986E-2,2.289652851E0,2.336746647E0
1.596091908E1,-6.398401974E-1,-7.197548246E-1,3.474074063E0,3.605084338E0
1.597094208E1,-3.335882577E-1,-5.012092924E-1,4.036964464E0,4.081614137E0
1.598096508E1,2.798605867E-1,4.018159819E-1,3.976587285E0,4.006622576E0
1.599098808E1,7.755540727E-1,1.775986505E0,3.503583791E0,4.003837105E0
1.600101108E1,1.162675344E0,3.310083053E0,3.056588713E0,4.653084819E0
1.601103408E1,1.468062919E0,4.774106569E0,2.660672572E0,5.659194360E0
1.602105708E1,1.798562166E0,6.096981808E0,2.089097886E0,6.691213867E0
1.603108008E1,2.221531181E0,7.045996603E0,1.522985669E0,7.543258862E0
1.604110308E1,2.545082766E0,7.449141657E0,1.091542431E0,7.947239935E0
1.605112608E1,2.909658416E0,7.128100866E0,1.314522491E0,7.810499564E0
1.606114908E1,3.078863681E0,5.870008099E0,2.093987913E0,6.951343901E0
1.607117208E1,2.363604634E0,4.147704297E0,2.001308960E0,5.176419163E0
1.608119508E1,1.558058731E0,2.498346848E0,1.178267017E0,3.171371493E0
1.609121708E1,1.345420640E0,9.026300025E-1,1.902648890E-1,1.631287329E0
1.610124008E1,1.194775096E0,-5.552135915E-1,-5.174353158E-1,1.415446561E0
1.611126308E1,9.659784445E-1,-1.267450651E0,-1.158338683E0,1.970100001E0
1.612128608E1,1.027038579E0,-1.163111765E0,-2.354704733E0,2.819977234E0
1.613130908E1,1.061250784E0,-6.392795956E-1,-3.838633634E0,4.033613740E0
1.614133208E1,1.260804706E0,-1.158239865E-1,-4.928070774E0,5.088116081E0
1.615135508E1,1.563656124E0,-1.961910421E-1,-5.507553234E0,5.728582200E0
1.616137808E1,1.833024631E0,-8.612375629E-1,-5.951732293E0,6.286877343E0
1.617140108E1,2.183277234E0,-1.746747503E0,-7.065695872E0,7.598808096E0
1.618142408E1,2.509061871E0,-2.713281140E0,-8.178052052E0,8.974286678E0
1.619144708E1,2.547658172E0,-3.410638790E0,-8.265576099E0,9.297460265E0
1.620147008E1,2.296828701E0,-3.547812715E0,-7.520011665E0,8.626295414E0
1.621149308E1,2.201765253E0,-3.316091067E0,-6.732761260E0,7.821400411E0
1.622151608E1,2.235314822E0,-3.218609211E0,-5.884113922E0,7.069573839E0
1.623153908E1,2.471504620E0,-3.182100366E0,-4.922538139E0,6.361248270E0
1.624156208E1,2.619179560E0,-3.086883137E0,-4.239784202E0,5.862142881E0
1.625158508E1,2.641929322E0,-2.946265202E0,-4.075564274E0,5.680712396E0
1.626160808E1,2.660599481E0,-2.936019126E0,-4.294126470E0,5.842817818E0
1.627163108E1,2.685727014E0,-3.241849555E0,-4.478998472E0,6.146880952E0
1.628165408E1,3.024640111E0,-3.967183208E0,-3.846357805E0,6.299322089E0
1.629167708E1,3.569907004E0,-4.884480366E0,-2.947093460E0,6.729616953E0
1.630170008E1,3.564636032E0,-5.035658957E0,-3.227512474E0,6.962853434E0
1.631172308E1,3.341971428E0,-4.323215491E0,-3.612907136E0,6.550729973E0
1.632174608E1,3.342683619E0,-3.549338254E0,-2.091889639E0,5.305406495E0
1.633176908E1,3.354764552E0,-3.223289323E0,9.554978952E-2,4.653296575E0
1.634179208E1,3.296248541E0,-2.708533201E0,1.277114344E0,4.453361381E0
1.635181508E1,2.714369307E0,-2.591959017E0,3.210092157E0,4.938698608E0
1.636183808E1,1.775670609E0,-3.512563945E0,5.281661260E0,6.586885246E0
1.637186108E1,1.018340626E0,-5.101644786E0,5.322958390E0,7.442961989E0
1.638188408E1,1.676569038E-1,-6.787214041E0,4.655979365E0,8.232407128E0
1.639190608E1,-6.142695194E-1,-8.195566217E0,4.148270892E0,9.206127527E0
1.640192908E1,-1.237623858E0,-9.168800763E0,3.828149868E0,1.001265957E1
1.641195208E1,-1.812753504E0,-9.265475703E0,3.632017883E0,1.011566454E1
1.642197508E1,-2.276364908E0,-8.389176883E0,3.534078190E0,9.383487338E0
1.643199808E1,-2.680969134E0,-6.973858919E0,3.590533057E0,8.289404765E0
1.644202108E1,-2.931447188E0,-5.239369519E0,3.696090503E0,7.050209967E0
1.645204408E1,-2.910165662E0,-3.133179637E0,3.669533619E0,5.634834141E0
1.646206708E1,-2.818129611E0,-1.098522252E0,3.336538196E0,4.503453427E0
1.647209008E1,-2.805492901E0,1.650920409E-1,2.605661967E0,3.832430049E0
1.648211308E1,-2.450713091E0,1.376437488E0,1.714866436E0,3.292619278E0
1.649213608E1,-1.958709655E0,2.472755340E0,1.351659620E0,3.431915822E0
1.650215908E1,-1.349012877E0,3.177888617E0,1.457178181E0,3.747289695E0
1.651218208E1,-1.087517573E0,3.482827345E0,2.103816205E0,4.211748261E0
1.652220508E1,-8.880285548E-1,3.910319036E0,3.334693107E0,5.215301314E0
1.653222808E1,-6.389198457E-1,4.145149063E0,5.087486923E0,6.593405988E0
1.654225108E1,-4.391769125E-1,4.536989695E0,7.503561108E0,8.779554724E0
1.655227408E1,1.872486028E-1,4.706917384E0,8.012422652E0,9.294570998E0
1.656229708E1,7.497934332E-1,4.917728219E0,7.933144348E0,9.363814408E0
1.657232008E1,1.150802646E0,5.198594545E0,7.043845412E0,8.829806915E0
1.658234308E1,1.538029824E0,5.751806050E0,5.614910452E0,8.183888316E0
1.659236608E1,1.774138638E0,6.516917726E0,5.310403833E0,8.591750313E0
1.660238908E1,1.804590937E0,7.441923269E0,6.343543689E0,9.943807969E0
1.661241208E1,1.521047317E0,7.991938101E0,7.126690518E0,1.081546935E1
1.662243508E1,1.099555528E0,7.961764129E0,7.181518689E0,1.077835429E1
1.663245808E1,7.250730135E-1,7.177354887E0,6.529622557E0,9.730165712E0
1.664248108E1,3.309372763E-1,6.486195871E0,5.299471879E0,8.382401717E0
1.665250408E1,6.470170699E-2,6.171852481E0,3.605165715E0,7.147948600E0
