"Time (s)","Linear Acceleration x (m/s^2)","Linear Acceleration y (m/s^2)","Linear Acceleration z (m/s^2)","Absolute acceleration (m/s^2)"
3.448625000E-3,7.445025071E-1,1.380511828E0,1.951911682E0,2.504008008E0
1.347062500E-2,6.904129849E-1,1.630825575E0,1.236351065E0,2.159820850E0
2.349262500E-2,7.426514979E-1,1.546246478E0,4.289926708E-1,1.768175367E0
3.351462500E-2,4.293461350E-1,1.342984690E0,2.178672552E-2,1.410113699E0
4.353762500E-2,4.718168011E-1,1.140152381E0,2.545585334E-1,1.259904200E0
5.355962500E-2,7.718437951E-1,6.888169143E-1,8.789335763E-1,1.357474058E0
6.358162500E-2,6.566673146E-1,3.091519395E-1,1.217138284E0,1.417114140E0
7.360362500E-2,8.965016820E-1,-2.420153788E-1,1.357919356E0,1.645062822E0
8.362562500E-2,9.784164224E-1,-8.186367962E-1,1.470821489E0,1.946992746E0
9.364762500E-2,1.200483221E0,-1.139629347E0,1.394843938E0,2.164602648E0
1.036696250E-1,1.236257363E0,-1.257042315E0,1.436011845E0,2.273899221E0
1.136916250E-1,1.172413662E0,-1.269896541E0,1.390970158E0,2.218555611E0
1.237136250E-1,1.233974464E0,-1.335564866E0,1.287156352E0,2.227823594E0
1.337366250E-1,1.192283963E0,-1.529999112E0,1.019118233E0,2.191127633E0
1.437586250E-1,1.125295483E0,-1.632313399E0,7.341728890E-1,2.114177568E0
1.537806250E-1,1.232499943E0,-1.822469530E0,2.872345287E-1,2.218773303E0
1.638026250E-1,1.489659756E0,-2.033185348E0,6.373582006E-2,2.521307420E0
1.738246250E-1,1.634234648E0,-1.883821148E0,-4.982687277E-1,2.543182402E0
1.838466250E-1,1.234255715E0,-1.774535810E0,-9.867398608E-1,2.376135532E0
1.938686250E-1,9.664563813E-1,-1.692764546E0,-1.267231380E0,2.324944110E0
2.038906250E-1,8.229823007E-1,-1.637236463E0,-1.641437979E0,2.460114172E0
2.139126250E-1,1.017036478E0,-1.824695565E0,-1.998526270E0,2.891017875E0
2.239346250E-1,9.317247243E-1,-1.456835826E0,-1.769721798E0,2.474347758E0
2.339576250E-1,6.295188385E-1,-9.845492014E-1,-2.097541265E0,2.401106091E0
2.439796250E-1,2.453484379E-1,-9.476915699E-1,-2.360841386E0,2.555755704E0
2.540016250E-1,-5.211623311E-3,-9.747191548E-1,-2.855264400E0,3.017058068E0
2.640236250E-1,4.635526389E-3,-1.058480519E0,-3.543106876E0,3.697838400E0
2.740456250E-1,1.964306317E-1,-1.263167565E0,-4.100434821E0,4.295083586E0
2.840676250E-1,4.028664342E-1,-1.647148370E0,-4.608013485E0,4.910110732E0
2.940896250E-1,3.735897177E-1,-2.169733914E0,-5.347557626E0,5.783051712E0
3.041116250E-1,1.165016788E-1,-2.578781439E0,-5.986262441E0,6.519127577E0
3.141336250E-1,-1.485654706E-1,-2.949343469E0,-6.550387189E0,7.185281548E0
3.241556250E-1,-4.834401888E-1,-3.411469972E0,-6.939559152E0,7.747859253E0
3.341786250E-1,-1.014289602E0,-3.794455288E0,-7.350678053E0,8.334215151E0
3.442006250E-1,-1.340982896E0,-4.222277054E0,-7.747825034E0,8.924945456E0
3.542226250E-1,-1.595839053E0,-4.784734176E0,-8.003117977E0,9.459930273E0
3.642446250E-1,-1.842449466E0,-5.394121343E0,-7.679890913E0,9.564093764E0
3.742666250E-1,-1.438880489E0,-5.880800305E0,-5.616566969E0,8.258329964E0
3.842886250E-1,-1.938767726E0,-6.123205401E0,-3.336276240E0,7.237624184E0
3.943106250E-1,-3.592167354E0,-6.551320989E0,-1.069874403E0,7.547721792E0
4.043326250E-1,-3.761967573E0,-7.748444254E0,9.121133092E-1,8.661566779E0
4.143546250E-1,-3.421796447E0,-8.146239105E0,-9.915942192E-2,8.836273823E0
4.243776250E-1,-3.208450844E0,-7.783479016E0,-8.273555794E-1,8.459386483E0
4.343996250E-1,-2.788441835E0,-8.045090461E0,-9.237980926E-1,8.564595221E0
4.444216250E-1,-2.166889243E0,-8.150160248E0,-1.042667309E0,8.497509999E0
4.544436250E-1,-1.116337548E0,-8.067974709E0,-9.490264893E-1,8.199943701E0
4.644656250E-1,2.957521677E-3,-7.962151800E0,-5.083045962E-1,7.978360959E0
4.744876250E-1,1.891734477E0,-7.310688361E0,6.692804897E-1,7.581079080E0
4.845096250E-1,4.034298134E0,-6.013780022E0,2.953642049E0,7.820812806E0
4.945316250E-1,5.844241174E0,-4.842648801E0,5.445155842E0,9.341098674E0
5.045536250E-1,7.471760441E0,-3.824980970E0,6.116617928E0,1.038608196E1
5.145766250E-1,8.612734063E0,-2.872110521E0,6.385820228E0,1.109986067E1
5.245986250E-1,1.004539253E1,-2.349786933E0,6.964377658E0,1.244724732E1
5.346206250E-1,1.189707475E1,-1.735937024E0,8.053616871E0,1.447116476E1
5.446426250E-1,1.418789456E1,-5.964797312E-1,9.209921892E0,1.692556650E1
5.546646250E-1,1.692634212E1,1.880420115E0,9.074251286E0,1.929712605E1
5.646866250E-1,1.612879827E1,2.542284873E0,1.235692552E1,2.047669295E1
5.747086250E-1,1.407227172E1,2.361715837E0,1.093307705E1,1.797605927E1
5.847306250E-1,1.393994455E1,3.257822686E0,6.462036930E0,1.570647586E1
5.947536250E-1,1.339499457E1,3.183952180E0,8.201023423E0,1.602561126E1
6.047756250E-1,1.284740634E1,3.178689685E0,7.661624211E0,1.529249500E1
6.147976250E-1,1.193176043E1,3.115666933E0,6.967518783E0,1.416406034E1
6.248196250E-1,1.096544022E1,3.025369259E0,6.437479793E0,1.307038195E1
6.348416250E-1,9.692339988E0,3.133521114E0,5.772144420E0,1.170803400E1
6.448636250E-1,8.574880943E0,2.764723774E0,5.103082032E0,1.035440616E1
6.548856250E-1,8.047932208E0,2.048280228E0,4.924657170E0,9.654890623E0
6.649076250E-1,7.811234579E0,1.972587436E0,4.241815817E0,9.104915610E0
6.749296250E-1,7.617393533E0,1.670604476E0,3.151958262E0,8.411328340E0
6.849526250E-1,6.861188920E0,1.104713284E0,1.745686818E0,7.165453740E0
6.949746250E-1,5.237374449E0,5.846625084E-1,1.043878267E0,5.372299620E0
7.049966250E-1,3.909700400E0,5.809477723E-1,2.692017156E-1,3.961783323E0
7.150186250E-1,3.593830887E0,6.467809886E-1,5.433115840E-2,3.651971792E0
7.250406250E-1,3.059158564E0,7.127931297E-2,-4.767907351E-1,3.096911569E0
7.350626250E-1,2.787402200E0,-3.783259624E-1,-4.139477849E-1,2.843254179E0
7.450846250E-1,2.335782851E0,-7.054712462E-1,-8.832458979E-1,2.594936324E0
7.551066250E-1,1.770273775E0,-1.199118919E0,-7.520630300E-1,2.266573233E0
7.651293750E-1,1.172602673E0,-3.733137292E-1,-6.142324626E-1,1.375369655E0
7.751523750E-1,1.004402545E0,6.017808169E-1,-8.196147430E-1,1.429242090E0
7.851743750E-1,2.335320190E0,1.513892664E0,1.134746922E0,3.005535222E0
7.951963750E-1,3.136011443E0,3.821530235E0,-1.238908052E-2,4.943562946E0
8.052183750E-1,4.312396973E0,4.087312499E0,-4.208735780E0,7.281232587E0
8.152403750E-1,5.076372535E0,1.452586947E0,-6.580372295E0,8.436875399E0
8.252623750E-1,3.390704755E0,-3.294619507E-1,-6.102154255E0,6.988684459E0
8.352843750E-1,2.727018881E0,7.294793290E-1,-4.667266830E0,5.454553302E0
8.453063750E-1,3.803632493E0,4.291576792E0,-1.879228452E0,6.034629324E0
8.553293750E-1,4.117106110E0,5.351908540E0,-1.635238761E0,6.947481093E0
8.653513750E-1,4.323031012E0,6.553437096E0,-5.550089389E-1,7.870461856E0
8.753733750E-1,5.022101603E0,6.805709953E0,-1.588339999E0,8.605929144E0
8.853953750E-1,5.281926139E0,6.057813064E0,-2.501161113E0,8.417342204E0
8.954173750E-1,3.980125143E0,5.769457040E0,-1.570518270E0,7.182935216E0
9.054393750E-1,3.254056202E0,4.535786338E0,-2.172944620E0,5.990319507E0
9.154613750E-1,4.132203036E0,5.253630293E0,-3.552364773E-1,6.693424097E0
9.254833750E-1,4.006246117E0,4.786569325E0,6.716696620E-3,6.241898666E0
9.355063750E-1,2.939938515E0,3.863457111E0,1.351120214E0,5.039351660E0
9.455283750E-1,2.325219856E0,2.727672892E0,2.284949205E0,4.250628148E0
9.555503750E-1,1.725910657E0,3.456079842E0,2.384137863E0,4.539533987E0
9.655723750E-1,1.692876813E0,4.596554112E0,1.451519830E0,5.108918812E0
9.755943750E-1,7.204124902E-1,4.810173950E0,-6.576071084E-2,4.864266857E0
9.856163750E-1,3.841967131E-1,3.868806143E0,-1.672610655E0,4.232362756E0
9.956383750E-1,-9.955937147E-2,3.574817496E0,-2.949177700E0,4.635394407E0
1.005660375E0,-1.972330159E-1,3.881640782E0,-4.446391767E0,5.905627466E0
1.015683375E0,2.033364858E-1,3.808104444E0,-4.212528284E0,5.682288247E0
1.025705375E0,3.562006831E-2,4.920589846E0,-3.491513969E0,6.033584591E0
1.035727375E0,3.267472346E-1,5.039181905E0,-2.179655469E0,5.500092362E0
1.045749375E0,1.034436476E0,4.086185741E0,-9.468565875E-1,4.320128485E0
1.055771375E0,5.118500555E-1,2.800891727E0,6.813473886E-1,2.927664463E0
1.065793375E0,-1.800537501E-1,1.923215302E0,2.251255209E0,2.966365869E0
1.075815375E0,-3.774653254E-1,1.816922277E0,2.949695764E0,3.484880447E0
1.085837375E0,-2.396609974E-1,1.571599420E0,3.108699099E0,3.491614558E0
1.095860375E0,-6.631475645E-1,-2.050027961E-1,3.689733410E0,3.754453818E0
1.105882375E0,-6.630390255E-1,2.370993322E-1,2.033114305E0,2.151601873E0
1.115904375E0,4.661749689E-1,2.332039171E-1,3.973101175E-1,6.554071239E-1
1.125926375E0,4.940475496E-1,1.829903680E-1,-1.793914068E-1,5.565516444E-1
1.135948375E0,3.499098100E-2,-9.310047859E-1,-1.993871301E0,2.200799184E0
1.145970375E0,4.212342196E-1,-3.815468427E0,-2.435308601E0,4.545983454E0
1.155992375E0,1.062760096E0,-4.128190969E0,-2.105087097E0,4.754241410E0
1.166014375E0,-5.565920725E-2,-3.767443491E0,-3.670475605E0,5.260144444E0
1.176037375E0,-8.514971249E-1,-4.502656599E0,-3.317919492E0,5.657521857E0
1.186059375E0,-7.347497168E-1,-2.547459952E0,-3.975105600E0,4.778166373E0
1.196081375E0,-2.043424992E0,-2.635147136E-1,-4.065304164E0,4.557600646E0
1.206103375E0,-2.919303106E0,1.136877063E0,-2.404080961E0,3.948977760E0
1.216125375E0,-1.674715068E0,1.912061153E0,-5.160582966E-1,2.593639254E0
1.226147375E0,5.639586872E-1,1.519015995E0,1.617333418E0,2.289372485E0
1.236169375E0,2.348856641E0,1.946602410E0,3.276435835E0,4.476764484E0
1.246191375E0,3.672669188E0,1.307199438E0,3.948865635E0,5.548946670E0
1.256214375E0,4.169665269E0,1.364038467E-2,5.349245718E0,6.782383376E0
1.266236375E0,9.703185403E-1,-1.143676205E0,6.406835121E0,6.580049361E0
1.276258375E0,-7.669822007E-1,-2.527484694E0,5.546163568E0,6.142993643E0
1.286280375E0,-1.474970089E0,-3.707708336E0,2.531667207E0,4.725672091E0
1.296302375E0,-3.849427886E0,-6.863503833E0,-1.261321015E0,7.969737174E0
1.306324375E0,-4.167788313E0,-7.295864500E0,-2.765621322E0,8.845832890E0
1.316346375E0,-2.808073277E0,-4.572143741E0,-6.068861378E0,8.100669870E0
1.326369375E0,-7.612092447E-1,-2.725570818E0,-7.573128356E0,8.084580935E0
1.336391375E0,-2.760973370E-1,-1.605746575E0,-6.596146914E0,6.794395184E0
1.346413375E0,-9.637760907E-1,-5.609549725E-1,-4.175224217E0,4.321577501E0
1.356435375E0,-1.740858772E0,-5.077897489E-2,-1.763681039E0,2.478656607E0
1.366457375E0,-1.314031910E0,8.573936033E-1,-6.843487644E-1,1.711764260E0
1.376479375E0,-9.706471539E-1,2.228227705E0,-8.319243014E-2,2.431887247E0
1.386501375E0,-1.056900601E0,2.897197123E0,2.575277495E-1,3.094690710E0
1.396523375E0,-1.640132881E0,3.248806572E0,1.020323929E0,3.779661483E0
1.406546375E0,-2.498863742E0,3.024943582E0,1.226365190E0,4.110787669E0
1.416568375E0,-2.302077454E0,2.826596671E0,1.398974411E0,3.904656035E0
1.426590375E0,-2.254333768E0,2.560941877E0,1.444776821E0,3.705107839E0
1.436612375E0,-2.566745238E0,2.423628203E0,1.450530189E0,3.816568172E0
1.446634375E0,-4.663136941E-1,2.090669618E0,1.817038636E0,2.808910343E0
1.456656375E0,3.386385709E-1,1.989994597E0,2.251358120E0,3.023800252E0
1.466678375E0,1.063153029E0,1.879065315E0,3.380621524E0,4.011207139E0
1.476701375E0,1.361786705E0,1.575947410E0,3.268717511E0,3.875898274E0
1.486723375E0,1.997344548E-1,2.195307881E0,2.940557150E0,3.675071006E0
1.496745375E0,9.787057865E-1,3.013988239E0,2.194814960E0,3.854763654E0
1.506767375E0,3.623723023E0,3.332733412E0,6.576611951E-1,4.966990919E0
1.516789375E0,7.611459779E0,3.053537051E0,-1.552566733E0,8.346788121E0
1.526811375E0,9.149224870E0,2.567742189E0,-3.768783965E0,1.022278574E1
1.536833375E0,7.234578663E0,1.616672682E0,-4.752284468E0,8.805507746E0
1.546855375E0,6.180729724E0,1.088542809E0,-4.991800747E0,8.019003682E0
1.556878375E0,6.528604556E0,7.609560603E-1,-4.353448520E0,7.883796395E0
1.566900375E0,6.373551015E0,2.765855795E-1,-3.932357191E0,7.494136722E0
1.576922375E0,6.878269222E0,-5.638826734E-1,-3.365585116E0,7.678262455E0
1.586944375E0,7.609905589E0,-1.276831339E0,-1.315222695E0,7.827564888E0
1.596966375E0,7.019664252E0,-1.931826496E0,1.613265802E0,7.457229135E0
1.606988375E0,6.062688473E0,-1.365083365E0,3.148105239E0,6.966362803E0
1.617010375E0,5.120631280E0,-8.419353193E-1,2.220874831E0,5.644643904E0
1.627033375E0,4.788478441E0,-3.404155397E-1,2.375376687E0,5.356101467E0
1.637055375E0,3.823648097E0,-2.922555327E-1,1.070414394E0,3.981392349E0
1.647077375E0,2.624540580E0,-1.280244943E0,-7.757661805E-1,3.021432365E0
1.657099375E0,1.635682273E0,-2.858334188E0,-6.998468095E-1,3.366796161E0
1.667121375E0,-1.038801715E-1,-4.037103043E0,2.609074402E-1,4.046858629E0
1.677143375E0,-4.352090504E0,-4.927729881E0,4.306415856E-2,6.574577405E0
1.687165375E0,-6.655070475E0,-5.200907704E0,-2.322984466E0,8.759889314E0
1.697188375E0,-6.612477602E0,-5.205182603E0,-4.886028709E0,9.730984663E0
1.707210375E0,-7.724605740E0,-6.538397473E0,-5.384621957E0,1.146360890E1
1.717232375E0,-8.368463121E0,-6.210266349E0,-3.577952773E0,1.101818175E1
1.727254375E0,-6.736780052E0,-4.289815026E0,-1.997162699E0,8.232580231E0
1.737276375E0,-5.337402767E0,-2.526932716E0,-5.483121228E-1,5.930759094E0
1.747298375E0,-4.868383566E0,-1.250136461E0,1.784190148E-2,5.026362308E0
1.757319875E0,-3.826728410E0,4.067855304E-1,1.300257039E-1,3.850484577E0
1.767342875E0,-3.491847845E0,2.387474869E0,2.122217685E-1,4.235336551E0
1.777364875E0,-3.082522284E0,3.517201372E0,1.310188535E-1,4.678655262E0
1.787386875E0,-3.117029627E0,3.789563507E0,-2.936110635E-1,4.915574506E0
1.797408875E0,-3.307160030E0,4.016609722E0,-4.494814606E-1,5.222307412E0
1.807430875E0,-3.601627564E0,4.356510122E0,-1.288575764E-1,5.653981414E0
1.817452875E0,-3.557305962E0,4.325611095E0,-2.576290525E-1,5.606399003E0
1.827474875E0,-2.210283623E0,3.500896996E0,1.021846251E-1,4.141506389E0
1.837496875E0,-1.703936382E0,2.831324730E0,4.555583256E-1,3.335765626E0
1.847519875E0,-1.663677718E0,2.387820439E0,6.656293420E-1,2.985393177E0
1.857541875E0,-2.816687687E0,2.057313591E0,1.067166119E0,3.647617341E0
1.867563875E0,-4.285219407E0,1.403137629E0,1.543157979E0,4.765840652E0
1.877585875E0,-4.697168321E0,8.503026849E-1,1.593524140E0,5.032466997E0
1.887607875E0,-3.798069160E0,4.508425462E-1,7.869381630E-1,3.904850831E0
1.897629875E0,-1.940847288E0,5.963347203E-1,-5.849098821E-1,2.112965420E0
1.907651875E0,-2.607347281E-1,9.514507449E-1,-1.509734709E0,1.803479972E0
1.917674875E0,1.090633042E0,1.185783759E0,-1.607632302E0,2.275971260E0
1.927696875E0,1.364594976E0,1.107292491E0,-6.081718236E-1,1.859593793E0
1.937718875E0,1.345256041E0,8.994029242E-1,1.045984434E0,1.926842722E0
1.947740875E0,1.653535430E0,5.250454670E-1,2.570714328E0,3.101358463E0
1.957762875E0,1.893712006E0,6.272074342E-2,3.465555840E0,3.949703322E0
1.967784875E0,1.995229171E0,-1.016567677E-1,3.862401688E0,4.348496331E0
1.977806875E0,2.313735925E0,-1.219688255E-1,3.627059444E0,4.303929662E0
1.987828875E0,2.810643128E0,-4.017054695E-1,3.647774960E0,4.622482475E0
1.997851875E0,3.457997436E0,-6.953637493E-1,3.516202083E0,4.980457218E0
2.007873875E0,3.921401848E0,-1.036532410E0,3.441921394E0,5.319644234E0
2.017895875E0,4.211561446E0,-1.311033458E0,3.934887282E0,5.910955630E0
2.027917875E0,4.545133697E0,-1.433639045E0,4.595955942E0,6.620904187E0
2.037939875E0,4.694050001E0,-1.410478808E0,4.566867213E0,6.699241153E0
2.047961875E0,4.196718290E0,-1.279074916E0,3.784484031E0,5.794031103E0
2.057983875E0,3.340007933E0,-8.572620410E-1,2.918480988E0,4.517530573E0
2.068006875E0,3.525854666E0,3.207343966E-1,3.203498837E0,4.774612704E0
2.078028875E0,3.855138277E0,1.425319042E0,3.686121000E0,5.520970343E0
2.088050875E0,3.314121433E0,1.552763200E0,3.477756640E0,5.048689500E0
2.098072875E0,1.877247123E0,9.789759278E-1,2.950024377E0,3.631128537E0
2.108094875E0,1.467564736E0,8.716210485E-1,1.962765284E0,2.601137648E0
2.118116875E0,1.573242196E0,1.210906906E0,1.685941722E0,2.604570220E0
2.128138875E0,1.362878234E0,1.778437073E0,1.573792126E0,2.738082752E0
2.138161875E0,7.155264106E-1,1.906934899E0,1.476014986E0,2.515352658E0
2.148183875E0,-1.376554798E-1,1.731371080E0,8.289100617E-1,1.924496489E0
2.158205875E0,-3.731866253E-1,1.524813509E0,-1.894615181E-1,1.581208450E0
2.168227875E0,-5.307272065E-1,7.565396583E-1,-3.155911857E-1,9.765354160E-1
2.178249875E0,-7.516087744E-1,-5.970925194E-1,4.568963148E-2,9.610009204E-1
2.188271875E0,-2.012481235E0,-4.357191322E0,7.822364169E-1,4.862827444E0
2.198293875E0,-3.552195496E0,-9.913823161E0,1.698965811E0,1.066716773E1
2.208316875E0,-4.824375082E0,-1.592440183E1,2.496399141E0,1.682537302E1
2.218338875E0,-6.049191345E0,-2.005361548E1,2.904352945E0,2.114652396E1
2.228360875E0,-7.965160192E0,-1.977811573E1,9.196166756E-1,2.134158695E1
2.238382875E0,-8.811633536E0,-1.519168139E1,-2.829937770E0,1.778877784E1
2.248404875E0,-8.289445603E0,-9.080702519E0,-4.966840153E0,1.326060209E1
2.258426875E0,-6.250579977E0,-5.054464772E0,-5.851684095E0,9.942815040E0
2.268448875E0,-3.853094090E0,-3.068557379E0,-6.795791906E0,8.393161865E0
2.278470875E0,-1.574485606E0,-7.156003779E-1,-7.557540849E0,7.752903489E0
2.288493875E0,8.326340072E-2,1.477884926E0,-8.255025383E0,8.386687113E0
2.298515875E0,1.529280343E0,3.547744887E0,-7.633863385E0,8.555761938E0
2.308537875E0,2.810864738E0,5.945620199E0,-6.560996377E0,9.289673492E0
2.318559875E0,4.050263371E0,7.526829518E0,-4.552940900E0,9.684372298E0
2.328581875E0,4.899207163E0,8.494509795E0,-3.239334667E0,1.032725600E1
2.338603875E0,5.185590922E0,9.094803665E0,-2.202185522E0,1.069838436E1
2.348625875E0,5.049660700E0,9.562251719E0,-1.698652107E0,1.094628476E1
2.358648875E0,4.092832271E0,9.469734734E0,-1.187789354E0,1.038450747E1
2.368670875E0,2.703642590E0,8.711861910E0,-7.637989765E-1,9.153666483E0
2.378692875E0,1.567125131E0,7.644822822E0,-2.632781938E-2,7.803838178E0
2.388714875E0,6.319186820E-1,7.165150579E0,8.739485326E-1,7.245860202E0
2.398736875E0,-4.491648339E-1,6.212349712E0,1.214020841E0,6.345776910E0
2.408758875E0,-8.568512741E-1,4.980028548E0,1.132149589E0,5.178478650E0
2.418780875E0,-1.706572892E0,3.854657051E0,9.186420178E-1,4.314472757E0
2.428803875E0,-2.523805041E0,3.022446236E0,1.077645353E0,4.082412600E0
2.438825875E0,-2.742669539E0,2.764837210E0,5.190529481E-1,3.928864589E0
2.448847875E0,-3.091843330E0,2.070830015E0,6.983554772E-1,3.786229325E0
2.458869875E0,-3.985069841E0,1.602406645E0,1.831086864E0,4.669193484E0
2.468891875E0,-4.373594517E0,8.179593962E-1,2.907127449E0,5.314957815E0
2.478913875E0,-4.107455572E0,-8.657679856E-2,4.007023504E0,5.738895729E0
2.488935875E0,-3.077277331E0,-9.256042975E-1,4.456893951E0,5.494568480E0
2.498957875E0,-1.839905489E0,-1.856151246E0,4.546217771E0,5.243915110E0
2.508980875E0,-6.305111110E-1,-3.248215418E0,4.408759087E0,5.512313884E0
2.519002875E0,7.288000287E-1,-4.794343198E0,4.235683550E0,6.438780266E0
2.529024875E0,2.395623841E0,-6.107153624E0,4.279124269E0,7.832448116E0
2.539046875E0,4.263463964E0,-6.937327854E0,4.151906691E0,9.140129753E0
2.549068875E0,6.098416715E0,-6.623625904E0,3.469576970E0,9.648889619E0
2.559090875E0,7.797688335E0,-5.411353673E0,3.104783803E0,9.986309348E0
2.569112875E0,9.645508468E0,-3.319037479E0,3.863453895E0,1.090770917E1
2.579135875E0,1.064577411E1,-5.642422771E-1,4.282775563E0,1.148882249E1
2.589157875E0,1.110809825E1,1.829167516E0,4.783489596E0,1.223182215E1
2.599179875E0,1.109426140E1,3.463242681E0,3.145471946E0,1.204037705E1
2.609201875E0,9.082336231E0,3.363777450E0,-1.956192721E0,9.880815762E0
2.619223875E0,4.382369433E0,7.490587306E-1,-4.735636568E0,6.495575766E0
2.629245875E0,4.897654143E-1,-1.233068438E0,-8.759669915E0,8.859579276E0
2.639267875E0,-3.609377464E0,-3.070650682E0,-1.300167694E1,1.383835628E1
2.649290875E0,-5.376637584E0,-5.794357992E0,-9.559079019E0,1.240398355E1
2.659312875E0,-5.355701044E0,-9.421118059E0,-5.797611383E0,1.229037416E1
2.669334875E0,-5.999685309E0,-1.191850830E1,-1.620336840E0,1.344144916E1
2.679356875E0,-8.293446268E0,-1.145875928E1,5.986712676E-1,1.415778311E1
2.689378875E0,-1.369040293E1,-1.011132573E1,1.037281439E-1,1.701989424E1
2.699400875E0,-1.730615853E1,-9.007546835E0,-4.294277036E-1,1.951469783E1
2.709422875E0,-1.647599190E1,-6.559897685E0,-9.326621792E-1,1.775839029E1
2.719444875E0,-1.204292419E1,-3.141906021E0,-1.805260590E0,1.257626981E1
2.729467875E0,-7.658829827E0,-5.054912084E-1,-1.422329068E0,7.806165234E0
2.739489875E0,-6.067076223E0,-1.618620390E-1,-1.293180739E0,6.205475779E0
2.749511875E0,-4.815331779E0,-3.580536658E-1,-9.844465828E-1,4.927956741E0
2.759534125E0,-3.663627931E0,-3.349793833E-1,6.530287385E-2,3.679489811E0
2.769556125E0,-2.604550411E0,4.187407476E-1,1.543923964E0,3.056587618E0
2.779578125E0,-1.425557754E0,1.728655633E0,2.484390129E0,3.345543233E0
2.789600125E0,3.568779369E-1,3.784941868E0,2.163061656E0,4.374012178E0
2.799623125E0,1.634437547E0,5.422606055E0,8.992970896E-1,5.734525069E0
2.809645125E0,2.396975571E0,6.602932608E0,-2.272830266E-1,7.028219439E0
2.819667125E0,2.924096361E0,8.000323008E0,-6.635164507E-1,8.543755723E0
2.829689125E0,2.989130848E0,8.540715078E0,-1.096347819E0,9.114861261E0
2.839711125E0,2.552653156E0,8.639620730E0,4.012488019E-1,9.017764973E0
2.849733125E0,2.361183302E0,8.368894646E0,2.082250066E0,8.941440013E0
2.859755125E0,1.722225157E0,7.603856644E0,3.093979903E0,8.387932224E0
2.869777125E0,-5.663097795E-2,6.386654041E0,2.868559799E0,7.001513567E0
2.879800125E0,-1.208732765E0,5.415310484E0,2.399912335E0,6.045345461E0
2.889822125E0,-1.108369840E0,3.721287909E0,1.884343743E0,4.315926175E0
2.899844125E0,-4.567097155E-1,1.108363116E0,4.427271956E-1,1.277912333E0
2.909866125E0,-1.170091989E-1,-1.089635653E0,-6.635135271E-1,1.281111709E0
2.919888125E0,5.222809765E-1,-1.816760309E0,-2.522034211E-1,1.907092552E0
2.929910125E0,1.136098872E0,-1.621165098E0,3.468293506E-1,2.009773002E0
2.939932125E0,1.394758861E0,-1.369192788E0,9.356900867E-1,2.166923421E0
2.949955125E0,1.717082824E0,-1.010574281E0,1.805087512E0,2.688489302E0
2.959977125E0,1.904822592E0,-7.752150804E-1,3.242717866E0,3.839860244E0
2.969999125E0,2.418644329E0,-2.428909993E-1,5.267613325E0,5.801429700E0
2.980021125E0,3.211245813E0,3.735499567E-1,6.395568121E0,7.166235471E0
2.990043125E0,4.455243574E0,1.103897597E0,6.869504830E0,8.261832837E0
3.000065125E0,5.470638008E0,1.727889063E0,7.145609769E0,9.163690293E0
3.010087125E0,5.958415661E0,2.249386439E0,6.948336992E0,9.425595127E0
3.020109125E0,6.386251752E0,2.459937658E0,7.177930253E0,9.917569634E0
3.030132125E0,6.597232157E0,2.328864718E0,6.490456152E0,9.543222939E0
3.040154125E0,6.093243683E0,1.805313799E0,4.973355705E0,8.069761054E0
3.050176125E0,5.266936217E0,1.339093661E0,3.999458084E0,6.747551698E0
3.060198125E0,4.387799158E0,1.383472858E0,3.676381878E0,5.889190293E0
3.070220125E0,2.485065483E0,1.579326516E0,2.199373450E0,3.675196086E0
3.080242125E0,2.768949886E-1,1.726350076E0,8.380521834E-2,1.750422444E0
3.090264125E0,-2.891059848E-1,1.829241191E0,-9.103237689E-1,2.063587887E0
3.100287125E0,-2.424725397E-1,1.705196604E0,-6.456922370E-1,1.839403940E0
3.110309125E0,-7.723138564E-2,9.873678517E-1,-9.581816210E-1,1.378031923E0
3.120331125E0,-3.561911814E-1,-4.230723649E-1,-1.019252719E0,1.159628599E0
3.130353125E0,-8.734175324E-1,-2.239945525E0,-1.823289310E0,3.017382649E0
3.140375125E0,-1.176066783E0,-3.932277085E0,-3.110307083E0,5.149752062E0
3.150397125E0,-1.788123132E0,-6.206496649E0,-3.871828569E0,7.530540582E0
3.160419125E0,-2.545301452E0,-1.004525454E1,-3.346743341E0,1.088973779E1
3.170442125E0,-3.275549397E0,-1.433614019E1,-1.903425254E0,1.482825570E1
3.180464125E0,-3.766227270E0,-1.714497185E1,-1.451078950E0,1.761363556E1
3.190486125E0,-3.959097093E0,-1.784689266E1,-1.337821307E0,1.832964248E1
3.200508125E0,-3.892354635E0,-1.637113729E1,-1.463599155E0,1.689102375E1
3.210530125E0,-3.843497640E0,-1.302163933E1,-1.398149954E0,1.364882369E1
3.220552125E0,-3.231257324E0,-9.286868911E0,-1.437447921E0,9.937465200E0
3.230574125E0,-2.003730876E0,-6.140921879E0,-2.475723094E0,6.917735453E0
3.240597125E0,-7.465021817E-1,-3.573970234E0,-3.860622088E0,5.313655206E0
3.250619125E0,2.401236583E-1,-1.320243407E0,-6.413002764E0,6.551893350E0
3.260641125E0,1.302319352E0,5.392144400E-1,-1.001651664E1,1.011520605E1
3.270663125E0,1.929557630E0,1.316876580E0,-9.457695317E0,9.741938066E0
3.280685125E0,2.233650413E0,2.117256907E0,-6.834087660E0,7.495113416E0
3.290707125E0,2.323075390E0,3.382861592E0,-4.104579327E0,5.804136738E0
3.300729125E0,2.419979395E0,5.584735896E0,-1.947442947E0,6.390470196E0
3.310751125E0,3.116770595E0,8.549771830E0,-2.360726781E0,9.401376932E0
3.320774125E0,3.043763722E0,9.730475528E0,-3.585128476E0,1.080739551E1
3.330796125E0,2.833556027E0,1.086337473E1,-2.841003918E0,1.158072768E1
3.340818125E0,1.703802189E0,1.130473309E1,-1.117911619E0,1.148693426E1
3.350840125E0,2.562920867E-1,1.091405723E1,-1.947266069E-1,1.091880255E1
3.360862125E0,-7.647180127E-1,1.027288430E1,-4.599302888E-2,1.030141063E1
3.370884125E0,-1.868330558E0,9.156094764E0,-2.243260896E-1,9.347462361E0
3.380906125E0,-3.222760150E0,7.611359206E0,-3.758204305E-1,8.274068706E0
3.390929125E0,-4.279836752E0,6.380528498E0,-2.686146551E-1,7.687671973E0
3.400951125E0,-4.900889992E0,5.466465434E0,2.392481840E-1,7.345625008E0
3.410973125E0,-5.140180276E0,4.653400158E0,7.228076559E-1,6.971229246E0
3.420995125E0,-5.043108310E0,3.903748519E0,7.435027063E-1,6.420668984E0
3.431017125E0,-4.504558991E0,3.074788756E0,4.132817870E-1,5.469568487E0
3.441039125E0,-3.486320179E0,2.264288068E0,-1.661579883E-1,4.160413120E0
3.451061125E0,-2.414011288E0,1.263109678E0,-4.716919631E-1,2.765029812E0
3.461083125E0,-1.399450960E0,-2.730632168E-1,-7.645380646E-1,1.617882864E0
3.471106125E0,-2.787883718E-1,-2.518642534E0,-1.244100380E0,2.822953936E0
3.481128125E0,1.411127703E0,-5.072316322E0,-7.644380772E-1,5.320154118E0
3.491150125E0,3.772676749E0,-7.379408932E0,1.382091161E0,8.402317658E0
3.501172125E0,7.209304658E0,-9.057925276E0,2.270309531E0,1.179721956E1
3.511194125E0,1.065110794E1,-9.505868772E0,2.634854776E0,1.451723462E1
3.521216125E0,1.322365128E1,-8.083478601E0,4.162584876E0,1.604788747E1
3.531238125E0,1.421783932E1,-4.528127071E0,5.941318987E0,1.606082691E1
3.541261125E0,1.294875496E1,3.132417744E-1,6.493627682E0,1.448915373E1
3.551283125E0,1.126338626E1,4.704420623E0,5.276043840E0,1.329782246E1
3.561305125E0,9.145888449E0,7.563331931E0,4.074534287E0,1.254803152E1
3.571327125E0,4.673496453E0,6.116076475E0,5.822350368E-1,7.719258914E0
3.581349125E0,1.862500738E0,2.486786903E0,-3.268230145E0,4.509362082E0
3.591371125E0,1.952186501E-1,-9.465022463E-1,-6.264757136E0,6.338861002E0
3.601393125E0,-1.384093832E0,-4.757416277E0,-8.773014430E0,1.007544081E1
3.611415125E0,-2.923223664E0,-1.037411598E1,-8.205273179E0,1.354599671E1
3.621438125E0,-7.019291199E0,-1.687162738E1,-6.576312574E0,1.942086884E1
3.631460125E0,-9.976884212E0,-2.036981887E1,-4.102744471E0,2.304995123E1
3.641482125E0,-1.307816553E1,-1.821550933E1,1.303749581E0,2.246203367E1
3.651504125E0,-1.618237046E1,-1.369374987E1,3.585645955E0,2.149987805E1
3.661526125E0,-1.461503717E1,-8.710656799E0,1.268547881E0,1.706118598E1
3.671548125E0,-8.116055194E0,-3.480532898E0,-1.608781572E0,8.976226340E0
3.681570125E0,-4.840054099E0,-1.800122057E0,-2.780894834E0,5.865146134E0
3.691593125E0,-2.767867237E0,-8.887282473E-1,-3.123726443E0,4.267152895E0
3.701615125E0,-1.172259150E0,2.433038127E-1,-2.544742751E0,2.812312914E0
3.711637125E0,-4.512821107E-1,6.135038996E-1,-7.759348726E-1,1.087252273E0
3.721659125E0,2.108087888E-1,6.696500337E-1,7.778603607E-1,1.047825488E0
3.731681125E0,6.263918938E-1,1.149949683E0,9.495989317E-1,1.617556555E0
3.741703125E0,8.081012830E-1,2.085709425E0,1.240271038E0,2.557632447E0
3.751725125E0,1.178986517E0,3.246385240E0,1.117200013E0,3.630036116E0
3.761748000E0,1.159543210E0,4.492013497E0,-1.126103568E-1,4.640625691E0
3.771771000E0,5.432368858E-1,5.531877651E0,-1.676722417E0,5.805874157E0
3.781793000E0,-8.548263102E-1,6.149429578E0,-2.571086211E0,6.719873248E0
3.791815000E0,-1.566645952E0,6.622786828E0,-2.589388581E0,7.281525811E0
3.801837000E0,-1.628962652E0,6.930359727E0,-1.503468833E0,7.276250669E0
3.811859000E0,-1.581073956E0,7.115022399E0,-5.124587506E-1,7.306569138E0
3.821881000E0,-1.685047098E0,6.778004676E0,1.647175267E-2,6.984339799E0
3.831903000E0,-1.705418798E0,6.387776121E0,6.555810481E-1,6.643938859E0
3.841926000E0,-1.677394701E0,5.771845627E0,1.190534184E0,6.127415978E0
3.851948000E0,-1.751446471E0,4.758247166E0,7.343724252E-1,5.123259089E0
3.861970000E0,-1.455353850E0,3.399106911E0,3.859402066E-1,3.717651472E0
3.871992000E0,-5.259711909E-1,1.979421662E0,2.235560113E-1,2.060275006E0
3.882014000E0,4.697385180E-1,6.632093257E-1,2.458267401E-1,8.490769524E-1
3.892036000E0,1.295150081E0,-2.834905565E-1,1.699370438E-1,1.336659727E0
3.902058000E0,1.862291992E0,-9.034497821E-1,-1.416615169E-1,2.074709849E0
3.912080000E0,1.979740774E0,-1.308886360E0,-1.935024923E-1,2.381176232E0
3.922103000E0,1.916599908E0,-1.459842757E0,2.233244616E-1,2.419580521E0
3.932125000E0,1.913614904E0,-1.509969767E0,1.919095938E0,3.102395836E0
3.942147000E0,1.894616716E0,-1.355330794E0,3.284937102E0,4.027071619E0
3.952169000E0,1.978287010E0,-7.732872534E-1,4.245936935E0,4.747586031E0
3.962191000E0,2.569526174E0,-1.113958901E-1,5.136282522E0,5.744238152E0
3.972213000E0,3.286837447E0,4.520201755E-1,5.813047448E0,6.693216213E0
3.982235000E0,3.910870428E0,1.048095279E0,6.449998682E0,7.615503543E0
3.992258000E0,4.187460393E0,1.255339898E0,6.852244434E0,8.127973708E0
4.002280000E0,4.151216427E0,1.019964325E0,6.829255521E0,8.056777024E0
4.012302000E0,3.708540394E0,4.995171082E-1,6.243938125E0,7.279392317E0
4.022324000E0,3.193310648E0,1.172156239E-1,5.208680407E0,6.110754780E0
4.032346000E0,2.711542763E0,1.223214126E-1,3.841687927E0,4.703827464E0
4.042368000E0,2.126477674E0,3.895315665E-1,2.886650500E0,3.606437750E0
4.052390000E0,1.389173016E0,7.062828398E-1,1.970807544E0,2.512512586E0
4.062413000E0,1.130431092E0,9.022762460E-1,1.020850763E0,1.770342667E0
4.072435000E0,1.564092034E0,1.219437409E0,-1.051896554E-1,1.986070580E0
4.082457000E0,1.859308158E0,1.637944853E0,-1.054100955E-1,2.480121258E0
4.092479000E0,1.674687733E0,1.628088201E0,9.463759464E-1,2.520094765E0
4.102501000E0,1.375541549E0,9.050647831E-1,1.040489221E0,1.947787112E0
4.112523000E0,9.878953437E-1,-3.267073274E-1,3.943087417E-1,1.112723807E0
4.122545000E0,2.848108030E-1,-2.087075919E0,-3.230429504E-1,2.131046652E0
4.132567000E0,-4.741823653E-1,-4.496979538E0,-1.305141364E0,4.706492097E0
4.142590000E0,-1.043827250E0,-7.364575131E0,-2.619049167E0,7.885807551E0
4.152612000E0,-1.468322243E0,-1.050089531E1,-3.613018525E0,1.120172644E1
4.162634000E0,-2.143594228E0,-1.363704474E1,-3.411288416E0,1.421973538E1
4.172656000E0,-3.268751132E0,-1.573255118E1,-2.417960790E0,1.624944414E1
4.182678000E0,-4.659988508E0,-1.612991392E1,-1.317035040E0,1.684114596E1
4.192700000E0,-5.819238480E0,-1.496897732E1,-2.636568010E-1,1.606248217E1
4.202722000E0,-5.967609238E0,-1.214463534E1,1.748434424E-1,1.353274169E1
4.212744000E0,-5.030951364E0,-8.559020371E0,-7.666913018E-1,9.957666237E0
4.222767000E0,-3.716427119E0,-5.391172008E0,-2.431805827E0,6.985001484E0
4.232789000E0,-2.023537442E0,-2.623923406E0,-5.035500498E0,6.027930249E0
4.242811000E0,-4.658630931E-1,-4.878320324E-1,-7.408094788E0,7.438741620E0
4.252833000E0,1.643848933E-1,8.760105532E-1,-8.020923918E0,8.070293513E0
4.262855000E0,4.594160993E-1,2.072133359E0,-7.471457555E0,7.767076529E0
4.272877000E0,1.401081602E0,4.466057707E0,-5.833662976E0,7.479326495E0
4.282899000E0,2.753820471E0,7.030307938E0,-3.824971322E0,8.463992114E0
4.292922000E0,3.429352804E0,8.677211310E0,-3.261621915E0,9.883958432E0
4.302944000E0,4.110297612E0,1.070042102E1,-1.911966136E0,1.162106582E1
4.312966000E0,4.143674980E0,1.206158265E1,-1.025020997E0,1.279462725E1
4.322988000E0,2.261125748E0,1.164575207E1,-1.278555975E0,1.193192927E1
4.333010000E0,-6.561881353E-1,9.973319750E0,-1.625311651E0,1.012617043E1
4.343032000E0,-1.464251704E0,8.995205117E0,-1.056875751E0,9.174678986E0
4.353054000E0,-1.695428976E0,8.407564037E0,-2.324098653E-1,8.579954941E0
4.363076000E0,-2.441136375E0,7.764691912E0,2.185861704E-1,8.142319522E0
4.373099000E0,-3.338024558E0,7.121909249E0,1.015436826E0,7.930643811E0
4.383121000E0,-4.070834461E0,6.382956846E0,1.425131346E0,7.703559610E0
4.393143000E0,-4.438756472E0,5.639043081E0,1.140657873E0,7.266530553E0
4.403165000E0,-4.516906264E0,4.824514831E0,5.390214819E-1,6.630907156E0
4.413187000E0,-4.123517289E0,3.895738419E0,5.339589626E-2,5.673008354E0
4.423209000E0,-3.121586947E0,2.926744857E0,-2.465803000E-1,4.286133732E0
4.433231000E0,-2.258577239E0,1.820047029E0,-3.837358063E-1,2.925917890E0
4.443254000E0,-1.759202803E0,3.598341429E-1,-9.714242488E-2,1.798252419E0
4.453276000E0,-1.062922941E0,-1.394460946E0,2.253551996E-1,1.767798482E0
4.463298000E0,8.240978032E-2,-3.364818839E0,3.104544067E-1,3.380115254E0
4.473320000E0,1.691820221E0,-5.340728078E0,1.304508257E0,5.752162538E0
4.483342000E0,3.578799450E0,-7.088221101E0,2.997990841E0,8.487557538E0
4.493364000E0,5.691728833E0,-8.606037247E0,3.898388962E0,1.102982732E1
4.503386000E0,8.506465012E0,-9.211075548E0,2.718205081E0,1.282936080E1
4.513408000E0,1.137277129E1,-8.262056075E0,2.152466209E0,1.422092150E1
4.523431000E0,1.276066991E1,-5.632612898E0,3.253816466E0,1.432300060E1
4.533453000E0,1.246001544E1,-1.835445671E0,3.699286298E0,1.312652142E1
4.543475000E0,1.106320566E1,2.184781138E0,2.860787388E0,1.163408323E1
4.553497000E0,8.525685394E0,4.039129688E0,2.524094186E0,9.765906591E0
4.563519000E0,4.682126651E0,1.631226987E0,1.926859579E0,5.319398396E0
4.573541000E0,2.809329551E0,-1.703840634E0,6.597112289E-1,3.351212369E0
4.583563000E0,1.035034938E0,-3.974489889E0,-9.380231988E-1,4.212808412E0
4.593585000E0,-7.857614109E-1,-5.301123717E0,-2.972427399E0,6.128185564E0
4.603608000E0,-2.743558900E0,-6.212932679E0,-4.837152418E0,8.338206727E0
4.613630000E0,-4.319619161E0,-6.520721925E0,-4.106098141E0,8.833966610E0
4.623652000E0,-7.018109477E0,-6.860246349E0,-3.827956618E0,1.053423431E1
4.633674000E0,-9.851786542E0,-6.624955561E0,-3.250978228E0,1.230920768E1
4.643696000E0,-1.166932453E1,-5.970893619E0,-1.560171914E0,1.320071369E1
4.653718000E0,-1.214248239E1,-6.934812967E0,-1.127118937E0,1.402861029E1
4.663740000E0,-1.011125440E1,-8.027353517E0,-2.153818962E0,1.308872821E1
4.673762000E0,-6.599707283E0,-6.860400131E0,-2.335701867E0,9.801873770E0
4.683785000E0,-4.952512136E0,-5.293619986E0,-2.635575153E0,7.713367967E0
4.693807000E0,-4.018305707E0,-3.262935784E0,-2.075036502E0,5.576675279E0
4.703829000E0,-3.678531899E0,-1.339262645E0,-4.558726135E-1,3.941197940E0
4.713851000E0,-3.488450612E0,-1.808333302E-1,9.223836511E-1,3.612863126E0
4.723873000E0,-3.165875512E0,4.740232480E-1,1.746408364E0,3.646561116E0
4.733895000E0,-2.719373939E0,9.637755060E-1,1.879355191E0,3.443230137E0
4.743917000E0,-2.053126108E0,1.533240516E0,1.633504916E0,3.038830631E0
4.753940000E0,-1.085674896E0,2.473782111E0,1.125990571E0,2.926797341E0
4.763960542E0,-2.644951455E-1,3.652690129E0,2.163661288E-1,3.668639689E0
4.773982542E0,4.600932799E-1,4.557588851E0,-6.546133339E-1,4.627290847E0
4.784004542E0,8.908823615E-1,5.325301369E0,-1.405173191E0,5.579159234E0
4.794026542E0,1.589551103E0,5.940790983E0,-1.869717079E0,6.427714382E0
4.804048542E0,9.195231201E-1,5.964816608E0,-1.117745558E0,6.137908037E0
4.814070542E0,-1.874688236E-1,5.432962643E0,-1.304059045E0,5.590420166E0
4.824092542E0,-5.805999360E-1,5.214539317E0,-9.204039301E-1,5.326880886E0
4.834115542E0,-1.041266316E0,5.253880554E0,-2.651801468E-1,5.362631530E0
4.844137542E0,-1.442471849E0,5.227513704E0,4.357162379E-1,5.440355981E0
4.854159542E0,-1.397694017E0,5.077467134E0,1.240114333E0,5.410370100E0
4.864181542E0,-1.236993528E0,4.393439382E0,1.095022693E0,4.693776442E0
4.874203542E0,-8.362574536E-1,3.300407665E0,1.750116961E-1,3.409200255E0
4.884225542E0,1.092291678E-1,1.978298997E0,-6.346290126E-2,1.982328296E0
4.894247542E0,1.200944566E0,7.879889077E-1,-3.185840830E-2,1.436735650E0
4.904269542E0,2.161909900E0,7.873100460E-2,7.906020284E-3,2.163357459E0
4.914292542E0,2.941014695E0,-6.105194807E-2,2.642719281E-1,2.953495290E0
4.924314542E0,3.195995690E0,-2.100319862E-2,9.683193773E-1,3.339531704E0
4.934336542E0,2.655767635E0,-1.797510105E-1,1.929860516E0,3.287822040E0
4.944358542E0,1.406508987E0,-3.845737123E-1,2.958363091E0,3.298192937E0
4.954380542E0,9.882617448E-1,-4.482124686E-2,3.538114523E0,3.673816081E0
4.964402542E0,1.089551527E0,3.806157321E-1,3.730152873E0,3.904616667E0
4.974424542E0,1.321612094E0,2.579949421E-1,4.513440034E0,4.710027692E0
4.984447542E0,1.709032085E0,-1.515960824E-1,5.831895947E0,6.079044529E0
4.994469542E0,1.688446962E0,-4.590836120E-1,6.841830543E0,7.062029176E0
5.004491542E0,1.398247456E0,-6.399643046E-1,7.479201023E0,7.635646548E0
5.014513542E0,8.541817278E-1,-8.629712623E-1,7.870412495E0,7.963525517E0
5.024535542E0,8.908116833E-1,-8.417733514E-1,7.689230670E0,7.786295405E0
5.034557542E0,1.419606604E0,-1.017012650E0,7.292445048E0,7.498623368E0
5.044579542E0,1.444513258E0,-1.055835823E0,6.147759613E0,6.402839691E0
5.054601542E0,1.208532717E0,-3.384403503E-1,4.411699067E0,4.586739785E0
5.064624542E0,9.905580926E-1,1.564089257E-1,2.617733544E0,2.803247758E0
5.074646542E0,1.345481013E0,1.879359430E-1,1.277724794E0,1.864998585E0
5.084668542E0,2.137670560E0,2.508999306E-1,6.509933227E-1,2.248639257E0
5.094690542E0,2.795908729E0,5.816149396E-1,8.899731195E-1,2.991226122E0
5.104712542E0,3.157505223E0,9.374835008E-1,8.744393333E-1,3.407837833E0
5.114734542E0,3.235019422E0,7.160032511E-1,-6.715913824E-1,3.380687253E0
5.124756542E0,2.870889622E0,-1.016181761E-1,-2.617498485E0,3.886339125E0
5.134779542E0,1.924608108E0,-1.441683059E0,-3.448370873E0,4.204025225E0
5.144801542E0,7.752482633E-1,-3.243966247E0,-4.394000714E0,5.516481592E0
5.154823542E0,-2.826832022E-1,-5.410062023E0,-5.334192061E0,7.602781453E0
5.164845542E0,-1.479008760E0,-8.136992903E0,-5.308340351E0,9.827339299E0
5.174867542E0,-2.693496501E0,-1.117402560E1,-3.582917059E0,1.203956254E1
5.184889542E0,-3.694602094E0,-1.406923701E1,-9.157518853E-1,1.457505116E1
5.194911542E0,-4.625219502E0,-1.610578129E1,1.629375173E0,1.683578659E1
5.204933542E0,-5.602533066E0,-1.687186244E1,2.977918227E0,1.802542970E1
5.214956542E0,-5.961515855E0,-1.470556961E1,2.453412458E0,1.605654638E1
5.224978542E0,-5.025641508E0,-9.697780237E0,4.211196873E-1,1.093075276E1
5.235000542E0,-3.523667223E0,-5.132073112E0,-2.466849360E0,6.696249016E0
5.245022542E0,-2.164696830E0,-1.820906569E0,-5.555978120E0,6.234621558E0
5.255044542E0,-1.059640022E0,4.272911310E-1,-7.478751372E0,7.565522901E0
5.265066542E0,-1.233908683E-2,2.151991707E0,-7.580649630E0,7.880194755E0
5.275088542E0,1.313179386E0,4.645094773E0,-6.328736785E0,7.959538607E0
5.285110542E0,2.243038263E0,6.353223170E0,-4.882697842E0,8.320781425E0
5.295133542E0,2.883635383E0,7.453167465E0,-3.490315289E0,8.720513695E0
5.305155542E0,4.081813778E0,9.458658938E0,-1.817234226E0,1.046086865E1
5.315177542E0,4.502223905E0,1.041313913E1,-9.064979357E-1,1.138091495E1
5.325199542E0,3.960884587E0,1.038393462E1,-7.857839227E-1,1.114146136E1
5.335221542E0,1.183889408E0,9.336697714E0,-8.932230020E-1,9.453748762E0
5.345243542E0,-1.445581106E0,8.092124294E0,-8.838139549E-1,8.267605907E0
5.355265542E0,-1.667011654E0,7.727214183E0,-9.626750600E-1,7.963385597E0
5.365287542E0,-2.066739595E0,7.290048274E0,-8.250693181E-1,7.622135907E0
5.375310542E0,-2.875760645E0,6.767177972E0,-3.821000478E-1,7.362791416E0
5.385332542E0,-3.535130689E0,6.175566047E0,2.037555850E-1,7.118727508E0
5.395354542E0,-4.244014078E0,5.316193162E0,3.187223697E-1,6.809930189E0
5.405376542E0,-5.289573712E0,4.825164456E0,5.402546597E-1,7.180088940E0
5.415398542E0,-5.676833636E0,4.548581216E0,4.701319259E-1,7.289516804E0
5.425420542E0,-5.337550117E0,4.134827558E0,-3.547625604E-1,6.761072153E0
5.435442542E0,-4.432668936E0,3.497375218E0,-1.097355732E0,5.751902026E0
5.445464542E0,-3.421247393E0,2.700385691E0,-1.373910322E0,4.569972230E0
5.455487542E0,-2.768346124E0,1.412079776E0,-6.494952661E-1,3.174831280E0
5.465509542E0,-1.910623615E0,-2.256534076E-1,8.815291554E-1,2.116245664E0
5.475531542E0,-7.554925682E-1,-2.293769730E0,2.840881419E0,3.728639944E0
5.485553542E0,7.289679900E-1,-5.051867439E0,4.843844556E0,7.036731417E0
5.495575542E0,2.658648558E0,-8.262165418E0,6.462548561E0,1.082110546E1
5.505597542E0,5.046163480E0,-1.156164805E1,7.416208384E0,1.463337345E1
5.515619542E0,8.918671496E0,-1.393721507E1,6.002962089E0,1.760182431E1
5.525641542E0,1.358112314E1,-1.338643308E1,1.156179014E0,1.910445619E1
5.535664542E0,1.583862786E1,-9.267972465E0,-2.739794463E0,1.855435042E1
5.545686542E0,1.515855575E1,-3.565425113E0,5.181510150E-2,1.557230726E1
5.555708542E0,1.337709157E1,7.676762652E-1,2.415343283E0,1.361505743E1
5.565730542E0,1.070710088E1,2.322378986E0,2.572688933E0,1.125407400E1
5.575752542E0,6.947741745E0,1.526544285E-1,2.189721451E0,7.286240372E0
5.585774542E0,3.768701227E0,-3.132303724E0,1.433919126E0,5.105933765E0
5.595796542E0,1.422046355E0,-3.958397766E0,9.883794200E-1,4.320650714E0
5.605818542E0,-1.242156181E0,-3.110007706E0,5.606936020E-1,3.395508389E0
5.615841542E0,-3.647466227E0,-2.287253008E0,-5.340150958E-1,4.338284029E0
5.625863542E0,-5.241045331E0,-1.424224443E0,-4.832644799E-1,5.452569668E0
5.635885542E0,-8.501421204E0,-1.225305090E0,-7.750762090E-1,8.624168260E0
5.645907542E0,-1.154727794E1,-8.588799655E-1,-4.071065426E-2,1.157924695E1
5.655929542E0,-1.465950525E1,-1.195887748E0,5.356634259E-1,1.471795423E1
5.665951542E0,-1.699345529E1,-3.332199562E0,-3.289373969E0,1.762671432E1
5.675973542E0,-1.575540210E1,-5.353672060E0,-6.753955078E0,1.795857480E1
5.685995542E0,-1.036509138E1,-4.530827315E0,-7.506315147E0,1.357601866E1
5.696018542E0,-7.567609169E0,-3.288738962E0,-4.977451680E0,9.636365379E0
5.706040542E0,-6.083192319E0,-1.829418946E0,-2.310057149E0,6.759317015E0
5.716062542E0,-4.566578946E0,-4.603319925E-1,-6.915314841E-1,4.641526107E0
5.726084542E0,-3.414717223E0,1.841732597E-1,4.383020228E-1,3.447654589E0
5.736106542E0,-2.332572876E0,4.293312246E-1,1.372755204E0,2.740379239E0
5.746128542E0,-1.427461754E0,6.973418623E-1,2.249924091E0,2.754285959E0
5.756150542E0,-1.993935621E-1,1.143071603E0,2.820329626E0,3.049693375E0
5.766172500E0,1.000847584E0,1.556561551E0,2.741086990E0,3.307285539E0
5.776195500E0,1.978440207E0,2.091722116E0,2.351081068E0,3.717137239E0
5.786217500E0,3.452747514E0,3.099064057E0,5.600998172E-1,4.673261733E0
5.796239500E0,4.501955518E0,4.191639106E0,-1.821853234E0,6.415340294E0
5.806261500E0,4.703016706E0,5.432728170E0,-3.579318683E0,8.027728429E0
5.816283500E0,4.442463607E0,7.111363796E0,-3.048080429E0,8.921758361E0
5.826305500E0,1.477789324E0,7.135535601E0,-1.232248805E0,7.390410456E0
5.836327500E0,-6.837216505E-1,6.984310232E0,-9.963196465E-1,7.088068675E0
5.846349500E0,-1.965603084E0,6.981998243E0,-6.771192670E-1,7.284942378E0
5.856372500E0,-2.941426339E0,6.697972666E0,-1.709643996E-1,7.317380376E0
5.866394500E0,-3.804157281E0,6.064863637E0,2.514261800E-1,7.163616313E0
5.876416500E0,-4.503435448E0,4.938847777E0,9.179532158E-1,6.746538839E0
5.886438500E0,-4.953820742E0,3.168579850E0,1.284911752E0,6.019238857E0
5.896460500E0,-3.659611478E0,1.365599089E0,9.255820781E-1,4.014264469E0
5.906482500E0,-1.503674947E0,-3.990935183E-1,6.712966096E-1,1.694388716E0
5.916504500E0,-3.024960173E-1,-1.984887639E0,1.090853190E0,2.285004040E0
5.926526500E0,1.546485629E0,-2.164038141E0,1.511951535E0,3.059522237E0
5.936549500E0,3.152949657E0,-1.546694959E0,1.680585673E0,3.893292314E0
5.946571500E0,4.426526436E0,-6.103598517E-1,2.375659400E0,5.060675155E0
5.956593500E0,5.252174336E0,4.812159079E-1,3.424130656E0,6.288209185E0
5.966615500E0,5.116178625E0,8.344888902E-1,3.914600952E0,6.495826048E0
5.976637500E0,4.678632063E0,9.223444748E-1,4.037445105E0,6.248302192E0
5.986659500E0,3.872712083E0,1.062539071E0,4.170021365E0,5.789297569E0
5.996681500E0,2.015778918E0,9.235905164E-1,4.249617757E0,4.793290641E0
6.006703500E0,8.508303961E-1,8.687132281E-1,4.161800764E0,4.335799884E0
6.016725500E0,9.225053463E-2,2.510186291E-1,4.552808753E0,4.560656537E0
6.026748500E0,-3.597831991E-1,-6.695576477E-1,5.286913229E0,5.341273527E0
6.036770500E0,-6.435610731E-1,-1.522809668E0,5.900896016E0,6.128106880E0
6.046792500E0,-7.258964476E-1,-2.074178715E0,6.608454133E0,6.964252223E0
6.056814500E0,-4.432001623E-1,-2.326565593E0,7.548097011E0,7.910948257E0
6.066836500E0,5.849152177E-1,-1.565866225E0,7.600571094E0,7.782206872E0
6.076858500E0,1.769732469E0,-4.259872019E-2,6.678805493E0,6.909429099E0
6.086880500E0,2.481346946E0,1.341506807E0,5.237381465E0,5.948687905E0
6.096902500E0,2.884751324E0,2.137451436E0,3.031643322E0,4.699079705E0
6.106925500E0,3.760480919E0,2.584294487E0,1.332887426E0,4.753565359E0
6.116947500E0,4.743185616E0,2.822330543E0,6.219724220E-1,5.554296461E0
6.126969500E0,5.142599269E0,2.932554651E0,-1.512824963E0,6.110224496E0
6.136991500E0,4.751060061E0,2.217552443E0,-4.674855346E0,7.024555719E0
6.147013500E0,3.592152151E0,3.057187468E-1,-6.310916811E0,7.268059715E0
6.157035500E0,1.869822621E0,-2.308379583E0,-6.453145654E0,7.104079234E0
6.167057500E0,5.368928761E-1,-4.142937647E0,-5.625703243E0,7.007190827E0
6.177079500E0,-7.442792896E-1,-5.838685734E0,-5.162126631E0,7.828905039E0
6.187102500E0,-2.095129874E0,-8.423609966E0,-4.039770543E0,9.574263423E0
6.197124500E0,-3.156600074E0,-1.168325377E1,-2.095135429E0,1.228218772E1
6.207146500E0,-4.015909225E0,-1.463245836E1,-2.905747506E-1,1.517632361E1
6.217168500E0,-4.556243699E0,-1.586332065E1,1.031157065E0,1.653685531E1
6.227190500E0,-4.944185700E0,-1.502972054E1,1.280816216E0,1.587381371E1
6.237212500E0,-5.134774525E0,-1.196298690E1,1.052618685E0,1.306089473E1
6.247234500E0,-4.673706368E0,-7.802112923E0,4.366238719E-1,9.105335671E0
6.257256500E0,-3.573252781E0,-4.168262522E0,-8.833412075E-1,5.560830835E0
6.267279500E0,-2.378704630E0,-1.519593115E0,-2.932292988E0,4.070103330E0
6.277301500E0,-1.307084394E0,2.378863674E-1,-5.274090285E0,5.438849867E0
6.287323500E0,-4.948906450E-1,1.454811813E0,-6.557520792E0,6.735166894E0
6.297345500E0,4.495149359E-2,2.596594105E0,-6.675038132E0,7.162433640E0
6.307367500E0,7.040002330E-1,3.979089893E0,-5.497010704E0,6.822455525E0
6.317389500E0,1.346256646E0,5.390812989E0,-4.290331627E0,7.019986974E0
6.327411500E0,1.907274184E0,6.124989386E0,-4.136611836E0,7.633134826E0
6.337433500E0,2.187726088E0,6.837618209E0,-3.904878201E0,8.172346174E0
6.347456500E0,2.267385192E0,7.643397270E0,-2.868808306E0,8.473052492E0
6.357478500E0,2.167048141E0,8.547377395E0,-1.654227594E0,8.971634573E0
6.367500500E0,1.769558514E0,9.380113875E0,-5.216037959E-1,9.559808793E0
6.377522500E0,2.290180416E-1,9.317448095E0,6.003482491E-2,9.320455592E0
6.387544500E0,-1.401272952E0,8.696566179E0,-5.842517415E-1,8.828090353E0
6.397566500E0,-1.887205224E0,8.387416286E0,-1.227130006E0,8.684246862E0
6.407588500E0,-2.108430243E0,8.140540994E0,-9.722229785E-1,8.465170009E0
6.417610500E0,-2.410350346E0,7.616077325E0,-2.936009771E-1,7.993786596E0
6.427633500E0,-2.989661775E0,6.828728687E0,1.422110090E-1,7.455859238E0
6.437655500E0,-3.320806847E0,6.064953099E0,8.933259130E-2,6.915156869E0
6.447677500E0,-3.118514235E0,5.528176948E0,-2.020791882E-1,6.350331283E0
6.457699500E0,-2.485651374E0,5.044160224E0,-3.272227594E-1,5.632858054E0
6.467721500E0,-1.519488742E0,4.286792015E0,-1.708065248E-1,4.551330211E0
6.477743500E0,-7.185077597E-1,2.993193786E0,5.244437885E-1,3.122579659E0
6.487765500E0,-4.780668899E-2,9.676913863E-1,1.331240558E0,1.646485202E0
6.497787500E0,1.087074134E0,-1.358529806E0,1.716159841E0,2.443877657E0
6.507809500E0,2.665882441E0,-4.203904225E0,2.773135286E0,5.698247032E0
6.517832500E0,4.745048539E0,-7.570167326E0,3.346714690E0,9.540619382E0
6.527854500E0,7.272587319E0,-1.095647410E1,4.137215269E0,1.378591314E1
6.537876500E0,9.593651851E0,-1.303855649E1,5.182473187E0,1.699706268E1
6.547898500E0,1.153468537E1,-1.160687978E1,5.635434179E0,1.730684094E1
6.557920500E0,1.211483675E1,-6.661452711E0,4.504142084E0,1.454068491E1
6.567942500E0,1.062196074E1,-1.346325497E0,2.721451455E0,1.104739518E1
6.577964500E0,8.648092761E0,1.867125301E0,2.434428303E0,9.176170577E0
6.587986500E0,6.397506473E0,2.970833448E0,1.755504878E0,7.268819562E0
6.598009500E0,2.754102015E0,6.707452172E-1,-1.165726640E0,3.064946272E0
6.608031500E0,3.433028948E-1,-2.728289189E0,-3.106089486E0,4.148398567E0
6.618053500E0,-1.806954528E0,-4.663314697E0,-5.224600037E0,7.232429341E0
6.628075500E0,-3.210131041E0,-4.673819804E0,-5.587760661E0,7.960691054E0
6.638097500E0,-4.202795886E0,-5.120470482E0,-4.333325035E0,7.915833315E0
6.648119500E0,-5.909624155E0,-7.692899213E0,-3.142715861E0,1.019710836E1
6.658141500E0,-9.790748627E0,-1.033162660E1,-1.907188084E0,1.436101087E1
6.668163500E0,-1.231538573E1,-1.155476939E1,3.925750422E-1,1.689187782E1
6.678186500E0,-1.393669817E1,-1.203328915E1,3.071425438E-2,1.841283647E1
6.688208500E0,-1.293645592E1,-1.039010460E1,-3.286967255E0,1.691479587E1
6.698230500E0,-7.143618792E0,-5.384573425E0,-4.616440200E0,1.006660025E1
6.708252500E0,-3.963304165E0,-1.936020704E0,-3.680194555E0,5.744544197E0
6.718274500E0,-2.549976593E0,1.336422068E-1,-2.085507111E0,3.296904726E0
6.728296500E0,-1.867250431E0,1.257926706E0,-3.757242438E-1,2.282580224E0
6.738318500E0,-1.440113813E0,1.600709199E0,7.789128596E-1,2.289738626E0
6.748340500E0,-9.959859167E-1,1.604687060E0,1.428955133E0,2.368316127E0
6.758363500E0,-3.013937075E-1,1.851388689E0,1.457110061E0,2.375215353E0
6.768386000E0,7.242791077E-1,2.433089583E0,1.427700613E0,2.912530546E0
6.778408000E0,1.681242608E0,3.052406784E0,7.144844368E-1,3.557281531E0
6.788430000E0,2.175712107E0,3.666887754E0,-4.512116517E-1,4.287584509E0
6.798452000E0,2.229698864E0,4.864529082E0,-1.551259150E0,5.571499364E0
6.808474000E0,1.566322893E0,6.109166821E0,-2.280972514E0,6.706573063E0
6.818496000E0,1.831550402E-1,6.888597159E0,-2.893126876E0,7.473720607E0
6.828518000E0,1.105141300E-1,7.182710352E0,-2.591873648E0,7.636841649E0
6.838541000E0,-1.244989011E0,8.447011108E0,-1.244878937E0,8.628540888E0
6.848563000E0,-1.925826814E0,8.089327571E0,-2.144021952E-1,8.318172742E0
6.858585000E0,-2.353278598E0,7.685575576E0,8.452933753E-1,8.082110676E0
6.868607000E0,-2.893691717E0,6.625820364E0,1.407681939E0,7.365902232E0
6.878629000E0,-2.652881742E0,5.357240031E0,1.528503248E0,6.170423362E0
6.888651000E0,-2.336908294E0,3.306342589E0,7.363433754E-1,4.115245225E0
6.898673000E0,-1.831845687E0,8.184564096E-1,-2.922298050E-1,2.027542299E0
6.908696000E0,-6.423346927E-1,-9.907843798E-1,-7.822434336E-1,1.416387071E0
6.918718000E0,1.090992938E0,-1.726395099E0,-5.074951954E-1,2.104342416E0
6.928740000E0,2.690055415E0,-2.072377188E0,2.381079769E-1,3.404091767E0
6.938762000E0,2.946160829E0,-2.248415802E0,8.010148962E-1,3.791683282E0
6.948784000E0,3.307465255E0,-1.811310704E0,1.702296969E0,4.137389013E0
6.958806000E0,3.438667126E0,-1.424154276E0,2.808541639E0,4.662676607E0
6.968828000E0,3.148962733E0,-1.218129387E0,4.045502568E0,5.269335492E0
6.978850000E0,2.603803137E0,-1.077764052E0,5.206677736E0,5.920376607E0
6.988873000E0,2.316232540E0,-8.408682024E-1,5.825444130E0,6.325171288E0
6.998895000E0,2.228622830E0,-4.566160870E-1,5.054761811E0,5.543092543E0
7.008917000E0,2.373128871E0,-4.621422905E-1,5.552954525E0,6.056452765E0
7.018939000E0,2.596499380E0,-4.777274591E-1,6.983771119E0,7.466129626E0
7.028961000E0,2.747218380E0,-9.754559040E-2,7.818921329E0,8.288079073E0
7.038983000E0,3.029424011E0,5.696462739E-1,7.733915092E0,8.325584026E0
7.049005000E0,3.403105822E0,1.152978541E0,6.910987317E0,7.789238374E0
7.059028000E0,3.397693639E0,1.362481939E0,5.814163681E0,6.870602478E0
7.069050000E0,2.903927853E0,1.575153943E0,3.876280639E0,5.093079472E0
7.079072000E0,2.471938484E0,1.360076394E0,1.833600875E0,3.364874416E0
7.089094000E0,2.380179736E0,5.504855329E-1,6.175712228E-1,2.519857955E0
7.099116000E0,2.935125672E0,-3.448220015E-2,8.379785085E-1,3.052598845E0
7.109138000E0,3.410294097E0,-1.093107730E-1,1.541166417E0,3.743961618E0
7.119160000E0,3.561977595E0,-4.236676115E-1,1.150021531E0,3.766925557E0
7.129182000E0,3.455842445E0,-1.417092009E0,-5.463704087E-1,3.774853294E0
7.139205000E0,2.954082637E0,-2.848322001E0,-2.390149970E0,4.748932441E0
7.149227000E0,1.940019907E0,-4.527617193E0,-3.631651263E0,6.119794570E0
7.159249000E0,7.331309152E-1,-6.083445504E0,-4.317864119E0,7.495981636E0
7.169271000E0,-4.903945747E-1,-7.580239740E0,-5.000617763E0,9.094322370E0
7.179293000E0,-1.604738076E0,-9.374433889E0,-4.402829425E0,1.048046287E1
7.189315000E0,-2.876968680E0,-1.152964624E1,-2.610491182E0,1.216652602E1
7.199337000E0,-4.224858600E0,-1.300585302E1,-1.240240633E0,1.373098102E1
7.209360000E0,-5.229487724E0,-1.366629486E1,-4.307401112E-1,1.463901274E1
7.219382000E0,-5.790783589E0,-1.340293392E1,-7.380238652E-2,1.460059105E1
7.229404000E0,-5.660814019E0,-1.134467893E1,-4.216927144E-1,1.268559735E1
7.239426000E0,-4.669516253E0,-7.981037722E0,-1.384378884E0,9.349751336E0
7.249448000E0,-3.192382695E0,-4.850334966E0,-3.222230977E0,6.640770213E0
7.259470000E0,-1.577070368E0,-2.175436118E0,-5.671310356E0,6.275622232E0
7.269492000E0,-6.632135649E-1,-1.910074854E-1,-7.482706429E0,7.514468151E0
7.279514000E0,-7.816382468E-2,1.266020422E0,-7.887565302E0,7.988905036E0
7.289537000E0,3.336895607E-1,2.950928357E0,-6.595454019E0,7.233210947E0
7.299559000E0,8.327366258E-1,5.125407870E0,-5.117331111E0,7.290427548E0
7.309581000E0,1.291732237E0,7.106375536E0,-4.148010398E0,8.329173771E0
7.319603000E0,1.586489209E0,8.919569044E0,-3.053259601E0,9.560232953E0
7.329625000E0,2.128787763E0,1.083293997E1,-1.513755547E0,1.114341876E1
7.339647000E0,2.141014875E0,1.174569969E1,-6.204737806E-1,1.195535000E1
7.349669000E0,1.536178888E0,1.195354014E1,-6.146154553E-2,1.205200170E1
7.359692000E0,-5.821223317E-1,1.104111371E1,-7.285279870E-2,1.105668874E1
7.369714000E0,-2.020904734E0,9.993106728E0,-5.602749413E-1,1.021078577E1
7.379736000E0,-2.249116737E0,9.353165812E0,-7.160181615E-1,9.646394083E0
7.389758000E0,-2.008439932E0,9.016973716E0,-5.629830793E-1,9.255084867E0
7.399780000E0,-2.174144030E0,8.403152313E0,-2.631019002E-1,8.683840951E0
7.409802000E0,-2.582594993E0,7.366162065E0,-1.260393646E-1,7.806793605E0
7.419824000E0,-2.722743689E0,6.323703502E0,2.315906703E-2,6.884990597E0
7.429846000E0,-2.563264098E0,5.360037339E0,-1.391257256E-1,5.943036184E0
7.439869000E0,-2.041475823E0,4.571170179E0,-7.883461726E-1,5.068008488E0
7.449891000E0,-1.473702851E0,3.851604220E0,-7.918770137E-1,4.199252834E0
7.459913000E0,-8.466720025E-1,2.756233617E0,-4.080654860E-2,2.883633542E0
7.469935000E0,-1.905417547E-1,1.332493324E0,7.887686339E-1,1.560128384E0
7.479957000E0,6.076292020E-1,-4.563944775E-1,1.419375347E0,1.610011038E0
7.489979000E0,1.841545194E0,-3.026249850E0,2.296792740E0,4.221934835E0
7.500001000E0,3.139094680E0,-6.460280426E0,3.533051127E0,8.004473053E0
7.510024000E0,5.014579745E0,-1.043142805E1,4.366430216E0,1.237038455E1
7.520046000E0,7.855538347E0,-1.409203063E1,3.810334572E0,1.657749859E1
7.530068000E0,1.054413664E1,-1.537529800E1,3.440302592E0,1.895822481E1
7.540090000E0,1.268661258E1,-1.198641085E1,2.753132546E0,1.766929322E1
7.550112000E0,1.323987496E1,-5.651566063E0,2.528757048E0,1.461605624E1
7.560134000E0,1.212545998E1,-1.444566321E-1,3.417739649E0,1.259875358E1
7.570156000E0,1.016173809E1,3.942788039E0,3.594278784E0,1.147716596E1
7.580179000E0,7.148273175E0,6.346476653E0,2.293531748E0,9.830354173E0
7.590201000E0,2.783495968E0,4.218998228E0,-1.738285412E0,5.345038075E0
7.600223000E0,-4.275513321E-2,4.397486240E-1,-3.782462941E0,3.808179717E0
7.610245000E0,-2.502960886E0,-2.285910487E0,-5.770972638E0,6.692856277E0
7.620267000E0,-4.087636143E0,-4.168068395E0,-7.906686866E0,9.828390539E0
7.630289000E0,-4.310762091E0,-5.273242439E0,-4.626484255E0,8.233718005E0
7.640311000E0,-5.935748345E0,-7.874814863E0,-1.706733837E0,1.000793475E1
7.650333000E0,-1.110842335E1,-1.081191806E1,8.867407787E-1,1.552678173E1
7.660356000E0,-1.652497403E1,-1.147654651E1,3.824552661E0,2.047957738E1
7.670378000E0,-1.969971860E1,-1.125024991E1,-2.214065748E-1,2.268691378E1
7.680400000E0,-1.614314617E1,-9.207249130E0,-5.581230490E0,1.940424538E1
7.690422000E0,-8.047046939E0,-5.179551333E0,-5.687497787E0,1.113240080E1
7.700444000E0,-4.697184108E0,-3.185939063E0,-3.511183125E0,6.673990800E0
7.710466000E0,-2.757491353E0,-1.717031368E0,-1.881876364E0,3.754119595E0
7.720488000E0,-1.788671600E0,-4.680099714E-1,-3.087929204E-1,1.874495264E0
7.730510000E0,-1.403018200E0,-5.763717413E-2,1.388337741E0,1.974655362E0
7.740533000E0,-7.329654390E-1,-2.498065013E-1,2.142692880E0,2.278327106E0
7.750555000E0,5.100109600E-1,2.564588785E-3,1.984050318E0,2.048553983E0
7.760577000E0,1.871846343E0,8.590735084E-1,1.509876212E0,2.553731035E0
7.770598750E0,2.921186202E0,2.239056748E0,6.665062782E-1,3.740445771E0
7.780620750E0,3.468460736E0,3.871508142E0,-8.350934923E-1,5.264615495E0
7.790642750E0,3.188353086E0,5.588827193E0,-2.524666336E0,6.911911812E0
7.800664750E0,5.302130900E-1,6.350916443E0,-3.589301634E0,7.314256750E0
7.810687750E0,-1.454251357E0,6.786739832E0,-3.406540769E0,7.731701272E0
7.820709750E0,-2.062985975E0,6.958671945E0,-2.282635462E0,7.608511749E0
7.830731750E0,-2.290917166E0,6.965655860E0,-1.123602860E0,7.418298080E0
7.840753750E0,-2.249368313E0,7.417419342E0,4.310552761E-2,7.751104798E0
7.850775750E0,-2.341156442E0,7.657593725E0,1.181007023E0,8.094104814E0
7.860797750E0,-2.557416590E0,7.047625052E0,2.063091079E0,7.775972177E0
7.870819750E0,-2.372932844E0,5.673561534E0,2.237437069E0,6.544175685E0
7.880842750E0,-2.420031435E0,3.495561411E0,1.536057559E0,4.520506006E0
7.890864750E0,-1.912622924E0,9.621248370E-1,9.516062808E-1,2.342939429E0
7.900886750E0,-2.881608738E-1,-6.688109583E-1,6.914401214E-1,1.004208260E0
7.910908750E0,1.857107705E0,-1.482382604E0,4.068866873E-1,2.410780784E0
7.920930750E0,2.795892357E0,-2.140932868E0,2.245360047E-1,3.528600861E0
7.930952750E0,3.888167736E0,-1.790325047E0,4.425237125E-1,4.303363726E0
7.940974750E0,4.510740667E0,-1.014624063E0,1.206422750E0,4.778252736E0
7.950996750E0,4.499873617E0,-6.806036228E-1,1.958113824E0,4.954421622E0
7.961019750E0,4.265348521E0,-5.494839048E-1,2.717148489E0,5.087044966E0
7.971041750E0,3.614996931E0,-5.359072548E-1,3.898739794E0,5.343741328E0
7.981063750E0,2.903972584E0,-3.346384907E-1,5.412075219E0,6.151064775E0
7.991085750E0,2.538297072E0,1.939328474E-1,5.532761750E0,6.090321384E0
8.001107750E0,2.446490963E0,7.849682361E-1,5.691786135E0,6.244831669E0
8.011129750E0,2.487620716E0,8.446197760E-1,7.162011209E0,7.628633164E0
8.021151750E0,2.736470321E0,1.031117304E0,8.324956913E0,8.823626256E0
8.031174750E0,3.441361231E0,1.476169937E0,8.722852921E0,9.492639669E0
8.041196750E0,4.443141299E0,2.015480856E0,7.589519856E0,9.022443091E0
8.051218750E0,5.013138991E0,2.168445772E0,5.714748151E0,7.905192347E0
8.061240750E0,5.009380985E0,2.195967447E0,4.573485092E0,7.129722068E0
8.071262750E0,4.157081769E0,2.068658944E0,3.152080761E0,5.612155716E0
8.081284750E0,2.032500493E0,1.395362002E0,1.232680183E0,2.756373306E0
8.091306750E0,1.194988446E0,6.108551109E-1,4.383558172E-1,1.411841767E0
8.101329750E0,1.732031523E0,4.119071066E-2,7.287267923E-1,1.879540531E0
8.111351750E0,2.043344301E0,-1.668783653E-1,6.285826993E-1,2.144346178E0
8.121373750E0,1.797179884E0,-8.293240446E-1,-6.636344182E-1,2.087593003E0
8.131395750E0,1.321751111E0,-2.073482897E0,-1.591475860E0,2.929019074E0
8.141417750E0,5.406078680E-1,-3.567130162E0,-2.200196738E0,4.225818281E0
8.151439750E0,-1.892458655E-1,-5.191860307E0,-3.585040768E0,6.312190171E0
8.161461750E0,-9.381994193E-1,-7.098995181E0,-5.305943577E0,8.912294204E0
8.171483750E0,-1.803379833E0,-9.611241446E0,-5.203050708E0,1.107699768E1
8.181506750E0,-2.931961159E0,-1.232447581E1,-3.334381158E0,1.309989305E1
8.191528750E0,-4.533427864E0,-1.435404904E1,-1.365629495E0,1.511474895E1
8.201550750E0,-5.807514228E0,-1.514177891E1,1.769044398E-1,1.621826086E1
8.211572750E0,-6.438578485E0,-1.478304756E1,7.747326851E-1,1.614292411E1
8.221594750E0,-6.189439151E0,-1.230391934E1,9.299821079E-2,1.377331611E1
8.231616750E0,-4.989406897E0,-8.437161473E0,-1.378780760E0,9.898530764E0
8.241638750E0,-3.286342480E0,-5.102251142E0,-2.984259240E0,6.763047895E0
8.251660750E0,-1.777435152E0,-2.664556292E0,-4.632013966E0,5.631579649E0
8.261683750E0,-5.314717763E-1,-8.251380229E-1,-6.260820791E0,6.337285853E0
8.271705750E0,2.193221156E-1,6.692021370E-2,-6.739134725E0,6.743034729E0
8.281727750E0,4.929357746E-1,6.385457700E-1,-5.890989078E0,5.945963227E0
8.291749750E0,7.699765599E-1,1.438954749E0,-4.905163722E0,5.169534390E0
8.301771750E0,1.466582112E0,3.250741416E0,-4.198030112E0,5.508324579E0
8.311793750E0,2.011587926E0,4.733889420E0,-3.871513989E0,6.437764798E0
8.321815750E0,2.788999659E0,6.692110832E0,-3.823490514E0,8.196459370E0
8.331838750E0,3.589436997E0,9.002431691E0,-3.305110581E0,1.023970655E1
8.341860750E0,3.449075462E0,1.013121094E1,-2.663767503E0,1.102874490E1
8.351882750E0,1.490507164E0,1.016091363E1,-1.873397024E0,1.043912802E1
8.361904750E0,-1.195648158E0,9.325161742E0,-1.405542589E0,9.505985799E0
8.371926750E0,-1.647340013E0,9.093793851E0,-1.292273251E0,9.331708625E0
8.381948750E0,-2.079882089E0,8.939043780E0,-1.116454493E0,9.245479103E0
8.391970750E0,-2.775618599E0,8.845135742E0,-5.874358428E-1,9.289002410E0
8.401992750E0,-3.051611563E0,8.810869889E0,-1.258724266E-1,9.325213413E0
8.412015750E0,-3.183331498E0,8.500247667E0,7.073055178E-2,9.077048675E0
8.422037750E0,-3.518646219E0,7.646569970E0,-8.400490075E-2,8.417717050E0
8.432059750E0,-3.714657459E0,6.629632164E0,-1.261729735E-1,7.600435664E0
8.442081750E0,-3.673707654E0,5.693906921E0,-6.880769491E-2,6.776535873E0
8.452103750E0,-3.389637346E0,4.625203130E0,1.240168127E-1,5.735636451E0
8.462125750E0,-2.390988315E0,3.360165625E0,7.025026149E-1,4.183425399E0
8.472147750E0,-1.300774810E0,1.744515036E0,1.625065776E0,2.715913583E0
8.482170750E0,-2.215720510E-1,-3.324299973E-1,2.366109143E0,2.399599207E0
8.492192750E0,1.181835573E0,-2.812123058E0,3.181882850E0,4.407850938E0
8.502214750E0,2.957986531E0,-5.701550401E0,4.053374090E0,7.595209201E0
8.512236750E0,5.658469870E0,-8.772498706E0,3.965181121E0,1.116681137E1
8.522258750E0,9.328967110E0,-1.109256804E1,2.330249923E0,1.468008031E1
8.532280750E0,1.247334826E1,-1.154547933E1,1.580237512E0,1.706984652E1
8.542302750E0,1.374234608E1,-9.376557598E0,2.833084449E0,1.687596740E1
8.552324750E0,1.372537863E1,-4.505884847E0,4.056533926E0,1.500481537E1
8.562347750E0,1.243789425E1,2.479453325E-1,4.685460441E0,1.329346568E1
8.572369750E0,1.033239960E1,3.586344112E0,4.033507590E0,1.165716643E1
8.582391750E0,5.582287667E0,3.244238142E0,9.355545044E-3,6.456555138E0
8.592413750E0,9.135704353E-1,-1.023001953E0,-4.120404816E0,4.342681175E0
8.602435750E0,-1.399436049E0,-4.460875320E0,-6.795510655E0,8.248441970E0
8.612457750E0,-3.518591840E0,-6.159327745E0,-8.545070084E0,1.110567556E1
8.622479750E0,-3.981455384E0,-6.208218069E0,-4.985468212E0,8.902182422E0
8.632502750E0,-5.391073190E0,-7.321929048E0,-1.784106533E0,9.265924198E0
8.642524750E0,-9.857118033E0,-9.038594965E0,1.363214010E0,1.344311449E1
8.652546750E0,-1.467201946E1,-9.674244025E0,4.319110746E0,1.809734428E1
8.662568750E0,-1.786627034E1,-1.062676832E1,1.867909997E0,2.087153345E1
8.672590750E0,-1.694422173E1,-1.133580987E1,-2.936550346E0,2.059685810E1
8.682612750E0,-1.048829807E1,-9.186343580E0,-5.706891832E0,1.506525536E1
8.692634750E0,-5.877420030E0,-6.201672696E0,-5.310206198E0,1.005997516E1
8.702656750E0,-3.126612044E0,-3.501194034E0,-4.024075739E0,6.182818782E0
8.712679750E0,-1.589724473E0,-1.391843732E0,-1.614385544E0,2.659077577E0
8.722701750E0,-9.808941069E-1,-4.413133389E-1,6.002693117E-1,1.231760512E0
8.732723750E0,-2.208222918E-1,-4.969548583E-2,1.658382041E0,1.673757186E0
8.742745750E0,7.372993952E-1,3.963014728E-1,1.938597572E0,2.111593190E0
8.752767750E0,1.781876551E0,1.196028666E0,1.649534326E0,2.706756751E0
8.762789750E0,2.552378629E0,2.352555297E0,8.702460757E-1,3.578614442E0
8.772815792E0,2.904079880E0,3.771628928E0,-1.975382406E-1,4.764229851E0
8.782837792E0,2.856060206E0,5.353008401E0,-1.244892970E0,6.193669135E0
8.792860792E0,1.405521685E0,6.361555452E0,-1.759813106E0,6.748468059E0
8.802882792E0,-8.201651122E-1,6.715998462E0,-2.235429136E0,7.125619242E0
8.812904792E0,-1.753578220E0,7.190590644E0,-1.768379423E0,7.609651515E0
8.822926792E0,-2.148458819E0,7.482470786E0,-9.052612495E-1,7.837266251E0
8.832948792E0,-2.453774108E0,7.743439622E0,-1.803931810E-1,8.124925000E0
8.842970792E0,-2.975539580E0,7.803311017E0,2.100996678E-1,8.354019421E0
8.852992792E0,-3.301832047E0,7.326092851E0,1.204501281E0,8.125549499E0
8.863015792E0,-3.457158361E0,6.559906456E0,1.438219023E0,7.553329769E0
8.873037792E0,-2.647572762E0,5.342617314E0,1.221647803E0,6.086511698E0
8.883059792E0,-1.387539597E0,3.360132880E0,4.270069563E-1,3.660340701E0
8.893081792E0,-7.268999760E-1,9.981501174E-1,-1.251573122E-1,1.241109014E0
8.903103792E0,5.576749769E-1,-3.920645803E-1,4.747513725E-1,8.307255146E-1
8.913125792E0,2.471760144E0,-1.183327344E0,1.121168518E0,2.960891868E0
8.923147792E0,3.518983018E0,-1.974114144E0,1.256681688E0,4.226064008E0
8.933169792E0,3.877576382E0,-2.076936847E0,1.074020006E0,4.528000026E0
8.943192792E0,4.133430659E0,-1.643148875E0,1.297165031E0,4.633338359E0
8.953214792E0,3.827486209E0,-1.033383100E0,2.243513496E0,4.555313833E0
8.963236792E0,2.602331685E0,-3.964786434E-1,2.866908545E0,3.892106129E0
8.973258792E0,1.687091139E0,2.059015131E-1,3.469428450E0,3.863367148E0
8.983280792E0,1.292339178E0,7.197793829E-1,4.234225547E0,4.485185491E0
8.993302792E0,1.141871608E0,8.153363353E-1,5.199551150E0,5.385533982E0
9.003324792E0,1.213733596E0,1.125804775E0,6.736670124E0,6.937096654E0
9.013347792E0,1.556928172E0,1.684997982E0,8.278224796E0,8.590241516E0
9.023369792E0,2.194299967E0,1.809315634E0,8.432190170E0,8.898899172E0
9.033391792E0,3.469041950E0,1.108964794E0,7.279694025E0,8.139901723E0
9.043413792E0,4.056110002E0,2.284039378E-1,5.901946760E0,7.164996321E0
9.053435792E0,4.156593819E0,-1.936977893E-1,5.224647399E0,6.679201408E0
9.063457792E0,3.973189760E0,-1.537823564E-1,4.218426955E0,5.796982996E0
9.073479792E0,3.512214574E0,-1.006744355E-1,2.728281587E0,4.448517391E0
9.083501792E0,3.132202275E0,-3.353641301E-1,1.418585388E0,3.454785766E0
9.093524792E0,3.355213618E0,-7.459059119E-2,5.554357857E-1,3.401695326E0
9.103546792E0,3.383208624E0,2.847763592E-1,4.513799053E-1,3.425046276E0
9.113568792E0,3.035755084E0,1.428305215E-1,-5.200689018E-2,3.039558225E0
9.123590792E0,2.852566203E0,-4.789360785E-1,-1.648320152E0,3.329185040E0
9.133612792E0,2.509951233E0,-1.517116819E0,-2.826996036E0,4.073500365E0
9.143634792E0,1.640304643E0,-2.701366854E0,-3.192301419E0,4.492078644E0
9.153656792E0,3.442551139E-1,-4.322105690E0,-3.186960572E0,5.381061871E0
9.163679792E0,-1.078172772E0,-6.454615644E0,-3.380649006E0,7.365684444E0
9.173701792E0,-2.563713165E0,-9.080584406E0,-3.254582452E0,9.981079364E0
9.183723792E0,-4.164156315E0,-1.210640858E1,-1.744731529E0,1.292089063E1
9.193745792E0,-5.555553027E0,-1.415404152E1,2.012243253E-1,1.520662855E1
9.203767792E0,-6.580120280E0,-1.470101580E1,1.555154126E0,1.618135819E1
9.213789792E0,-7.537850935E0,-1.365525882E1,1.980810961E0,1.572287831E1
9.223811792E0,-7.454480749E0,-1.033185932E1,1.493439689E0,1.282758599E1
9.233834792E0,-6.058834573E0,-6.328642060E0,9.135572791E-2,8.761822446E0
9.243856792E0,-4.103091503E0,-3.190460131E0,-2.208553871E0,5.647309618E0
9.253878792E0,-2.143598029E0,-8.275733882E-1,-5.647748415E0,6.097290578E0
9.263900792E0,-4.751696677E-1,3.164378625E-1,-8.406515631E0,8.425878244E0
9.273922792E0,5.482529929E-1,6.887388539E-1,-8.498515722E0,8.543986893E0
9.283944792E0,1.174542195E0,1.554441351E0,-7.729012202E0,7.970788349E0
9.293966792E0,1.929003899E0,3.528142682E0,-6.557205627E0,7.691930347E0
9.303988792E0,2.237460604E0,5.197119293E0,-4.963906020E0,7.527060640E0
9.314011792E0,2.678784030E0,6.969701548E0,-3.743087499E0,8.352444407E0
9.324033792E0,3.557043130E0,9.617241274E0,-2.646711175E0,1.059004087E1
9.334055792E0,3.860142616E0,1.109904793E1,-2.370941867E0,1.198794942E1
9.344077792E0,2.672074057E0,1.129261065E1,-1.883437571E0,1.175629074E1
9.354099792E0,-1.211547469E-1,1.008569154E1,-1.164478260E0,1.015341627E1
9.364121792E0,-1.820400054E0,8.591758347E0,-7.760038698E-1,8.816708561E0
9.374143792E0,-2.146237024E0,7.549602084E0,-4.534246767E-1,7.861833051E0
9.384165792E0,-2.410447410E0,6.780458168E0,3.816278851E-1,7.206282642E0
9.394188792E0,-2.741132013E0,6.099366302E0,9.365046769E-1,6.752267398E0
9.404210792E0,-3.328299469E0,5.346419758E0,1.150996627E0,6.402075821E0
9.414232792E0,-3.671845315E0,4.756424589E0,7.969237456E-1,6.061444576E0
9.424254792E0,-3.857626559E0,4.112386529E0,-8.644523621E-3,5.638535303E0
9.434276792E0,-3.848503149E0,3.364258091E0,-5.834264070E-1,5.144861063E0
9.444298792E0,-3.808352658E0,2.321062194E0,-1.101492637E0,4.593927046E0
9.454320792E0,-3.134523619E0,1.180411922E0,-1.207403839E0,3.560398104E0
9.464343792E0,-1.833360408E0,1.559581053E-1,-6.456477982E-1,1.949972922E0
9.474365792E0,-5.965287016E-1,-9.784794992E-1,3.894397652E-1,1.210343733E0
9.484387792E0,7.620775563E-1,-2.364454966E0,1.580895908E0,2.944595279E0
9.494409792E0,2.560630220E0,-4.045014326E0,2.496807861E0,5.399353435E0
9.504431792E0,5.240459440E0,-5.747969107E0,3.143974766E0,8.389644887E0
9.514453792E0,8.192871820E0,-7.315009453E0,3.713099468E0,1.159394754E1
9.524475792E0,1.114397325E1,-7.351974966E0,2.746301829E0,1.363018157E1
9.534498792E0,1.253973287E1,-5.590112996E0,3.129569273E0,1.408149379E1
9.544520792E0,1.221036623E1,-2.523253648E0,4.365275975E0,1.321043098E1
9.554542792E0,1.034809704E1,7.588376141E-1,5.326874855E0,1.166338469E1
9.564564792E0,7.714922751E0,2.923357565E0,4.359094006E0,9.331010292E0
9.574586792E0,4.759620970E0,2.665710533E0,1.355940074E0,5.621261238E0
9.584608792E0,2.188687955E0,-4.368992758E-1,-1.494368227E0,2.685958365E0
9.594630792E0,3.953109545E-1,-3.743051831E0,-2.940806534E0,4.776510319E0
9.604653792E0,-1.586506604E0,-6.413785121E0,-5.606617346E0,8.665321740E0
9.614675792E0,-3.774612177E0,-7.756045049E0,-8.004638253E0,1.176767460E1
9.624697792E0,-5.211149687E0,-9.204038424E0,-5.977812045E0,1.214926505E1
9.634719792E0,-8.410404614E0,-1.195120593E1,-3.394476501E0,1.500295637E1
9.644741792E0,-1.040772343E1,-1.238710884E1,-5.891461533E-1,1.618975805E1
9.654763792E0,-1.198233066E1,-1.174336548E1,2.201595976E0,1.692128558E1
9.664785792E0,-1.369089643E1,-1.190928841E1,-2.035602880E-1,1.814698962E1
9.674807792E0,-1.213301692E1,-1.016947746E1,-2.922782784E0,1.609878972E1
9.684830792E0,-7.212349888E0,-5.684400517E0,-3.256560565E0,9.743489460E0
9.694852792E0,-4.766028056E0,-2.401916907E0,-2.177622685E0,5.764223175E0
9.704874792E0,-3.561353697E0,-5.066647446E-1,-7.151741159E-1,3.667618210E0
9.714896792E0,-2.849230074E0,2.995107579E-1,7.064471465E-1,2.950743343E0
9.724918792E0,-2.216082599E0,4.769714141E-1,1.627788239E0,2.790737961E0
9.734940792E0,-1.459376734E0,6.379054999E-1,1.964904195E0,2.529338327E0
9.744962792E0,-3.613015017E-1,1.162328823E0,2.057593673E0,2.390656561E0
9.754984792E0,1.007898888E0,2.034227614E0,1.876775253E0,2.945543669E0
9.765007375E0,2.113780445E0,2.968628463E0,1.169372379E0,3.827303814E0
9.775029375E0,2.801125323E0,4.087164565E0,-1.269149852E-1,4.956543621E0
9.785051375E0,2.971545347E0,5.402881057E0,-1.693187592E0,6.394379539E0
9.795073375E0,2.425979661E0,6.405540547E0,-2.532284673E0,7.302656550E0
9.805095375E0,1.047421680E0,6.476007097E0,-2.565983346E0,7.044148681E0
9.815117375E0,-1.371873736E-1,6.427538357E0,-1.649631829E0,6.637270138E0
9.825139375E0,-5.561145743E-1,6.889601710E0,8.336550772E-2,6.912512203E0
9.835161375E0,-9.121232495E-1,7.395618584E0,1.419949105E0,7.585736518E0
9.845184375E0,-1.188562941E0,7.679324318E0,1.871011945E0,7.992833636E0
9.855206375E0,-1.676754431E0,7.036815305E0,1.298774916E0,7.349495992E0
9.865228375E0,-2.166961310E0,5.602625452E0,1.639313247E0,6.226755271E0
9.875250375E0,-1.718252705E0,4.015591722E0,1.387099886E0,4.582730117E0
9.885272375E0,-1.118922968E0,2.258595219E0,2.097133130E-1,2.529272750E0
9.895294375E0,2.508458256E-2,1.169239063E0,-3.453827494E-1,1.219441866E0
9.905316375E0,1.776186041E0,4.802534562E-1,3.100749224E-1,1.865911759E0
9.915339375E0,2.424600303E0,-4.626053900E-1,1.092500204E0,2.699304924E0
9.925361375E0,2.939784441E0,-8.881090271E-1,1.561441637E0,3.445166206E0
9.935383375E0,3.726591334E0,-6.557833618E-1,2.156740816E0,4.355349094E0
9.945405375E0,4.146234307E0,-1.006545550E-1,2.772043319E0,4.988548329E0
9.955427375E0,3.814712382E0,5.622267419E-1,3.556572429E0,5.245696990E0
9.965449375E0,2.897295063E0,6.629935634E-1,4.014778959E0,4.995230649E0
9.975471375E0,2.442409898E0,9.219497877E-1,4.601621309E0,5.290583729E0
9.985493375E0,2.157844624E0,1.262874620E0,5.128404568E0,5.705407886E0
9.995516375E0,1.803471196E0,1.301393738E0,6.082746177E0,6.476568155E0
1.000553837E1,2.123905191E0,1.190655075E0,6.975645243E0,7.388386788E0
1.001556037E1,3.104670952E0,7.087883717E-1,7.128703129E0,7.807673852E0
1.002558237E1,3.871269575E0,6.546191812E-2,6.367552357E0,7.452297391E0
1.003560437E1,4.380507095E0,1.646663636E-1,4.963983203E0,6.622468321E0
1.004562637E1,4.420929481E0,9.745273662E-1,3.725223670E0,5.862730802E0
1.005564837E1,3.815053567E0,1.563863554E0,2.222524331E0,4.684006547E0
1.006567137E1,2.915778989E0,1.602538792E0,5.783855224E-1,3.377044197E0
1.007569337E1,2.823797609E0,1.784079636E0,-3.084102201E-1,3.354383691E0
1.008571537E1,2.938426425E0,1.503560050E0,-2.898084913E-1,3.313462183E0
1.009573737E1,2.591204726E0,4.433189338E-1,4.130590081E-2,2.629178538E0
1.010575938E1,2.201499351E0,-1.095360662E0,-7.056267822E-1,2.558187548E0
1.011578137E1,1.737267704E0,-2.745608057E0,-1.562281297E0,3.605160958E0
1.012580338E1,9.645061156E-1,-4.649343944E0,-2.144783844E0,5.210256126E0
1.013582537E1,-1.194501739E-1,-7.323993700E0,-3.146163964E0,7.972044891E0
1.014584837E1,-1.466272063E0,-1.079132183E1,-4.186948469E0,1.166760979E1
1.015587037E1,-2.913714045E0,-1.494685146E1,-3.392131183E0,1.560143109E1
1.016589238E1,-4.652059976E0,-1.809491869E1,-1.793313705E0,1.876922264E1
1.017591437E1,-6.165058016E0,-1.890217943E1,-5.445400840E-1,1.988961668E1
1.018593637E1,-7.131119784E0,-1.720549872E1,2.151395291E-1,1.862601247E1
1.019595837E1,-6.806991078E0,-1.340269770E1,-6.003117040E-2,1.503233305E1
1.020598037E1,-5.520562119E0,-9.264674050E0,-1.287592847E0,1.086133908E1
1.021600237E1,-3.757104152E0,-5.824971090E0,-2.515587949E0,7.373893309E0
1.022602538E1,-1.954187126E0,-3.192794339E0,-4.181090436E0,5.611978283E0
1.023604737E1,-2.687553538E-1,-9.102378148E-1,-7.613847197E0,7.672772084E0
1.024606937E1,8.656036057E-1,6.936043221E-1,-9.319220386E0,9.385000009E0
1.025609137E1,1.330394466E0,1.648810734E0,-8.078026657E0,8.351229906E0
1.026611337E1,2.054072041E0,3.228481066E0,-6.750907509E0,7.759964829E0
1.027613537E1,2.782820322E0,5.154964961E0,-4.983005365E0,7.690779880E0
1.028615737E1,3.849209200E0,7.721563434E0,-3.107294013E0,9.170290585E0
1.029618037E1,4.793245383E0,1.003540782E1,-1.891298275E0,1.128102924E1
1.030620237E1,4.444423886E0,1.113165083E1,-1.868887067E0,1.213092300E1
1.031622437E1,2.856458986E0,1.107938842E1,-1.900601780E0,1.159846942E1
1.032624637E1,-5.014553140E-1,9.797271781E0,-1.545061540E0,9.931022452E0
1.033626838E1,-2.307429264E0,8.993643326E0,-8.110123193E-1,9.320278486E0
1.034629037E1,-2.575277495E0,8.920029219E0,-4.664604592E-1,9.296050818E0
1.035631238E1,-2.930008773E0,8.764061174E0,-2.102354693E-1,9.243263418E0
1.036633437E1,-3.491336798E0,8.294143256E0,4.770319328E-1,9.011648265E0
1.037635737E1,-3.813440028E0,7.910530241E0,7.674754134E-1,8.815204595E0
1.038637937E1,-3.812393669E0,7.544781640E0,5.241134208E-1,8.469520078E0
1.039640138E1,-3.668033808E0,6.977495302E0,1.280101687E-2,7.882897727E0
1.040642337E1,-3.248097305E0,6.124874781E0,-3.416130495E-1,6.941248206E0
1.041644537E1,-2.333578305E0,5.155994071E0,-8.216314477E-1,5.718823375E0
1.042646737E1,-1.608627791E0,4.023914648E0,-1.516028067E0,4.591068892E0
1.043648937E1,-1.042644505E0,2.740390002E0,-1.548601152E0,3.315872502E0
1.044651137E1,-3.108349143E-1,1.418671927E0,-7.475279295E-1,1.633415558E0
1.045653438E1,4.103479466E-1,-7.128691435E-2,5.233962598E-1,6.688878129E-1
1.046655637E1,1.334335489E0,-1.763960536E0,1.620219896E0,2.741736763E0
1.047657837E1,2.919126520E0,-3.623145903E0,2.344370657E0,5.210044112E0
1.048660037E1,5.082857682E0,-5.624993976E0,2.471147940E0,7.973868044E0
1.049662237E1,6.903260221E0,-7.723356190E0,3.358110621E0,1.088954267E1
1.050664438E1,8.891807048E0,-8.855580624E0,3.716304620E0,1.308802738E1
1.051666637E1,1.057021756E1,-7.815713546E0,4.133378326E0,1.378040978E1
1.052668838E1,1.066150663E1,-5.079721820E0,5.820823660E0,1.316636948E1
1.053671137E1,1.005076729E1,-1.552557963E0,6.044859728E0,1.183083634E1
1.054673337E1,9.585064631E0,1.953399798E0,4.944835911E0,1.096086844E1
1.055675537E1,7.981973276E0,2.634263037E0,2.656880360E0,8.815341875E0
1.056677738E1,3.839649587E0,-1.277520726E0,-1.164907153E0,4.210935387E0
1.057679937E1,7.659504595E-1,-5.988211318E0,-6.212943789E0,8.662910909E0
1.058682138E1,-1.631322296E0,-1.003526749E1,-9.845841093E0,1.415303476E1
1.059684337E1,-3.149074123E0,-1.155265971E1,-6.311147776E0,1.353555320E1
1.060686537E1,-4.845679120E0,-1.232238601E1,-2.317262380E0,1.344215415E1
1.061688837E1,-8.621183875E0,-1.176955165E1,-7.054873261E-1,1.460632979E1
1.062691038E1,-1.163371850E1,-8.978962721E0,2.196345761E0,1.485897413E1
1.063693237E1,-1.409129622E1,-7.351937544E0,3.078491798E0,1.618927813E1
1.064695437E1,-1.469242273E1,-7.430403085E0,2.675908077E-1,1.646662626E1
1.065697637E1,-1.068338223E1,-6.852469552E0,-3.068985102E0,1.305793492E1
1.066699837E1,-5.891846865E0,-5.582035652E0,-4.598420543E0,9.328368185E0
1.067702037E1,-3.406543400E0,-4.198144133E0,-5.083341247E0,7.420869917E0
1.068704237E1,-2.411714940E0,-2.547621335E0,-3.389321888E0,4.877934633E0
1.069706537E1,-2.211656988E0,-1.629507321E0,-1.354066041E-1,2.750464631E0
1.070708737E1,-2.065654937E0,-1.476550591E0,1.745529820E0,3.081234544E0
1.071710937E1,-1.424730519E0,-1.034302867E0,1.386076623E0,2.240724856E0
1.072713137E1,-7.113611466E-1,1.506827474E-3,2.622332963E-1,7.581578022E-1
1.073715338E1,2.061973822E-1,1.712805585E0,-1.665398115E-1,1.733192385E0
1.074717537E1,8.786862391E-1,3.320936655E0,1.132547200E-2,3.435234786E0
1.075719738E1,1.157707476E0,4.303451318E0,-1.071168977E-1,4.457740893E0
1.076721537E1,4.240868568E-1,4.700301259E0,-8.738090765E-1,4.799606639E0
1.077723837E1,-6.211586358E-1,5.131938626E0,-1.264873198E0,5.321892174E0
1.078726037E1,-1.064481590E0,5.655059189E0,-1.667619472E0,5.991140976E0
1.079728237E1,-1.125599830E0,5.930112213E0,-8.957109922E-1,6.102090136E0
1.080730438E1,-1.111853757E0,6.248494860E0,2.865930891E-1,6.353112811E0
1.081732637E1,-1.020886796E0,6.852608716E0,1.216649457E0,7.034251344E0
1.082734837E1,-1.018412474E0,7.074776013E0,1.844984380E0,7.381977172E0
1.083737037E1,-9.514349574E-1,6.885040882E0,1.828127150E0,7.186867559E0
1.084739237E1,-9.879390516E-1,6.075782728E0,8.493547051E-1,6.213900767E0
1.085741537E1,-8.590871032E-1,4.632812111E0,-5.318188816E-3,4.711794456E0
1.086743738E1,-3.558888073E-1,3.213692288E0,-2.432443173E-1,3.242474790E0
1.087745937E1,4.153994293E-1,2.167990274E0,7.458649814E-2,2.208687769E0
1.088748137E1,1.167515011E0,1.414299964E0,2.074696632E-1,1.845637925E0
1.089750337E1,1.217517037E0,7.570553827E-1,1.754725298E-1,1.444393020E0
1.090752537E1,6.470930837E-1,-1.342988491E-2,6.167087585E-1,8.940019651E-1
1.091754738E1,5.320286505E-1,-6.288119102E-1,1.618328614E0,1.815887223E0
1.092756937E1,7.276202068E-1,-7.871948558E-1,2.790395390E0,2.989216174E0
1.093759237E1,1.545037420E0,-6.842762589E-1,4.256530336E0,4.579675220E0
1.094761437E1,2.504265400E0,-4.560448140E-1,5.423863791E0,5.991462299E0
1.095763637E1,3.355926393E0,-8.565527737E-2,6.296437351E0,7.135453881E0
1.096765837E1,4.249519232E0,5.035820925E-1,6.856699428E0,8.082470889E0
1.097768038E1,4.893069634E0,1.211512093E0,7.146449429E0,8.745377718E0
1.098770237E1,4.896422135E0,1.440965606E0,7.026490291E0,8.684635710E0
1.099772437E1,4.957043143E0,1.087448795E0,6.471347451E0,8.223938195E0
1.100774637E1,5.017200467E0,4.398047572E-1,5.238643295E0,7.266987844E0
1.101776938E1,5.225779420E0,-1.004884940E-1,4.111059211E0,6.649787690E0
1.102779137E1,5.341455472E0,-4.478797621E-1,3.465512570E0,6.382908445E0
1.103781338E1,4.531241005E0,-4.114136016E-1,2.456996509E0,5.170903020E0
1.104783537E1,3.153476784E0,-3.014052558E-1,1.245004359E0,3.403718086E0
1.105785737E1,2.215657945E0,-5.534529948E-1,8.429626751E-1,2.434345173E0
1.106787937E1,1.864203886E0,-7.946371919E-1,8.911747223E-1,2.213796915E0
1.107790137E1,1.545644215E0,-8.505026597E-1,1.381949658E0,2.241016660E0
1.108792338E1,1.155458856E0,-1.196947848E0,1.602604281E0,2.310002122E0
1.109794637E1,1.004407734E0,-1.906706273E0,5.883889389E-1,2.233957308E0
1.110796837E1,8.308466595E-1,-2.906974252E0,-7.945173971E-1,3.126029969E0
1.111799037E1,2.489725421E-1,-4.133700800E0,-1.673921894E0,4.466708423E0
1.112801237E1,-6.212352343E-1,-5.576496000E0,-2.177581900E0,6.018729416E0
1.113803437E1,-1.619690430E0,-7.725388098E0,-2.582492375E0,8.305075871E0
1.114805638E1,-2.679039261E0,-1.021874727E1,-2.511315973E0,1.085848770E1
1.115807837E1,-4.065314105E0,-1.298432708E1,-1.405385445E0,1.367825415E1
1.116810037E1,-5.559092347E0,-1.475065983E1,-1.434900874E-1,1.576407506E1
1.117812337E1,-6.718512765E0,-1.505867127E1,5.198420298E-1,1.649764316E1
1.118814537E1,-7.483778808E0,-1.403048517E1,5.359546173E-1,1.591064759E1
1.119816737E1,-7.068345246E0,-1.091005071E1,-1.702530858E-1,1.300075756E1
1.120818938E1,-5.262570686E0,-7.261600401E0,-1.826885347E0,9.152212884E0
1.121821137E1,-3.066084006E0,-4.258894365E0,-4.572460952E0,6.960348519E0
1.122823337E1,-1.164606314E0,-1.946905881E0,-7.498930113E0,7.834583794E0
1.123825537E1,-2.829072236E-1,-3.748363441E-1,-8.618898783E0,8.631683208E0
1.124827737E1,2.298081467E-1,1.042617023E0,-8.631766165E0,8.697542709E0
1.125830037E1,1.107552399E0,2.859946851E0,-7.155256505E0,7.784835513E0
1.126832238E1,1.891837681E0,4.991610128E0,-4.721638919E0,7.126646866E0
1.127834437E1,3.197931703E0,7.901006296E0,-3.786929922E0,9.327030926E0
1.128836637E1,4.547349500E0,1.041144226E1,-3.014684057E0,1.175435398E1
1.129838837E1,4.363322420E0,1.163231984E1,-2.142520387E0,1.260713453E1
1.130841037E1,3.001524898E0,1.192172895E1,-9.699732623E-1,1.233197555E1
1.131843238E1,1.684248076E-1,1.101494509E1,-5.378736734E-1,1.102935584E1
1.132845437E1,-1.882843494E0,9.800711698E0,-7.860812536E-1,1.001084278E1
1.133847737E1,-2.746300952E0,9.198126304E0,-1.022511080E0,9.653663830E0
1.134849937E1,-2.745102857E0,9.228403187E0,-7.731185612E-1,9.659023107E0
1.135852137E1,-3.153794288E0,9.005019084E0,-1.211496305E-1,9.542089097E0
1.136854337E1,-3.435554361E0,8.241541119E0,-1.090008706E-1,8.929608893E0
1.137856538E1,-3.436138205E0,6.946165336E0,-2.748156273E-1,7.754468535E0
1.138858737E1,-3.429800408E0,5.313719205E0,-4.733876556E-1,6.342179318E0
1.139860937E1,-3.352821522E0,3.659443079E0,-8.057860780E-1,5.028143495E0
1.140863137E1,-3.333143302E0,1.948471765E0,-1.099110482E0,4.014278309E0
1.141865337E1,-2.905016019E0,6.683227158E-1,-8.974376750E-1,3.113064038E0
1.142867637E1,-2.237128483E0,-3.256098050E-1,-7.920720184E-1,2.395442271E0
1.143869838E1,-1.494912748E0,-1.188136679E0,-7.036972010E-1,2.035097699E0
1.144872037E1,-4.423061961E-1,-2.225902852E0,-2.029650414E-1,2.278480433E0
1.145874237E1,7.473330711E-1,-4.136489337E0,1.264463016E0,4.389523604E0
1.146876437E1,2.449169280E0,-6.334983950E0,3.462714677E0,7.623702824E0
1.147878637E1,4.698318468E0,-8.218009585E0,5.593986776E0,1.099557029E1
1.148880837E1,7.247078841E0,-9.312229455E0,6.486414557E0,1.346519004E1
1.149883037E1,9.477371197E0,-8.730716257E0,5.566262788E0,1.403671089E1
1.150885337E1,1.192574482E1,-6.224238855E0,2.941691802E0,1.377018843E1
1.151887537E1,1.235755702E1,-3.032734997E0,2.152182619E0,1.290498303E1
1.152889737E1,1.168428522E1,5.399418336E-1,2.726182145E0,1.201025093E1
1.153891937E1,1.068918150E1,3.545635212E0,2.832564047E0,1.161264609E1
1.154894138E1,7.760344507E0,3.108059413E0,2.163922074E0,8.635133984E0
1.155896337E1,3.978464533E0,-9.212604010E-1,-1.025601625E-2,4.083749007E0
1.156898538E1,1.706189168E0,-4.138934643E0,-2.164107138E0,4.972446195E0
1.157900737E1,-7.463043997E-1,-6.437603754E0,-4.925800300E0,8.140222414E0
1.158903037E1,-3.449124286E0,-7.532093182E0,-6.030528202E0,1.024676322E1
1.159905237E1,-6.127463343E0,-7.732911710E0,-3.824914019E0,1.058176251E1
1.160907438E1,-1.067331800E1,-8.411682231E0,-2.295801345E0,1.378211954E1
1.161909637E1,-1.491317149E1,-7.548011642E0,-1.151135498E-1,1.671491594E1
1.162911837E1,-1.752540222E1,-6.143388820E0,7.362270159E-1,1.858555836E1
1.163914037E1,-1.687582217E1,-6.210598471E0,-2.298324711E0,1.812862940E1
1.164916237E1,-1.000777388E1,-6.045705820E0,-2.881653177E0,1.204201071E1
1.165918437E1,-6.016137620E0,-6.099498450E0,-2.038030936E0,8.806325186E0
1.166920637E1,-3.685843257E0,-5.410253811E0,-2.465110398E0,6.995216658E0
1.167922937E1,-1.826157223E0,-3.903687708E0,-2.837487403E0,5.159938245E0
1.168925137E1,-9.286099125E-1,-2.625236106E0,-1.993941468E0,3.424906358E0
1.169927337E1,-5.622077385E-1,-1.897601573E0,-3.182478681E-1,2.004557552E0
1.170929537E1,-8.286747113E-2,-1.312823875E0,9.371525484E-1,1.615124900E0
1.171931738E1,5.834682146E-1,-3.759379596E-1,1.609856583E0,1.753112297E0
1.172933937E1,1.259922799E0,7.857190186E-1,1.848032972E0,2.370650903E0
1.173936138E1,1.796021697E0,2.108308913E0,1.790135012E0,3.297763450E0
1.174938337E1,2.565487210E0,3.690388298E0,8.601876953E-1,4.576091486E0
1.175940637E1,3.368884993E0,5.269409004E0,-8.008545363E-1,6.305348947E0
1.176942917E1,2.008140846E0,5.989852046E0,-1.974259448E0,6.618810887E0
1.177945117E1,-4.235452585E-2,6.515053049E0,-2.470638063E0,6.967909484E0
1.178947317E1,-9.270340879E-1,7.218732709E0,-2.671847185E0,7.752951793E0
1.179949517E1,-1.176364114E0,7.810197868E0,-1.801707091E0,8.101183352E0
1.180951717E1,-1.687848499E0,8.028297257E0,-7.127521992E-1,8.234707348E0
1.181953917E1,-2.304270306E0,7.969916317E0,7.841336922E-1,8.333312270E0
1.182956117E1,-3.085479805E0,7.780513308E0,2.004894911E0,8.606751801E0
1.183958317E1,-3.429562134E0,7.440857906E0,2.907931441E0,8.693924780E0
1.184960617E1,-2.628433363E0,6.325178170E0,2.972153165E0,7.466608016E0
1.185962817E1,-1.335330100E0,4.151575738E0,1.522950001E0,4.619314267E0
1.186965017E1,-3.589904628E-1,1.244191597E0,1.258262336E-1,1.301045396E0
1.187967217E1,7.400334802E-1,-1.127754237E0,-9.858054757E-2,1.352478205E0
1.188969417E1,1.678690883E0,-2.408210850E0,1.013211375E-1,2.937302938E0
1.189971617E1,2.992879790E0,-2.345612313E0,3.861115301E-1,3.822081720E0
1.190973817E1,3.700975851E0,-1.899939875E0,4.746475844E-1,4.187157044E0
1.191976017E1,3.694132563E0,-1.404301810E0,1.088921635E0,4.099320589E0
1.192978317E1,3.420333766E0,-8.519428289E-1,2.163472130E0,4.135831393E0
1.193980517E1,2.805809235E0,-3.839176548E-1,2.804162074E0,3.985383691E0
1.194982717E1,2.279847802E0,2.638205230E-2,3.583312916E0,4.247179471E0
1.195984917E1,1.898584783E0,2.736941314E-1,4.476228939E0,4.869923836E0
1.196987117E1,1.581517906E0,-4.980073571E-3,5.170214499E0,5.406694152E0
1.197989317E1,1.397818709E0,-8.054124409E-1,5.657072970E0,5.882606645E0
1.198991517E1,1.703113094E0,-1.340923839E0,6.296045002E0,6.658742646E0
1.199993717E1,2.613892215E0,-1.193609673E0,6.996440865E0,7.563552165E0
1.200996017E1,3.770096080E0,-5.636207181E-1,7.066311584E0,8.028950876E0
1.201998217E1,4.742004186E0,2.254364759E-1,6.559662042E0,8.097320014E0
1.203000417E1,5.232321285E0,1.078196161E0,5.159321136E0,7.426862566E0
1.204002617E1,5.075832253E0,1.500536454E0,3.589495761E0,6.395323489E0
1.205004817E1,4.328081836E0,9.492656404E-1,1.060938689E0,4.556203303E0
1.206007017E1,3.538004596E0,1.456541419E-3,-1.180911859E0,3.729883572E0
1.207009217E1,3.322147613E0,-6.198568994E-1,-2.121692020E0,3.990296276E0
1.208011417E1,3.259166961E0,-1.011204611E0,-1.727517765E0,3.824790409E0
1.209013717E1,2.656354988E0,-1.759538287E0,-4.009991258E-1,3.211385542E0
1.210015917E1,1.993037050E0,-2.756740571E0,5.787100063E-1,3.450611616E0
1.211018117E1,1.446461404E0,-3.546866636E0,7.607103311E-2,3.831227000E0
1.212020317E1,8.644261227E-1,-3.919224930E0,-8.276581728E-1,4.097874403E0
1.213022517E1,1.481197300E-1,-4.028308831E0,-1.072452441E0,4.171254695E0
1.214024717E1,-6.810914999E-1,-4.263453439E0,-1.248909861E0,4.494518517E0
1.215026917E1,-1.495359183E0,-4.749220235E0,-1.982252007E0,5.359152446E0
1.216029117E1,-2.479967880E0,-5.695774521E0,-2.687390839E0,6.768615634E0
1.217031317E1,-3.831917229E0,-7.343057962E0,-2.419392773E0,8.628878912E0
1.218033617E1,-5.201302391E0,-9.127779622E0,-1.738157358E0,1.064852564E1
1.219035817E1,-6.233332445E0,-1.078327840E1,-7.572465867E-1,1.247825905E1
1.220038017E1,-6.943870888E0,-1.194759703E1,1.674274188E-1,1.381992944E1
1.221040217E1,-7.677832108E0,-1.143626738E1,2.302092656E-1,1.377644053E1
1.222042417E1,-7.299790320E0,-8.574724238E0,-1.040243931E0,1.130906459E1
1.223044617E1,-5.795402890E0,-5.362234722E0,-2.926078860E0,8.420344017E0
1.224046817E1,-3.696094303E0,-2.673563928E0,-4.771069525E0,6.600921269E0
1.225049017E1,-2.101150459E0,-7.238005131E-1,-6.106760691E0,6.498557269E0
1.226051217E1,-9.569333866E-1,8.370721900E-1,-6.827706009E0,6.945068805E0
1.227053517E1,5.305054508E-2,2.316965050E0,-6.674629996E0,7.065537983E0
1.228055717E1,1.055359202E0,3.884838624E0,-5.154249846E0,6.540034072E0
1.229057917E1,2.002581168E0,5.652295210E0,-3.942020008E0,7.176231199E0
1.230060117E1,3.134810425E0,7.938206282E0,-3.224216691E0,9.123471305E0
1.231062317E1,4.268289086E0,9.797095195E0,-2.632163887E0,1.100589173E1
1.232064517E1,3.983100498E0,1.049571000E1,-1.792227146E0,1.136824947E1
1.233066717E1,2.511334099E0,1.048393604E1,-1.119231336E0,1.083846819E1
1.234068917E1,2.198215409E-1,9.549432283E0,-9.967383072E-1,9.603825576E0
1.235071217E1,-1.193588623E0,8.301210786E0,-1.385220591E0,8.500211197E0
1.236073417E1,-1.488786621E0,7.377988644E0,-1.590595270E0,7.692931518E0
1.237075617E1,-2.092739386E0,6.982046775E0,-1.239729002E0,7.393609626E0
1.238077817E1,-2.544409167E0,6.895036697E0,-1.184221968E0,7.444322047E0
1.239080017E1,-2.693559359E0,6.182287422E0,-1.206774094E0,6.850711168E0
1.240082217E1,-2.829346325E0,5.234991708E0,-1.232182000E0,6.076891581E0
1.241084417E1,-2.968745407E0,4.450180762E0,-1.147303526E0,5.471184834E0
1.242086617E1,-2.999214664E0,3.831474595E0,-1.127583206E0,4.994690186E0
1.243088817E1,-2.750185842E0,3.248094966E0,-1.332395675E0,4.459699688E0
1.244091117E1,-2.023482771E0,2.709139557E0,-1.416295034E0,3.666034818E0
1.245093317E1,-1.018122452E0,2.060289824E0,-1.227834303E0,2.605560316E0
1.246095517E1,-1.917588526E-1,7.757343131E-1,-5.710636389E-1,9.821653943E-1
1.247097717E1,6.346222883E-1,-1.140607587E0,2.858566323E-1,1.336205497E0
1.248099917E1,1.793768326E0,-3.818417763E0,1.404874252E0,4.446525686E0
1.249102117E1,3.442014072E0,-6.956228979E0,2.946762215E0,8.301806432E0
1.250104317E1,5.489756649E0,-9.889333853E0,4.475469385E0,1.216413492E1
1.251106517E1,7.860618993E0,-1.128294520E1,5.698368931E0,1.488507950E1
1.252108717E1,9.760337259E0,-9.856894670E0,6.341929858E0,1.525262699E1
1.253111017E1,1.083590568E1,-5.978147675E0,6.423586809E0,1.394337007E1
1.254113217E1,1.050102395E1,-1.777882757E0,6.561586361E0,1.250946788E1
1.255115417E1,9.637918198E0,1.268541157E0,7.140327979E0,1.206163121E1
1.256117617E1,8.792198560E0,2.877836992E0,6.486592897E0,1.129869854E1
1.257119817E1,6.365397658E0,9.742712581E-1,2.613472093E0,6.949656697E0
1.258122017E1,3.215286824E0,-4.052859535E0,-2.197655245E0,5.620803176E0
1.259124217E1,-1.580642724E-1,-8.215411667E0,-7.993443174E0,1.146355560E1
1.260126417E1,-3.044633496E0,-9.649460601E0,-9.736304618E0,1.404199098E1
1.261128617E1,-5.207830222E0,-9.131138263E0,-7.779394151E0,1.307739098E1
1.262130917E1,-8.392113939E0,-8.415746630E0,-5.549884152E0,1.311691968E1
1.263133117E1,-1.156532478E1,-7.285189823E0,-2.708494610E0,1.393437014E1
1.264135317E1,-1.398235090E1,-6.597146788E0,-1.221179879E0,1.550869958E1
1.265137517E1,-1.304334770E1,-5.975971341E0,-3.084777555E-1,1.435048122E1
1.266139717E1,-7.691927406E0,-4.350835984E0,6.073853731E-2,8.837375750E0
1.267141917E1,-3.592663198E0,-3.266619530E0,-7.646593943E-1,4.915560598E0
1.268144117E1,-1.600761093E0,-2.557800168E0,-2.112607201E0,3.683461275E0
1.269146317E1,-6.720566015E-1,-1.993759035E0,-3.093267712E0,3.740994561E0
1.270148517E1,-1.557916059E-1,-9.653940153E-1,-2.784058470E0,2.950802974E0
1.271150817E1,1.403292288E-1,1.599388897E-2,-1.352347252E0,1.359702610E0
1.272153017E1,2.901897115E-1,6.281219387E-1,1.560580927E-1,7.092963886E-1
1.273155217E1,6.385858235E-1,1.409036885E0,1.414378901E0,2.096102210E0
1.274157417E1,1.211875497E0,2.347319115E0,1.925845672E0,3.269163624E0
1.275159617E1,1.842256800E0,3.566662969E0,1.306874333E0,4.221719481E0
1.276161817E1,1.703323740E0,4.576601073E0,1.089219332E-2,4.883309102E0
1.277164012E1,8.353316201E-1,5.716077223E0,-1.582562073E0,5.989642765E0
1.278166212E1,-4.198487218E-1,7.046914031E0,-2.564850740E0,7.510907377E0
1.279168412E1,-1.312897550E0,7.704259184E0,-2.887232882E0,8.331591881E0
1.280170712E1,-1.713801512E0,7.869525472E0,-1.951597102E0,8.287054846E0
1.281172913E1,-2.046463498E0,7.790372883E0,-8.463629772E-1,8.099027892E0
1.282175112E1,-2.570822502E0,7.771899775E0,2.740613365E-1,8.190644911E0
1.283177312E1,-3.076123383E0,7.563759363E0,1.287004910E0,8.266158261E0
1.284179512E1,-3.365645050E0,7.145954170E0,1.967975153E0,8.140341135E0
1.285181712E1,-2.682102325E0,5.979180293E0,1.994053881E0,6.849855527E0
1.286183912E1,-1.597801086E0,3.582065120E0,8.194540907E-1,4.006951939E0
1.287186112E1,-7.128477281E-1,5.791158396E-1,-4.575493757E-1,1.026098665E0
1.288188313E1,1.149066680E-1,-1.695182077E0,-9.591526973E-1,1.951107305E0
1.289190612E1,1.606357901E0,-2.457112284E0,-5.263435489E-1,2.982419155E0
1.290192812E1,3.425895345E0,-2.312644542E0,4.274471786E-1,4.155453619E0
1.291195012E1,4.103570390E0,-2.136290764E0,1.058392226E0,4.745863702E0
1.292197213E1,3.665505764E0,-1.932552720E0,1.613141549E0,4.446674958E0
1.293199412E1,3.204037073E0,-1.104923784E0,2.516801246E0,4.221492466E0
1.294201613E1,2.996163879E0,-7.859593391E-2,3.746197048E0,4.797621039E0
1.295203812E1,2.786009686E0,5.920036876E-1,4.722221301E0,5.514679714E0
1.296206012E1,2.770049418E0,6.485638046E-1,5.274110751E0,5.992499729E0
1.297208212E1,2.878070880E0,2.219895422E-1,5.680793955E0,6.372126121E0
1.298210513E1,2.845046391E0,-1.433035612E-1,6.422755920E0,7.026138234E0
1.299212712E1,2.339393215E0,-1.917658693E-1,7.420952230E0,7.783319778E0
1.300214912E1,1.756183739E0,2.044771314E-3,8.085701128E0,8.274221911E0
1.301217112E1,2.230203479E0,3.013350892E-1,7.789166602E0,8.107757196E0
1.302219312E1,3.185557825E0,5.643235534E-1,6.475738125E0,7.238882787E0
1.303221512E1,3.551810457E0,1.012085786E0,5.136088395E0,6.326063480E0
1.304223712E1,3.315619197E0,1.520536855E0,4.019683603E0,5.428003248E0
1.305225913E1,2.848781592E0,1.934892191E0,2.842787027E0,4.465512561E0
1.306228212E1,2.508047087E0,1.751837504E0,1.222513044E0,3.294506484E0
1.307230412E1,2.850907055E0,1.203894340E0,1.830751892E-1,3.100088570E0
1.308232612E1,3.596765312E0,8.069467503E-1,1.085149670E-1,3.687771586E0
1.309234813E1,3.764929773E0,1.932878995E-1,-5.311031824E-1,3.807115312E0
1.310237012E1,3.490073799E0,-6.940703452E-1,-1.831643811E0,4.002157896E0
1.311239213E1,2.690893321E0,-2.035255555E0,-3.055238006E0,4.551664675E0
1.312241412E1,1.558265576E0,-3.439428141E0,-3.833849734E0,5.381102241E0
1.313243612E1,3.158768953E-1,-5.140575548E0,-4.145796350E0,6.611574892E0
1.314245812E1,-9.243270463E-1,-7.731774427E0,-4.193603770E0,8.844265309E0
1.315248012E1,-2.659077451E0,-1.129748722E1,-2.713090521E0,1.191909269E1
1.316250312E1,-4.639383505E0,-1.461450741E1,-6.714270025E-1,1.534791583E1
1.317252512E1,-6.255995668E0,-1.618093439E1,9.237144774E-1,1.737277663E1
1.318254712E1,-7.328669134E0,-1.619890639E1,1.632475221E0,1.785438139E1
1.319256912E1,-7.839102994E0,-1.413804120E1,1.276094005E0,1.621616973E1
1.320259112E1,-7.313393283E0,-1.008910865E1,3.747129679E-2,1.246102880E1
1.321261312E1,-6.002899523E0,-6.021837485E0,-1.867848601E0,8.705526279E0
1.322263513E1,-4.448515475E0,-2.682140624E0,-4.510828960E0,6.879734455E0
1.323265712E1,-3.025245591E0,-5.619963616E-1,-6.575755334E0,7.260062603E0
1.324268012E1,-2.112735694E0,6.744850963E-1,-7.550585586E0,7.869556846E0
1.325270212E1,-1.342032764E0,1.391787014E0,-7.759472103E0,7.996719974E0
1.326272412E1,-5.380697013E-1,2.416098159E0,-6.716329415E0,7.157941752E0
1.327274612E1,1.949050932E-1,3.843640312E0,-5.193220954E0,6.463830344E0
1.328276813E1,7.331664370E-1,4.837899692E0,-3.962630273E0,6.296447025E0
1.329279012E1,1.361557640E0,6.323161465E0,-3.459175065E0,7.334991633E0
1.330281212E1,2.705471014E0,8.720449716E0,-3.612314228E0,9.819095210E0
1.331283412E1,3.555046890E0,1.021956237E1,-2.928794014E0,1.120962300E1
1.332285612E1,3.410432383E0,1.090118049E1,-2.057917024E0,1.160611078E1
1.333287812E1,2.237233440E0,1.093527326E1,-1.096475142E0,1.121551036E1
1.334290113E1,-2.247823186E-1,9.826778001E0,-3.230978411E-1,9.834657349E0
1.335292312E1,-1.113097314E0,8.883879393E0,-6.495780042E-1,8.976873080E0
1.336294512E1,-1.361465985E0,8.368275425E0,-7.296787190E-1,8.509644779E0
1.337296712E1,-1.813980250E0,7.898641682E0,-6.665741059E-1,8.131628731E0
1.338298912E1,-2.167257472E0,7.244817722E0,-8.558215794E-1,7.610310070E0
1.339301113E1,-2.640625978E0,6.044162155E0,-1.027746677E0,6.675407474E0
1.340303312E1,-2.651745628E0,4.675092743E0,-9.967035162E-1,5.466412437E0
1.341305513E1,-2.438733315E0,3.327527052E0,-7.739400950E-1,4.197480165E0
1.342307712E1,-2.390106701E0,2.091725625E0,-5.390755686E-1,3.221572380E0
1.343310012E1,-2.158328627E0,9.787209892E-1,-2.446744001E-1,2.382465697E0
1.344312212E1,-1.362074241E0,-1.792259306E-1,7.351107824E-1,1.558125809E0
1.345314413E1,-2.287537475E-1,-1.637978182E0,2.660108608E0,3.132327985E0
1.346316612E1,8.695800778E-1,-3.621242634E0,4.706954221E0,6.002081786E0
1.347318812E1,2.018202297E0,-5.847146655E0,5.919151023E0,8.561460936E0
1.348321012E1,3.612825567E0,-7.621577801E0,5.907547808E0,1.029757631E1
1.349323212E1,5.921355423E0,-8.177634560E0,5.397873502E0,1.144872025E1
1.350325412E1,8.856983371E0,-6.738332487E0,4.146665831E0,1.187628379E1
1.351327612E1,1.166243066E1,-3.929897268E0,2.094626721E0,1.248374313E1
1.352329912E1,1.198162198E1,-8.889849401E-1,1.766730362E0,1.214375954E1
1.353332112E1,1.124805252E1,2.050468256E0,2.508254955E0,1.170531711E1
1.354334312E1,1.014221540E1,3.978858928E0,3.819048385E0,1.154473829E1
1.355336512E1,8.604824535E0,4.779228145E0,4.202215257E0,1.070245953E1
1.356338712E1,5.987036612E0,3.553123156E0,2.523209502E0,7.405125100E0
1.357340912E1,2.161911801E0,3.336760390E-1,-2.981722426E0,3.698090177E0
1.358343113E1,-8.922175732E-1,-2.384753575E0,-8.726154844E0,9.090042914E0
1.359345312E1,-3.172053096E0,-4.832309754E0,-1.221439613E1,1.351312736E1
1.360347512E1,-4.830685105E0,-8.099335665E0,-8.949140752E0,1.300084140E1
1.361349812E1,-8.687242793E0,-1.394148003E1,-4.599336802E0,1.705833965E1
1.362352013E1,-1.611702315E1,-1.941970714E1,-2.761376536E0,2.538717513E1
1.363354212E1,-1.792285501E1,-1.653215441E1,4.121299440E0,2.472905114E1
1.364356413E1,-1.939946174E1,-1.063330901E1,5.565386875E0,2.281183700E1
1.365358612E1,-1.612297445E1,-6.231428592E0,1.754348883E-1,1.728617322E1
1.366360812E1,-9.697470335E0,-3.832180354E0,-2.767304735E0,1.078816540E1
1.367363012E1,-5.910685424E0,-2.892631617E0,-3.026095483E0,7.242980997E0
1.368365212E1,-3.844931377E0,-1.939362388E0,-3.147763470E0,5.334138977E0
1.369367413E1,-2.532229709E0,-9.149307901E-1,-2.827005684E0,3.904003943E0
1.370369712E1,-2.360223189E0,-8.094973058E-1,-1.497693830E0,2.910159137E0
1.371371912E1,-3.016622994E0,-1.226820104E0,1.910355520E-1,3.262145986E0
1.372374112E1,-3.144333200E0,-1.929977022E0,2.373095396E0,4.386709968E0
1.373376312E1,-2.289837477E0,-2.066566810E0,4.630157183E0,5.563488977E0
1.374378512E1,-8.918092914E-1,-8.423206508E-1,5.256398365E0,5.397643158E0
1.375380713E1,2.518761232E-2,1.150613342E0,5.280967780E0,5.404920552E0
1.376382912E1,1.049215898E0,3.869674455E0,4.013601329E0,5.673114666E0
1.377385087E1,2.956949819E0,7.370855041E0,1.586792241E0,8.098824969E0
1.378387287E1,3.266463994E0,9.346561382E0,-2.194103354E-1,9.903339719E0
1.379389487E1,3.091706798E0,1.045778262E1,-1.447515218E0,1.100087126E1
1.380391787E1,2.354315601E0,1.078885197E1,-1.604733253E0,1.115873190E1
1.381393987E1,3.395571685E-1,9.464776295E0,-1.415313286E0,9.576032638E0
1.382396187E1,-4.421754377E-1,8.386664334E0,-1.503046225E0,8.531752793E0
1.383398387E1,-5.802557543E-1,7.273929255E0,-4.030131993E-1,7.308157304E0
1.384400587E1,1.063765671E-2,5.867577996E0,5.909954815E-1,5.897275673E0
1.385402787E1,1.389998643E0,3.749981951E0,8.317693502E-1,4.084886915E0
1.386404988E1,2.624085959E0,1.268915963E0,5.964130729E-1,2.975177876E0
1.387407187E1,3.439694774E0,-7.754700190E-1,2.185238975E-1,3.532790198E0
1.388409387E1,4.348688301E0,-1.056319388E0,2.945650367E-1,4.484826547E0
1.389411687E1,4.981421939E0,-5.747731125E-1,-1.608839460E-1,5.017052153E0
1.390413888E1,4.942264890E0,-4.421091449E-1,-3.213251115E-1,4.972393042E0
1.391416087E1,4.069311554E0,-4.685011375E-1,6.396643424E-1,4.145836503E0
1.392418288E1,3.496964158E0,4.724023998E-2,1.916229341E0,3.987847145E0
1.393420487E1,3.245995231E0,7.594305217E-1,2.984640478E0,4.474516571E0
1.394422687E1,2.933030030E0,1.534507023E0,3.962062801E0,5.162878906E0
1.395424887E1,2.618167992E0,2.250654116E0,4.460920343E0,5.640927042E0
1.396427087E1,2.256796616E0,2.436507865E0,4.533784252E0,5.620044589E0
1.397429288E1,1.893970453E0,1.945391452E0,4.358545538E0,5.135035655E0
1.398431587E1,1.632923556E0,1.029423950E0,4.317032061E0,4.728944790E0
1.399433787E1,1.741543042E0,3.932837248E-2,4.271627262E0,4.613167930E0
1.400435987E1,2.072812660E0,-5.474578446E-1,4.112536803E0,4.637803507E0
1.401438187E1,2.498773111E0,-4.183057147E-1,4.004934586E0,4.739023926E0
1.402440387E1,3.035757130E0,3.821687526E-1,4.737818164E0,5.639928658E0
1.403442588E1,3.674808684E0,1.672870272E0,4.901997455E0,6.350771044E0
1.404444787E1,3.709813333E0,2.354070311E0,3.755878868E0,5.780223876E0
1.405446987E1,3.615887754E0,2.340912906E0,2.291920255E0,4.879284368E0
1.406449187E1,3.681587654E0,1.674767693E0,1.562754922E0,4.336027839E0
1.407451387E1,3.497248625E0,7.669155425E-1,1.291142399E0,3.806042051E0
1.408453687E1,2.808590171E0,-3.885457259E-1,4.561230936E-1,2.871792960E0
1.409455888E1,1.751243427E0,-1.913934016E0,-1.206663655E0,2.861124628E0
1.410458087E1,6.435439700E-1,-3.444561996E0,-2.643641971E0,4.389532898E0
1.411460287E1,-5.513893297E-1,-4.661891484E0,-3.685314084E0,5.968148985E0
1.412462487E1,-1.934023880E0,-6.239185508E0,-4.298605145E0,7.819583772E0
1.413464687E1,-3.403528284E0,-8.609713976E0,-4.014962561E0,1.009113987E1
1.414466887E1,-4.853750617E0,-1.115273238E1,-3.148759543E0,1.256411642E1
1.415469087E1,-5.879967077E0,-1.308517985E1,-2.197927433E0,1.451298831E1
1.416471288E1,-6.288292764E0,-1.363243831E1,-1.170846170E0,1.505844882E1
1.417473587E1,-6.169004302E0,-1.316233036E1,-3.275943500E-1,1.453997498E1
1.418475787E1,-5.864201814E0,-1.204224123E1,-2.748264447E-2,1.339422234E1
1.419477987E1,-5.052860296E0,-1.006661208E1,-3.439750323E-1,1.126882401E1
1.420480188E1,-3.486383622E0,-7.620205459E0,-8.057816926E-1,8.418532303E0
1.421482387E1,-1.801812048E0,-5.274631153E0,-1.671247377E0,5.819048741E0
1.422484588E1,-7.039067506E-1,-3.572287406E0,-2.755944765E0,4.566393935E0
1.423486787E1,3.543654614E-1,-2.089766808E0,-4.303221230E0,4.796917045E0
1.424488987E1,1.664967029E0,-6.022205275E-1,-6.947744084E0,7.169793067E0
1.425491187E1,3.044977312E0,6.239107740E-1,-9.012722790E0,9.533641675E0
1.426493387E1,3.888202527E0,1.954055856E0,-7.894688380E0,9.014574743E0
1.427495687E1,4.187270651E0,3.464090527E0,-5.948881191E0,8.057440419E0
1.428497887E1,4.108877031E0,5.146775935E0,-4.774393668E0,8.134310535E0
1.429500087E1,3.731425812E0,7.111631598E0,-4.507256019E0,9.209462493E0
1.430502287E1,2.829485781E0,8.892266055E0,-3.425898561E0,9.940581790E0
1.431504487E1,1.107689955E0,9.628579025E0,-1.945375957E0,9.885393198E0
1.432506687E1,-1.078738198E0,9.307814223E0,-1.147438304E0,9.440111035E0
1.433508888E1,-2.167548517E0,9.065229617E0,-6.990901798E-1,9.346945045E0
1.434511087E1,-2.645690251E0,8.801757588E0,-7.666383845E-1,9.222708277E0
1.435513287E1,-3.017304487E0,8.591762440E0,-3.919382805E-1,9.114610458E0
1.436515587E1,-3.370114954E0,8.576260301E0,5.067740875E-1,9.228582531E0
1.437517787E1,-3.807139068E0,8.497081400E0,1.016872025E0,9.366361563E0
1.438519987E1,-4.020698680E0,8.304105157E0,6.092664224E-1,9.246371500E0
1.439522188E1,-4.071512738E0,7.783846806E0,-1.977455243E-1,8.786614272E0
1.440524387E1,-3.761325549E0,6.960340156E0,-7.008683181E-1,7.942614266E0
1.441526587E1,-3.099664566E0,5.633235626E0,-7.178366455E-1,6.469664094E0
1.442528787E1,-2.211131323E0,3.996731527E0,-6.948819387E-1,4.620154277E0
1.443530987E1,-1.296721666E0,2.291651868E0,-4.495239991E-1,2.671184604E0
1.444533187E1,-6.370358728E-1,4.399901140E-1,1.922301382E-1,7.977207717E-1
1.445535387E1,-2.989754453E-2,-1.515393060E0,8.001835683E-1,1.713943912E0
1.446537687E1,8.337572573E-1,-3.512793156E0,1.318558239E0,3.843626250E0
1.447539887E1,2.571028324E0,-5.399097324E0,2.385636797E0,6.438299580E0
1.448542087E1,5.145718759E0,-7.020723183E0,3.870364426E0,9.526211017E0
1.449544287E1,7.594520395E0,-7.950515256E0,4.915175325E0,1.204352030E1
1.450546488E1,9.893557881E0,-7.002307962E0,3.914938044E0,1.273740728E1
1.451548687E1,1.122093781E1,-4.406832429E0,3.249636292E0,1.248558183E1
1.452550888E1,1.114327042E1,-9.814107084E-1,4.465353995E0,1.204470958E1
1.453553087E1,1.063463165E1,2.785281415E0,5.126679640E0,1.212996402E1
1.454555287E1,9.698975993E0,5.276198791E0,4.298641983E0,1.184849070E1
1.455557487E1,7.280026147E0,4.319323584E0,2.439063098E0,8.809334011E0
1.456559788E1,4.211023210E0,-1.976896834E-1,-3.844667083E-1,4.233156309E0
1.457561987E1,1.885941641E0,-4.478059117E0,-3.919659086E0,6.242877275E0
1.458564187E1,-5.339244640E-1,-8.127726821E0,-7.226793095E0,1.088905676E1
1.459566387E1,-2.349510359E0,-1.097772405E1,-6.591087903E0,1.301818205E1
1.460568587E1,-3.984041900E0,-1.269600906E1,-3.106194152E0,1.366417499E1
1.461570787E1,-7.311959546E0,-1.367677190E1,-8.509517258E-1,1.553199796E1
1.462572987E1,-1.093221634E1,-1.239528325E1,7.533839160E-1,1.654460602E1
1.463575188E1,-1.335093931E1,-9.822407792E0,2.650543440E0,1.678548944E1
1.464577387E1,-1.513658425E1,-8.702180675E0,1.597031300E0,1.753267350E1
1.465579687E1,-1.360762506E1,-7.876730411E0,-1.028512369E0,1.575652816E1
1.466581887E1,-8.605970004E0,-5.776083105E0,-2.691818643E0,1.070848931E1
1.467584088E1,-5.351714412E0,-3.979027913E0,-3.910937671E0,7.731037689E0
1.468586287E1,-3.506657965E0,-2.306487424E0,-3.952860453E0,5.765556355E0
1.469588488E1,-2.450764985E0,-1.050717171E0,-2.353073360E0,3.556291583E0
1.470590687E1,-1.986431450E0,-5.272861201E-1,-5.308087751E-1,2.122663072E0
1.471592887E1,-1.505852450E0,-3.865945101E-1,7.841642439E-1,1.741252560E0
1.472595087E1,-9.424691293E-1,-3.299116015E-1,1.635673209E0,1.916381114E0
1.473597287E1,-5.932658091E-2,1.722081023E-1,1.726826916E0,1.736406194E0
1.474599488E1,6.887818310E-1,1.007082909E0,1.186474023E0,1.701868680E0
1.475601687E1,9.686855592E-1,1.952228601E0,1.059740009E0,2.423344200E0
1.476603987E1,1.620506848E0,3.243140620E0,5.680692798E-1,3.669701109E0
1.477606538E1,2.337269067E0,4.376195358E0,-3.115688860E-3,4.961242003E0
1.478608737E1,2.287150097E0,5.448164234E0,2.657974666E-1,5.914744067E0
1.479610938E1,7.644146883E-1,6.117209666E0,8.925149041E-1,6.229058257E0
1.480613137E1,-4.221401726E-1,6.874893039E0,6.873779145E-1,6.922054971E0
1.481615337E1,-6.789724689E-1,7.548187058E0,3.530350006E-1,7.586881124E0
1.482617537E1,-5.993116839E-1,7.295680313E0,-7.602257431E-2,7.320649230E0
1.483619737E1,-3.383842901E-1,6.414849899E0,-1.150985225E0,6.526068506E0
1.484621938E1,-1.624661294E-1,5.490967607E0,-1.334441616E0,5.653127889E0
1.485624137E1,1.283963773E-1,4.760966122E0,-1.137060812E0,4.896548920E0
1.486626437E1,2.490316721E-1,3.612660676E0,-1.241882531E0,3.828264117E0
1.487628637E1,5.855167135E-1,2.267267225E0,-1.039229731E0,2.561899476E0
1.488630837E1,9.573594294E-1,1.387090530E0,-4.153886850E-1,1.735829766E0
1.489633037E1,1.441116318E0,9.283267611E-1,3.485583723E-1,1.749314082E0
1.490635238E1,1.548974935E0,3.800818813E-1,7.044263488E-1,1.743560170E0
1.491637437E1,1.067349576E0,-1.146223837E-1,6.108842739E-1,1.235132788E0
1.492639637E1,3.143566923E-1,-2.268737215E-1,2.888998157E-1,4.834820772E-1
1.493641837E1,-2.913023270E-1,-1.713310200E-1,3.203929192E-1,4.656855020E-1
1.494644037E1,-4.738231270E-1,-7.145823777E-2,8.445688321E-1,9.710361207E-1
1.495646337E1,5.557212029E-3,4.107639760E-1,1.879106246E0,1.923485952E0
1.496648538E1,7.118757746E-1,1.083944559E0,2.852764131E0,3.133682516E0
1.497650737E1,1.471563647E0,1.763661743E0,3.918767678E0,4.542327864E0
1.498652937E1,1.955339612E0,2.183028143E0,5.798413621E0,6.496965861E0
1.499655137E1,2.166934705E0,2.222826632E0,7.816290082E0,8.410169730E0
1.500657337E1,2.459083672E0,2.313756682E0,8.895925827E0,9.515148912E0
1.501659538E1,3.155847538E0,1.857782620E0,8.450011314E0,9.209420240E0
1.502661737E1,4.172375161E0,9.725761503E-1,6.731119362E0,7.978883802E0
1.503663938E1,4.222976381E0,1.838885003E-1,5.330028843E0,6.802687114E0
1.504666137E1,3.483821957E0,2.114470124E-2,4.381096494E0,5.597452011E0
1.505668437E1,2.480226035E0,2.472074139E-1,3.631633721E0,4.404701599E0
1.506670637E1,1.608554116E0,3.655731851E-1,2.396117054E0,2.909031975E0
1.507672838E1,1.684834698E0,3.089814931E-1,1.716686382E0,2.425108175E0
1.508675037E1,1.916625636E0,3.918184125E-1,2.045430880E0,2.830329129E0
1.509677238E1,1.624056546E0,3.684605402E-1,1.544422147E0,2.271246927E0
1.510679437E1,1.331416851E0,-1.038640916E-1,1.441905107E-1,1.343223542E0
1.511681637E1,1.098748831E0,-1.069711266E0,-1.537137685E0,2.171249284E0
1.512683837E1,8.690373831E-1,-2.496518424E0,-3.145002122E0,4.108390021E0
1.513686037E1,4.535862060E-1,-4.387171751E0,-3.864102058E0,5.863812850E0
1.514688238E1,-5.449444921E-1,-7.138860912E0,-4.791944085E0,8.615278739E0
1.515690537E1,-1.818354260E0,-1.064884857E1,-5.202679410E0,1.199050713E1
1.516692737E1,-3.475228888E0,-1.412435404E1,-3.796491289E0,1.503289523E1
1.517694937E1,-5.485250784E0,-1.607541787E1,-1.813688474E0,1.708205204E1
1.518697137E1,-7.008529399E0,-1.639373561E1,1.835458535E-1,1.782996749E1
1.519699337E1,-7.565429327E0,-1.527540767E1,1.432145958E0,1.710628079E1
1.520701538E1,-7.043002244E0,-1.253763138E1,1.242052393E0,1.443394524E1
1.521703737E1,-4.874623130E0,-8.544133945E0,-3.472956660E-1,9.843007152E0
1.522705937E1,-2.596148839E0,-5.308132775E0,-2.307947474E0,6.343727918E0
1.523708137E1,-1.216542745E0,-3.069815115E0,-4.473493904E0,5.560205823E0
1.524710337E1,6.900284573E-2,-1.290832497E0,-6.370409891E0,6.500240927E0
1.525712537E1,1.624896499E0,2.854581445E-1,-8.326176642E0,8.488049980E0
1.526714838E1,2.366144226E0,1.460892917E0,-8.560126079E0,9.000478049E0
1.527717037E1,2.692092585E0,2.479578456E0,-6.970999630E0,7.873405086E0
1.528719237E1,3.038395101E0,3.894182475E0,-4.341918395E0,6.576378737E0
1.529721437E1,3.644224238E0,6.081812376E0,-3.270269946E0,7.807911219E0
1.530723637E1,4.251036292E0,8.621227144E0,-2.415357024E0,9.911146078E0
1.531725838E1,4.197831892E0,1.023981713E1,-2.259935693E0,1.129526258E1
1.532728037E1,3.121087887E0,1.043031474E1,-2.539653334E0,1.117955697E1
1.533730238E1,2.096009003E-1,9.008290601E0,-2.606878188E0,9.380247650E0
1.534732437E1,-1.902660438E0,7.869241882E0,-2.218176633E0,8.394366689E0
1.535734637E1,-2.468048624E0,7.511401640E0,-1.953788638E0,8.144305289E0
1.536736937E1,-2.994033446E0,6.934274438E0,-1.383287209E0,7.678664061E0
1.537739138E1,-3.558331271E0,6.373039969E0,-6.293720734E-1,7.326217925E0
1.538741337E1,-4.101292022E0,5.916314539E0,4.018732846E-2,7.198957494E0
1.539743537E1,-4.466999401E0,5.328697432E0,6.175028104E-1,6.980716990E0
1.540745737E1,-4.574132086E0,4.600800360E0,5.033055192E-1,6.507177940E0
1.541747937E1,-4.692125098E0,3.802194663E0,-2.653656498E-1,6.045092316E0
1.542750137E1,-4.338958535E0,2.923455799E0,-7.774586570E-1,5.289385308E0
1.543752337E1,-3.319395329E0,2.189816176E0,-1.175676262E0,4.146793328E0
1.544754538E1,-2.011722705E0,1.647140769E0,-1.071779426E0,2.812261028E0
1.545756737E1,-1.130298068E0,8.243556654E-1,-3.772237623E-1,1.448942288E0
1.546759037E1,-1.152569528E-1,-1.970400578E-1,2.251701352E-1,3.206408260E-1
1.547761237E1,1.179900437E0,-1.296171589E0,9.832636911E-1,2.009734638E0
1.548763437E1,2.799939215E0,-2.407696880E0,1.832802145E0,4.122599614E0
1.549765637E1,4.962452987E0,-3.427279381E0,2.494231578E0,6.526359994E0
1.550767838E1,7.826881728E0,-4.326324456E0,2.086599956E0,9.183194447E0
1.551770037E1,9.470089660E0,-5.234564862E0,2.198524142E0,1.104159299E1
1.552772237E1,1.047763274E1,-5.392140307E0,3.127867149E0,1.219178075E1
1.553774437E1,1.128755280E1,-4.137630129E0,3.841872114E0,1.262096719E1
1.554776637E1,1.062767347E1,-2.001201956E0,4.427038945E0,1.168550069E1
1.555778837E1,8.538791928E0,1.797352231E-1,4.265074579E0,9.546419932E0
1.556781037E1,6.591861489E0,1.896512237E0,3.754532838E0,7.819585245E0
1.557783337E1,5.563837947E0,2.845730515E0,3.562007124E0,7.193216917E0
1.558785537E1,4.158494164E0,1.712790967E0,2.695979814E0,5.243570707E0
1.559787737E1,2.258155801E0,-7.200115174E-1,-4.358780596E-1,2.409911594E0
1.560789937E1,3.213474771E-1,-2.325839953E0,-2.103449877E0,3.152347867E0
1.561792138E1,-1.502236240E0,-3.389803991E0,-3.996382156E0,5.451472751E0
1.562794337E1,-3.054656793E0,-4.282204875E0,-6.581549340E0,8.425259546E0
1.563796538E1,-4.490616013E0,-5.776614617E0,-5.523238975E0,9.167392071E0
1.564798737E1,-6.821921943E0,-8.936412533E0,-2.581893620E0,1.153534840E1
1.565800937E1,-1.008993779E1,-1.177525620E1,-4.595145518E-1,1.551369256E1
1.566803137E1,-1.284396350E1,-1.195817581E1,1.474338882E0,1.761076495E1
1.567805337E1,-1.446310780E1,-1.050799500E1,1.000800953E0,1.790533576E1
1.568807637E1,-1.256959927E1,-8.487217147E0,-1.976130849E0,1.529486103E1
1.569809837E1,-7.090413222E0,-5.869611073E0,-2.961510940E0,9.669376446E0
1.570812037E1,-4.227957332E0,-4.505252763E0,-3.443563000E0,7.073263164E0
1.571814237E1,-2.474901853E0,-3.587870820E0,-3.478303939E0,5.576428471E0
1.572816437E1,-1.669806331E0,-3.018419843E0,-2.013928713E0,3.994373592E0
1.573818637E1,-1.232232286E0,-2.517581264E0,-1.385228777E-1,2.806385650E0
1.574820838E1,-6.003083418E-1,-1.648385641E0,1.304467327E0,2.186133649E0
1.575823037E1,3.859223726E-1,-5.237549865E-1,1.900446829E0,2.008719371E0
1.576825237E1,1.379354372E0,6.851954412E-1,1.829870059E0,2.391764141E0
1.577827075E1,2.187634580E0,2.010376237E0,8.808406457E-1,3.098909149E0
1.578829275E1,2.509212437E0,3.289100320E0,-6.110118163E-1,4.181825368E0
1.579831575E1,2.261198838E0,4.394157420E0,-2.038886676E0,5.345904834E0
1.580833775E1,7.092928402E-1,4.756064401E0,-2.538585048E0,5.437615191E0
1.581835975E1,-8.536051923E-1,4.783640454E0,-2.364587113E0,5.403992046E0
1.582838175E1,-1.393537524E0,5.398658783E0,-1.851842579E0,5.875098674E0
1.583840375E1,-1.759163627E0,6.252035934E0,-1.135240573E0,6.593283032E0
1.584842575E1,-2.102050346E0,6.777973686E0,5.922937095E-2,7.096692967E0
1.585844775E1,-2.564681464E0,6.847725706E0,1.167651982E0,7.404886867E0
1.586846975E1,-2.896304545E0,6.532203518E0,1.541185128E0,7.309823145E0
1.587849175E1,-2.958348473E0,5.761221821E0,1.527761967E0,6.654138501E0
1.588851375E1,-2.447851756E0,4.601907238E0,9.445606783E-1,5.297331717E0
1.589853575E1,-1.062904230E0,3.078148566E0,8.011460200E-2,3.257480982E0
1.590855875E1,1.627275731E-1,1.527737117E0,-1.694528943E-1,1.545695715E0
1.591858075E1,2.234184410E0,8.651236224E-1,-3.976399004E-2,2.396163607E0
1.592860275E1,3.746787324E0,1.921359980E-1,3.432935393E-1,3.767383966E0
1.593862475E1,3.713121688E0,-4.728198910E-1,6.837969334E-1,3.805050534E0
1.594864675E1,3.758075082E0,-4.349387044E-1,5.523205353E-1,3.823265354E0
1.595866875E1,3.483786288E0,-1.719607651E-1,3.750554685E-1,3.508133979E0
1.596869075E1,2.568156171E0,2.936822534E-2,7.079025185E-1,2.664097331E0
1.597871275E1,1.708582141E0,4.949480939E-1,1.495472181E0,2.323932786E0
1.598873475E1,1.563152533E0,1.137254793E0,2.471792303E0,3.137921525E0
1.599875675E1,1.806282098E0,1.616446395E0,3.320315096E0,4.110966590E0
1.600877975E1,2.198314519E0,1.951874260E0,4.058378137E0,5.011270593E0
1.601880175E1,2.261733858E0,1.932132306E0,4.962872232E0,5.786076053E0
1.602882375E1,1.686575122E0,1.560821832E0,6.077019998E0,6.496989495E0
1.603884575E1,8.624662822E-1,1.113938436E0,6.946308008E0,7.087728964E0
1.604886775E1,3.743657164E-1,5.507264382E-1,6.961407273E0,6.993185291E0
1.605888975E1,4.283540452E-1,-3.014882863E-2,5.995692830E0,6.011050545E0
1.606891175E1,9.229544856E-1,-3.356535673E-1,4.609879332E0,4.713331704E0
1.607893375E1,1.530380935E0,-2.730918682E-1,3.720782710E0,4.032476776E0
1.608895575E1,1.817995095E0,2.362947553E-1,2.864210055E0,3.400682375E0
1.609897775E1,2.085059360E0,6.579158413E-1,1.566757341E0,2.689805635E0
1.610899975E1,2.471033042E0,3.601621717E-1,3.472252071E-1,2.521167672E0
1.611902275E1,2.776628121E0,1.881470275E-1,1.715257688E-1,2.788276190E0
1.612904475E1,3.335991481E0,7.060787719E-1,2.567641032E-1,3.419548830E0
1.613906675E1,3.302290469E0,9.452257991E-1,9.467057294E-1,3.562979917E0
1.614908875E1,2.794862663E0,6.246954703E-1,1.449519498E0,3.209767672E0
1.615911075E1,2.246644388E0,-8.546290398E-2,1.364458297E0,2.629916607E0
1.616913275E1,1.610497730E0,-1.345019229E0,7.629703530E-1,2.232689729E0
1.617915475E1,5.869454441E-1,-3.222840257E0,-2.549124362E-1,3.285754803E0
1.618917675E1,-6.471501672E-1,-5.817375557E0,-1.522008746E0,6.047906442E0
1.619919875E1,-1.473869058E0,-8.972689244E0,-2.609453009E0,9.459951758E0
1.620922075E1,-1.857199652E0,-1.237173651E1,-2.436716611E0,1.274545577E1
1.621924275E1,-2.606616817E0,-1.503429423E1,-1.505952584E0,1.533272146E1
1.622926575E1,-4.103603719E0,-1.569973427E1,-1.105631881E0,1.626479761E1
1.623928775E1,-5.764913169E0,-1.427760956E1,-8.406427923E-1,1.542047466E1
1.624930975E1,-6.165655602E0,-1.156335778E1,-1.135274926E0,1.315353189E1
1.625933175E1,-5.260605437E0,-8.533598431E0,-2.225100029E0,1.026875562E1
1.626935375E1,-3.658726795E0,-6.157920320E0,-3.291726012E0,7.883002256E0
1.627937575E1,-2.097250367E0,-4.352055713E0,-3.793934886E0,6.142702170E0
1.628939775E1,-1.017977222E0,-2.537672882E0,-5.298836871E0,5.962695152E0
1.629941975E1,2.213717108E-1,-8.950169277E-1,-7.775379453E0,7.829852257E0
1.630944175E1,1.281427543E0,2.717353141E-1,-8.543234643E0,8.643075540E0
1.631946375E1,1.786766139E0,1.457955860E0,-6.633446302E0,7.022875364E0
1.632948575E1,2.041669804E0,3.160432924E0,-4.958810756E0,6.224673162E0
1.633950875E1,2.662213605E0,5.986256593E0,-3.801243905E0,7.574437571E0
1.634953075E1,3.641448857E0,9.266390793E0,-1.995792696E0,1.015427676E1
1.635955275E1,3.528773596E0,1.101860310E1,-1.316718998E0,1.164455265E1
1.636957475E1,2.460953904E0,1.155473314E1,-1.395754642E0,1.189606166E1
1.637959675E1,-2.503853756E-1,1.034643526E1,-1.861358192E0,1.051551567E1
1.638961875E1,-2.132957120E0,9.248385462E0,-1.490596188E0,9.607497943E0
1.639964075E1,-2.892560281E0,8.749885769E0,-5.562853861E-1,9.232381024E0
1.640966275E1,-3.180820411E0,8.422340536E0,1.172112384E-1,9.003731285E0
1.641968475E1,-3.538628201E0,7.788336883E0,6.187242937E-1,8.576881758E0
1.642970675E1,-3.913488811E0,6.935029898E0,7.499714810E-1,7.998280539E0
1.643972875E1,-4.178444279E0,6.141958006E0,7.109734762E-1,7.462474658E0
1.644975175E1,-4.311000365E0,5.446302481E0,6.743202049E-1,6.978656217E0
1.645977375E1,-4.197862297E0,4.638781534E0,4.169941843E-1,6.270105752E0
1.646979575E1,-3.499300121E0,3.544306140E0,-6.527276069E-2,4.981111109E0
1.647981775E1,-2.077980721E0,2.414504793E0,-6.739032984E-1,3.256068631E0
1.648983975E1,-1.375038688E0,9.603876293E-1,-7.358878773E-1,1.831558560E0
1.649986175E1,-4.969789781E-1,-4.944393861E-1,-4.185559756E-1,8.164848534E-1
1.650988375E1,5.242014214E-1,-1.838230115E0,2.232621887E-1,1.924505934E0
1.651990575E1,1.978369309E0,-3.458245651E0,9.743499032E-1,4.101556514E0
1.652992775E1,4.163594690E0,-4.921337121E0,1.716378526E0,6.670909611E0
1.653994975E1,5.390670902E0,-6.185463629E0,2.673617138E0,8.629456627E0
1.654997175E1,6.639922678E0,-6.959559553E0,3.759768728E0,1.032762815E1
1.655999375E1,7.881349711E0,-7.041649783E0,4.528841600E0,1.149830036E1
1.657001675E1,9.400248177E0,-5.710046990E0,4.020121852E0,1.171028104E1
1.658003875E1,1.042413306E1,-3.277549145E0,3.012319443E0,1.133485540E1
1.659006075E1,1.014140381E1,-6.180343223E-1,2.720951518E0,1.051825151E1
1.660008275E1,9.291384131E0,2.378519273E0,2.974297631E0,1.004159447E1
1.661010475E1,7.483139123E0,4.222155139E0,3.412886167E0,9.245093680E0
1.662012675E1,5.103097819E0,3.826864650E0,3.207086981E0,7.139461275E0
1.663014875E1,3.165894223E0,1.428230370E0,1.474688253E0,3.773252399E0
