"Time (s)","Linear Acceleration x (m/s^2)","Linear Acceleration y (m/s^2)","Linear Acceleration z (m/s^2)","Absolute acceleration (m/s^2)"
9.193625000E-3,-6.760375321E-1,1.711269522E0,1.830829294E0,2.595651368E0
1.921662500E-2,-8.360813794E-1,1.540496180E0,1.480216210E0,2.294166642E0
2.923862500E-2,-6.339937127E-1,1.079686031E0,1.038466669E0,1.626678511E0
3.926062500E-2,-6.032949534E-1,5.505217856E-1,4.832688653E-1,9.489930629E-1
4.928362500E-2,-2.897339210E-1,1.297058612E-3,4.534024572E-1,5.380717569E-1
5.930562500E-2,-1.325195414E-1,-5.320337668E-1,7.938215053E-1,9.647662619E-1
6.932762500E-2,-1.582966992E-1,-5.659389199E-1,1.058324398E0,1.210535104E0
7.935062500E-2,-1.587144828E-1,-3.775292793E-1,1.056798860E0,1.133376581E0
8.937262500E-2,-1.694850540E-1,-1.710521444E-1,8.518960512E-1,8.852744781E-1
9.939462500E-2,-1.499968690E-1,2.282189283E-1,8.471007496E-1,8.900351790E-1
1.094176250E-1,-3.315985233E-2,5.003083096E-1,7.203442240E-1,8.776695172E-1
1.194396250E-1,9.406386584E-2,6.078343662E-1,6.917150867E-1,9.256243238E-1
1.294616250E-1,1.934346646E-1,8.229535762E-1,7.215323782E-1,1.111430848E0
1.394846250E-1,7.930812478E-2,9.713596371E-1,6.551612180E-1,1.174336215E0
1.495066250E-1,8.646277785E-3,1.006533928E0,4.757464224E-1,1.113337310E0
1.595286250E-1,3.875154465E-2,8.874337468E-1,7.054548740E-2,8.910763172E-1
1.695516250E-1,1.095648345E-1,6.077014882E-1,-2.382272601E-1,6.618593349E-1
1.795736250E-1,4.978728712E-2,2.134516755E-1,-3.922908676E-1,4.493690204E-1
1.895966250E-1,-1.623160753E-1,8.862220027E-2,-6.770186949E-1,7.018224248E-1
1.996186250E-1,-2.002858472E-1,9.086134583E-2,-8.684834325E-1,8.958982517E-1
2.096406250E-1,-2.305416799E-1,1.292677769E-2,-6.131682694E-1,6.552037045E-1
2.196636250E-1,-1.657153541E-1,-1.815924815E-1,-2.011664379E-1,3.176560146E-1
2.296856250E-1,2.147270080E-1,-2.896689073E-1,3.667823893E-1,5.143394647E-1
2.397076250E-1,4.320259139E-1,-2.245974552E-1,6.881687504E-1,8.430104603E-1
2.497306250E-1,5.370845917E-1,-2.624057892E-1,4.354187608E-1,7.395310366E-1
2.597526250E-1,5.157255900E-1,-3.784123550E-1,3.128722304E-1,7.120799303E-1
2.697746250E-1,2.541275936E-1,-3.825293430E-1,-7.861581445E-2,4.659291560E-1
2.797976250E-1,-2.809440941E-1,-5.296937111E-1,-6.130337834E-1,8.575053535E-1
2.898196250E-1,-5.479425788E-3,-7.731811995E-1,-6.958210015E-1,1.040195202E0
2.998416250E-1,5.254366457E-1,-9.951688414E-1,-2.919070387E-1,1.162606731E0
3.098646250E-1,5.539441609E-1,-1.298018725E0,-9.245325029E-2,1.414303485E0
3.198866250E-1,8.650943863E-1,-1.197578982E0,3.428421342E-1,1.516616116E0
3.299086250E-1,1.035408576E0,-8.857509182E-1,8.589127100E-1,1.610700671E0
3.399316250E-1,1.039485839E0,-1.602149331E-1,2.143824901E0,2.387924798E0
3.499536250E-1,1.608832151E0,-1.578713874E-1,2.572946795E0,3.038637766E0
3.599766250E-1,1.787031895E0,-4.919139006E-1,2.082858322E0,2.788146529E0
3.699986250E-1,6.313466781E-1,-2.885180290E-1,9.633124065E-1,1.187355075E0
3.800206250E-1,-7.456942427E-1,2.459140646E-1,1.400554329E-1,7.975895906E-1
3.900436250E-1,-1.204316509E0,5.718571792E-1,-6.023403955E-1,1.462946629E0
4.000656250E-1,-1.124124870E0,6.420874286E-1,-5.710893667E-1,1.414947368E0
4.100876250E-1,-1.296521253E0,6.656302922E-1,-1.924488240E-1,1.470057004E0
4.201106250E-1,-1.457821959E0,9.509768280E-1,-2.024534100E-1,1.752309669E0
4.301326250E-1,-9.772708797E-1,1.366178402E0,-8.115596187E-1,1.865510872E0
4.401546250E-1,-8.490753543E-1,1.438184232E0,-1.384283867E0,2.169226744E0
4.501776250E-1,-1.431258059E0,1.168868568E0,-1.817620434E0,2.592006444E0
4.601996250E-1,-2.008867071E0,9.936026647E-1,-1.959306656E0,2.976856687E0
4.702216250E-1,-1.941805354E0,8.378907271E-1,-2.020370298E0,2.924818806E0
4.802446250E-1,-2.256593133E0,7.695274937E-1,-2.403305621E0,3.385301026E0
4.902666250E-1,-2.702406489E0,8.637870220E-1,-2.382823994E0,3.704993797E0
5.002886250E-1,-3.285694317E0,1.099996554E0,-1.414278914E0,3.742454329E0
5.103116250E-1,-3.363632439E0,9.974881395E-1,-1.118336127E0,3.682347276E0
5.203336250E-1,-2.900758077E0,7.884737881E-1,-1.406118540E0,3.318622859E0
5.303556250E-1,-1.927520607E0,3.510123025E-1,-1.868694693E0,2.707501650E0
5.403786250E-1,-1.343707699E-1,2.553932235E-1,-2.330512463E0,2.348312063E0
5.504006250E-1,4.565172690E-1,6.615737864E-1,-2.026856614E0,2.180420975E0
5.604226250E-1,-8.467189264E-1,1.203424151E0,-1.215805703E0,1.908755127E0
5.704456250E-1,-2.832434531E0,1.473875782E0,-5.042486751E-1,3.232531813E0
5.804676250E-1,-3.951302170E0,2.117695448E0,-9.431190473E-1,4.581145751E0
5.904906250E-1,-3.237815561E0,2.378634317E0,-1.099820334E-1,4.019135090E0
6.005134583E-1,-6.753598398E-1,2.303135069E0,7.052087063E-1,2.501571782E0
6.105354583E-1,1.761621650E0,1.438199288E0,6.415512389E-1,2.362904150E0
6.205584583E-1,2.274334170E0,4.165005331E-1,1.047211473E0,2.538251461E0
6.305804583E-1,3.666964352E-1,1.545542766E0,1.470731734E0,2.164768013E0
6.406024583E-1,-4.382167704E0,3.004858396E0,1.972215554E0,5.667645186E0
6.506254583E-1,-2.462822090E0,2.204236579E-1,9.269947654E-1,2.640719321E0
6.606474583E-1,2.094609472E0,-5.947933942E-3,-4.164506856E-1,2.135615927E0
6.706694583E-1,4.741061615E0,6.206209843E-1,7.174679786E-2,4.782048018E0
6.806924583E-1,5.512791755E0,2.038706289E-1,-2.458608001E-2,5.516614962E0
6.907144583E-1,5.944173013E0,3.583150363E-1,8.452287635E-1,6.014648297E0
7.007364583E-1,5.235813827E0,8.416891515E-1,2.381395226E0,5.813194499E0
7.107594583E-1,3.190756000E0,1.436830601E0,3.566322661E0,4.996405043E0
7.207814583E-1,1.491602494E0,1.803001226E0,3.678535407E0,4.359737855E0
7.308034583E-1,1.859946674E0,1.221630992E0,3.472947597E0,4.124699859E0
7.408264583E-1,4.380715256E0,6.812751755E-1,3.102368026E0,5.411052521E0
7.508484583E-1,6.052757562E0,8.177623451E-1,2.287817849E0,6.522171407E0
7.608704583E-1,6.121864049E0,1.227458619E0,1.658812981E0,6.460304529E0
7.708934583E-1,5.554920943E0,1.158795936E0,1.584677303E0,5.891617508E0
7.809154583E-1,4.566018198E0,1.261780898E0,1.369427261E0,4.931119978E0
7.909374583E-1,1.870651172E0,1.676190906E0,-1.007629916E0,2.706338819E0
8.009604583E-1,-4.686461484E-1,1.180340294E0,-2.626720714E0,2.917617886E0
8.109824583E-1,-1.574839363E0,-4.185705936E-1,-2.140486726E0,2.690167984E0
8.210044583E-1,-1.244759361E0,-2.726992276E-1,-2.040055827E0,2.405331269E0
8.310274583E-1,1.087632982E0,2.010024235E-1,-1.603816994E0,1.948223916E0
8.410494583E-1,1.434635995E0,-9.152880549E-1,-8.149755621E-1,1.886827451E0
8.510724583E-1,8.700610113E-1,-1.398425066E0,6.096929768E-1,1.756224460E0
8.610944583E-1,9.641842264E-1,-9.899359488E-1,1.282505769E0,1.885323700E0
8.711164583E-1,2.642096552E0,-1.278048145E0,9.122606590E-1,3.073483490E0
8.811394583E-1,3.378647504E0,-1.954496151E0,1.684958513E0,4.251399693E0
8.911614583E-1,1.673301212E0,-1.886331650E0,2.378665746E0,3.466444110E0
9.011834583E-1,1.589296603E-1,-1.058936017E0,1.797151379E0,2.091974475E0
9.112064583E-1,-1.711234438E-1,-8.585057437E-2,6.070523742E-1,6.365266209E-1
9.212284583E-1,1.401928425E-1,7.819691992E-1,-3.709979394E-1,8.767949205E-1
9.312504583E-1,-2.911375451E-1,1.842846784E0,-5.578167719E-1,1.947307087E0
9.412734583E-1,-1.432839146E0,1.990483717E0,1.446951985E-1,2.456825217E0
9.512954583E-1,-2.314038518E0,2.410167620E0,1.424498677E0,3.632200257E0
9.613174583E-1,-2.190743544E0,2.853909308E0,1.712804123E0,3.984702446E0
9.713404583E-1,-1.511902272E0,2.932229546E0,1.390193063E0,3.580007729E0
9.813624583E-1,-2.193493490E0,4.110876486E0,1.052895843E0,4.776956021E0
9.913844583E-1,-3.045804693E0,5.461013491E0,6.126639470E-1,6.282909492E0
1.001407458E0,-3.115774814E0,6.622994404E0,6.672064823E-1,7.349644350E0
1.011429458E0,-1.911374690E0,7.302375959E0,1.079266786E0,7.625146861E0
1.021451458E0,-2.387576026E-1,6.973878799E0,1.819388047E0,7.211252566E0
1.031474458E0,-6.080694973E-2,5.500372269E0,2.443412257E0,6.018974667E0
1.041496458E0,-1.489833711E0,4.882198198E0,2.076879252E0,5.510797688E0
1.051518458E0,-1.478161499E0,4.534208175E0,1.556134997E0,5.016528812E0
1.061541458E0,-8.078618395E-1,4.016741869E0,1.082536257E0,4.237775447E0
1.071563458E0,-4.773889053E-1,3.132441133E0,1.345999807E0,3.442644783E0
1.081585458E0,-5.900366843E-1,2.558483123E0,1.116269428E0,2.853074940E0
1.091608458E0,-5.130475652E-1,2.274078646E0,7.105860981E-1,2.437126196E0
1.101630458E0,-4.168725622E-1,2.049877687E0,5.570007929E-1,2.164724266E0
1.111652458E0,-2.034146923E-1,1.857663921E0,2.942272139E-1,1.891788158E0
1.121675458E0,5.307160968E-1,2.861965894E0,5.522543156E-1,2.962683443E0
1.131697458E0,1.234326174E0,3.004764256E0,7.529965380E-1,3.334542416E0
1.141720458E0,1.734753694E0,2.581812928E0,6.129574773E-1,3.170306806E0
1.151742458E0,2.467650720E0,1.991434767E0,6.962431705E-1,3.246516142E0
1.161764458E0,1.817578919E0,3.624650976E-1,6.708390650E-1,1.971040112E0
1.171787458E0,1.085755441E0,-6.877360564E-1,2.019715995E-2,1.285400205E0
1.181809458E0,1.719840370E0,-1.106684380E0,-4.023472014E-1,2.084342699E0
1.191831458E0,2.747298487E0,-1.776626775E0,-2.743311855E-1,3.283185842E0
1.201854458E0,3.608347769E0,-2.757606543E0,2.818562597E-2,4.541515375E0
1.211876458E0,3.861286624E0,-2.784375097E0,4.174368185E-1,4.778758476E0
1.221898458E0,3.249903510E0,-2.573430360E0,1.782590935E-1,4.149240044E0
1.231921458E0,2.394131924E0,-2.680945161E0,-3.927817413E-1,3.615745030E0
1.241943458E0,1.609137960E0,-2.698106154E0,-8.952411684E-1,3.266582089E0
1.251965458E0,4.061394131E-1,-2.684654927E0,-1.624453280E0,3.164043261E0
1.261988458E0,-9.276262647E-1,-2.574612082E0,-2.348646726E0,3.606280536E0
1.272010458E0,-2.097976883E0,-2.645073077E0,-2.344890182E0,4.110526554E0
1.282032458E0,-2.682707804E0,-2.900927939E0,-1.871199348E0,4.371920753E0
1.292055458E0,-2.197229276E0,-3.591281793E0,-1.252338522E0,4.392433629E0
1.302077458E0,-1.231507232E0,-4.511758668E0,-5.068308055E-1,4.704195340E0
1.312099458E0,-6.407337981E-1,-4.881475774E0,-1.068742383E-1,4.924506842E0
1.322122458E0,-1.763549477E-1,-5.043677244E0,4.161229491E-2,5.046931027E0
1.332144458E0,6.005043697E-1,-5.384864032E0,1.022815427E-1,5.419209135E0
1.342166458E0,1.114767571E0,-4.989494605E0,2.145676714E-1,5.117011084E0
1.352189458E0,7.050736356E-1,-4.202851434E0,3.043947910E-1,4.272440192E0
1.362211458E0,4.840325117E-2,-3.497433982E0,5.293674365E-1,3.537600489E0
1.372233458E0,-1.553792310E-1,-3.143163173E0,6.068906987E-1,3.204985765E0
1.382256458E0,1.055808342E-1,-3.466141438E0,8.036062360E-1,3.559644191E0
1.392278458E0,2.431892073E-1,-3.905991511E0,1.016786655E0,4.043484361E0
1.402300458E0,2.756435931E-2,-4.074210643E0,1.002982256E0,4.195941559E0
1.412323458E0,-6.630450189E-2,-4.058769316E0,9.431886292E-1,4.167446393E0
1.422345458E0,2.405176145E-1,-3.839055510E0,8.010075872E-1,3.929097745E0
1.432367458E0,-1.451571286E-1,-3.994114314E0,4.450257361E-1,4.021450938E0
1.442390458E0,-1.036992002E-1,-3.525951730E0,1.433731431E-1,3.530388787E0
1.452412458E0,-1.030922592E-1,-3.014765041E0,2.217375273E-1,3.024665899E0
1.462434458E0,-2.784859246E-1,-2.354247189E0,3.183094101E-1,2.391935433E0
1.472457458E0,-2.757991290E-1,-1.770591279E0,4.275728206E-1,1.842247853E0
1.482479458E0,-1.333808362E-1,-1.195825475E0,5.730363433E-1,1.332726403E0
1.492501458E0,1.555967474E-1,-7.475980961E-1,7.480935015E-1,1.068998198E0
1.502524458E0,9.568968415E-2,-3.696270597E-1,1.059641338E0,1.126330521E0
1.512546458E0,-8.775413543E-1,2.606264815E-1,9.558842500E-1,1.323525478E0
1.522568458E0,-1.736932951E0,1.046779071E0,7.621950853E-1,2.166477290E0
1.532591458E0,-2.096562442E0,1.630971756E0,5.017991303E-1,2.703228682E0
1.542613458E0,-2.491980400E0,2.098949860E0,9.123805270E-2,3.259429584E0
1.552636458E0,-2.669930468E0,2.613389062E0,-2.369215769E-1,3.743589578E0
1.562658458E0,-2.647089490E0,2.945769943E0,-3.298921596E-1,3.974100170E0
1.572680458E0,-2.461761990E0,3.165169169E0,-2.544947988E-1,4.017876997E0
1.582702458E0,-2.329274608E0,3.294993144E0,-1.719422002E-1,4.038819646E0
1.592729208E0,-2.281982328E0,3.416257964E0,-1.462470496E-1,4.110918392E0
1.602751208E0,-2.178226410E0,3.634491840E0,-1.174113594E-1,4.238866199E0
1.612773208E0,-2.156529146E0,3.742357181E0,-1.714940111E-1,4.322645651E0
1.622796208E0,-2.135441748E0,3.757738867E0,-2.937981744E-1,4.332093053E0
1.632818208E0,-1.938389411E0,3.801456159E0,-4.349873824E-1,4.289246608E0
1.642840208E0,-1.777814344E0,3.869161069E0,-6.519202526E-1,4.307671208E0
1.652863208E0,-1.517950047E0,3.879857966E0,-8.005937505E-1,4.242454541E0
1.662885208E0,-1.261762480E0,3.753521855E0,-8.939929341E-1,4.059580549E0
1.672908208E0,-1.003690354E0,3.715259430E0,-9.793482493E-1,3.971104374E0
1.682930208E0,-5.820657599E-1,3.613907887E0,-1.027144559E0,3.801862269E0
1.692952208E0,-2.871918440E-2,3.422423269E0,-8.633283810E-1,3.529750942E0
1.702975208E0,2.862580436E-1,2.945569968E0,-3.366154343E-1,2.978529177E0
1.712997208E0,3.399974638E-1,2.408318439E0,1.023977561E-1,2.434354386E0
1.723019208E0,6.844031435E-1,1.910066668E0,2.190992635E-1,2.040776035E0
1.733042208E0,1.465035084E0,1.198169916E0,2.316212220E-1,1.906721620E0
1.743064208E0,2.328321512E0,5.063776463E-1,1.980422705E-1,2.390966358E0
1.753086208E0,3.139572982E0,8.999332666E-2,1.696119386E-1,3.145438844E0
1.763109208E0,3.747171194E0,2.769592166E-2,2.852140233E-2,3.747382085E0
1.773131208E0,4.213680185E0,1.903730625E-1,7.550392628E-2,4.218654222E0
1.783153208E0,4.230797909E0,1.899608338E-1,4.782449377E-1,4.261977743E0
1.793176208E0,3.965272923E0,1.237697679E-1,1.195238122E0,4.143344359E0
1.803198208E0,3.475427694E0,1.716526169E-1,1.796272835E0,3.915949230E0
1.813220208E0,2.848628980E0,1.663603020E-1,1.916789796E0,3.437505773E0
1.823243208E0,2.552345300E0,-7.533412313E-1,1.757243840E0,3.189027352E0
1.833265208E0,2.430246667E0,-1.856788008E0,1.499797220E0,3.406340011E0
1.843287208E0,2.551068268E0,-1.636421653E0,7.581265926E-1,3.124192867E0
1.853310208E0,2.376895502E0,-1.472708970E0,9.481187090E-2,2.797765756E0
1.863332208E0,2.086046809E0,-1.419590524E0,-4.970064600E-1,2.571739483E0
1.873354208E0,1.885202553E0,-9.363596660E-1,-9.571232750E-1,2.312324167E0
1.883377208E0,1.306543381E0,-4.128210264E-1,-1.334124843E0,1.912424091E0
1.893399208E0,8.261273718E-1,-5.440717220E-2,-1.034645222E0,1.325117847E0
1.903421208E0,5.442652649E-1,1.614416242E-1,-4.187537576E-1,7.054380101E-1
1.913444208E0,4.534574211E-1,1.206637269E-1,9.737222046E-2,4.792334682E-1
1.923466208E0,8.032185656E-1,-4.484451878E-1,8.244009814E-1,1.235273301E0
1.933488208E0,1.581937882E0,-1.073226612E0,1.485406784E0,2.420903992E0
1.943511208E0,2.304881778E0,-1.471442463E0,1.860906787E0,3.307657329E0
1.953533208E0,2.428196048E0,-1.832246075E0,2.236488066E0,3.775598045E0
1.963555208E0,2.420306400E0,-1.794730924E0,2.497335280E0,3.913518323E0
1.973578208E0,2.112129484E0,-1.601084590E0,2.695985661E0,3.780595390E0
1.983600208E0,1.639684984E0,-1.084252707E0,2.696852219E0,3.337241775E0
1.993622208E0,1.405613925E0,-2.531750822E-1,2.374939023E0,2.771314398E0
2.003645208E0,1.253040188E0,5.720851475E-1,2.249733764E0,2.637933497E0
2.013667208E0,1.485461748E-1,9.551192880E-1,2.296515582E0,2.491646572E0
2.023689208E0,-1.128619625E0,1.729962485E0,1.775368454E0,2.723689704E0
2.033712208E0,-1.486822395E0,2.801577020E0,1.392749466E0,3.463989854E0
2.043734208E0,-1.193461738E0,2.305806808E0,1.348912451E0,2.925860687E0
2.053756208E0,-1.289327424E0,1.078635287E0,9.270118685E-1,1.919679737E0
2.063779208E0,-2.827251559E0,1.565767407E-1,7.401464045E-1,2.926719043E0
2.073801208E0,-4.192995075E0,5.475747889E-1,5.112455995E-1,4.259391730E0
2.083823208E0,-3.816935493E0,1.423221645E0,-8.914387241E-2,4.074616920E0
2.093846208E0,-3.667715135E0,1.244693580E0,-1.839915575E-1,3.877531342E0
2.103868208E0,-3.058531158E0,1.546805472E0,-4.726919831E-1,3.459863830E0
2.113890208E0,-2.603337114E0,1.710948510E0,-3.339719081E-1,3.133088918E0
2.123913208E0,-2.955038365E0,1.011705717E0,3.035582006E-2,3.123575142E0
2.133935208E0,-3.034093305E0,8.602300876E-1,-1.731079888E-1,3.158430680E0
2.143957208E0,-3.326861638E0,1.515001296E0,-3.900380816E-1,3.676325202E0
2.153979208E0,-3.640475881E0,1.641863364E0,-7.015169205E-1,4.054738701E0
2.164002208E0,-3.629440430E0,1.519083822E0,-4.992177308E-1,3.966065032E0
2.174024208E0,-3.679214269E0,1.553991407E0,-1.954624790E-1,3.998713857E0
2.184047208E0,-3.889858459E0,1.428636459E0,-6.016556865E-1,4.187360807E0
2.194069208E0,-3.394711559E0,8.829006198E-1,-1.482821145E0,3.808193617E0
2.204091208E0,-2.944278903E0,-9.655477971E-2,-1.189466336E0,3.176937401E0
2.214114208E0,-2.844005587E0,-1.519997742E0,-1.385837034E0,3.509886778E0
2.224136208E0,-1.615583931E0,-1.611556661E0,-9.672548917E-1,2.478468949E0
2.234158208E0,-8.568474734E-1,-1.491526480E0,-4.220514411E-1,1.771148286E0
2.244181208E0,-2.567512393E-3,-1.324051114E0,-4.030076444E-1,1.384027856E0
2.254203208E0,7.666892552E-1,-1.528675303E0,3.507830916E-1,1.745768992E0
2.264225208E0,1.494511483E0,-1.360645036E0,5.704526049E-1,2.100079918E0
2.274247208E0,2.023548260E0,-1.241655074E0,4.958028106E-1,2.425340246E0
2.284270208E0,2.260610170E0,-1.616508083E0,4.664850175E-1,2.817989530E0
2.294292208E0,2.266535738E0,-1.871003467E0,4.382982221E-1,2.971522094E0
2.304314208E0,2.136367362E0,-1.784266162E0,2.981084494E-1,2.799382055E0
2.314337208E0,2.484119403E0,-1.135131084E0,2.988808666E-1,2.747490048E0
2.324359208E0,1.798407068E0,-2.634742217E0,-2.378822744E-1,3.198862690E0
2.334381208E0,1.108668925E0,-2.207102007E0,-2.828543794E-1,2.486051619E0
2.344404208E0,1.562532143E0,-2.819622697E0,-2.247140524E-1,3.231450952E0
2.354426208E0,1.489852422E0,-3.348404535E0,-1.205306443E0,3.858009434E0
2.364448208E0,8.867875564E-1,-2.466684468E0,-7.836476424E-1,2.735877933E0
2.374471208E0,7.062079954E-1,-2.294172895E0,-5.461164933E-1,2.461747800E0
2.384493208E0,9.472185302E-1,-1.826133395E0,-6.487719655E-2,2.058201927E0
2.394515208E0,1.015249130E0,-1.542081214E0,4.533165032E-1,1.901115756E0
2.404538208E0,1.093266190E0,-1.266365408E0,7.908176444E-1,1.850487734E0
2.414560208E0,1.260317048E0,-1.141223591E0,5.434601033E-1,1.784975974E0
2.424582208E0,1.782764012E0,-1.207718712E0,3.021500449E-1,2.174425593E0
2.434605208E0,2.471259622E0,-1.422322344E0,6.056040189E-1,2.914941028E0
2.444627208E0,2.426516143E0,-1.690843443E0,8.103941225E-1,3.066540522E0
2.454649208E0,1.763762900E0,-1.864218358E0,1.050373647E0,2.772986558E0
2.464672208E0,1.357811767E0,-1.800546564E0,1.036317233E0,2.481848935E0
2.474694208E0,1.286617824E0,-1.674751906E0,6.569789712E-1,2.211741562E0
2.484716208E0,1.228901712E0,-1.755853079E0,8.106968620E-1,2.291385794E0
2.494739208E0,1.237400056E0,-1.939061256E0,1.255170182E0,2.620414021E0
2.504761208E0,6.103224295E-1,-2.130886767E0,1.294711978E0,2.566992596E0
2.514783208E0,1.689044255E-1,-2.183988841E0,1.069540820E0,2.437673794E0
2.524806208E0,2.801810324E-2,-2.430191995E0,1.006858814E0,2.630662050E0
2.534828208E0,-4.074070895E-1,-2.474429982E0,7.833846639E-1,2.627256327E0
2.544850208E0,-5.270434606E-1,-2.352421396E0,4.826800507E-1,2.458585216E0
2.554873208E0,-9.636778575E-1,-1.927168312E0,4.323419559E-1,2.197628786E0
2.564895208E0,-1.611876211E0,-1.193771348E0,1.386497623E-1,2.010586658E0
2.574917208E0,-2.172161677E0,-2.883294198E-1,-2.902759579E-1,2.210357514E0
2.584940208E0,-2.641752151E0,5.224332234E-1,-6.387814128E-1,2.767640258E0
2.594958208E0,-3.141452277E0,1.541083971E0,-1.010042477E0,3.641956620E0
2.604980208E0,-3.549705459E0,2.440995018E0,-1.545140477E0,4.576715484E0
2.615003208E0,-3.813786768E0,3.000954795E0,-1.903968022E0,5.213040708E0
2.625025208E0,-3.873614894E0,3.272417044E0,-1.861088635E0,5.401597594E0
2.635047208E0,-3.744224197E0,3.598495211E0,-1.723720729E0,5.471708670E0
2.645070208E0,-3.777966140E0,3.662911062E0,-1.631801914E0,5.509330548E0
2.655092208E0,-3.717880737E0,3.464134966E0,-1.586034442E0,5.323379893E0
2.665114208E0,-3.815627471E0,3.515821429E0,-1.576316369E0,5.422618059E0
2.675137208E0,-4.032456261E0,3.592997074E0,-1.898794405E0,5.725011062E0
2.685159208E0,-3.831521373E0,3.560324587E0,-2.119905696E0,5.643621830E0
2.695181208E0,-3.418127319E0,3.411905297E0,-2.121438982E0,5.274959287E0
2.705204208E0,-2.785074424E0,3.050607011E0,-1.918372199E0,4.554447780E0
2.715226208E0,-1.885880245E0,2.973812020E0,-1.473006009E0,3.817047148E0
2.725248208E0,-1.180961561E0,2.542944732E0,-7.203003699E-1,2.894835183E0
2.735271208E0,-2.101021528E-1,1.894931735E0,-1.764732076E-1,1.914693706E0
2.745293208E0,6.124508160E-1,1.599740900E0,3.085692644E-1,1.740540703E0
2.755315208E0,1.094637362E0,1.558966511E0,5.609815773E-1,1.985776389E0
2.765337208E0,1.362291904E0,1.753720892E0,4.731216073E-1,2.270511012E0
2.775360208E0,1.885587884E0,1.625024260E0,2.480644695E-1,2.501535828E0
2.785382208E0,2.872913051E0,1.173809246E0,2.410840635E-1,3.112808872E0
2.795404208E0,3.746335627E0,7.464777696E-1,4.433826685E-1,3.845627111E0
2.805427208E0,4.394044569E0,3.926001853E-1,7.511279140E-1,4.475036952E0
2.815449208E0,4.859543161E0,2.964099795E-1,1.048193513E0,4.980133356E0
2.825471208E0,4.909274315E0,3.982205290E-1,1.194795927E0,5.068243403E0
2.835494208E0,4.759293818E0,6.839184093E-1,1.192951715E0,4.953963648E0
2.845516208E0,4.690060446E0,9.759646118E-1,1.129636456E0,4.921915524E0
2.855538208E0,4.539665966E0,1.088163909E0,8.401355463E-1,4.743257901E0
2.865561208E0,4.456197547E0,1.092454596E0,6.318448609E-1,4.631455662E0
2.875583208E0,4.291505456E0,9.062289637E-1,5.490363005E-1,4.420374517E0
2.885605208E0,3.879891295E0,5.429326844E-1,2.960825354E-1,3.928867168E0
2.895628208E0,3.181026233E0,4.505811757E-1,3.739586771E-2,3.212997003E0
2.905650208E0,2.493638670E0,3.212208849E-1,-2.173610325E-1,2.523620909E0
2.915672208E0,1.812195387E0,-1.452156007E-2,-5.669077304E-1,1.898854226E0
2.925695208E0,1.242449711E0,-3.082295412E-1,-9.058044559E-1,1.568173602E0
2.935717208E0,9.200342399E-1,-5.799666095E-1,-1.021376720E0,1.491990172E0
2.945739208E0,6.710194516E-1,-6.516914803E-1,-1.068397982E0,1.420015189E0
2.955762208E0,4.276624292E-1,-5.799800581E-1,-1.127661559E0,1.338242359E0
2.965784208E0,5.483051062E-2,-4.503788620E-1,-1.130770231E0,1.218396003E0
2.975806208E0,-4.217567414E-1,-3.427345455E-1,-1.197533301E0,1.315078600E0
2.985829208E0,-6.440544319E-1,-2.433231086E-1,-1.348724171E0,1.514288327E0
2.995851208E0,-8.069917738E-1,-3.391806078E-1,-1.529675615E0,1.762437714E0
3.005873208E0,-4.322484004E-1,-7.058723652E-1,-1.457538369E0,1.676160068E0
3.015895208E0,2.073282337E-1,-1.331849545E0,-9.720009305E-1,1.661804446E0
3.025918208E0,9.685123354E-1,-2.068889909E0,-2.925122255E-1,2.303016500E0
3.035940208E0,1.612267390E0,-2.575138916E0,2.964975415E-1,3.052647600E0
3.045962208E0,1.959726486E0,-2.799867002E0,7.604379970E-1,3.501149679E0
3.055985208E0,2.163023064E0,-2.810085596E0,1.095603029E0,3.711548980E0
3.066007208E0,2.130770992E0,-2.575787373E0,1.383899705E0,3.618016584E0
3.076029208E0,1.947423944E0,-1.993488894E0,1.265905817E0,3.060878227E0
3.086052208E0,1.628824366E0,-1.175668369E0,1.134619453E0,2.307081756E0
3.096074208E0,1.347790809E0,-4.243955898E-1,1.283301722E0,1.908799359E0
3.106096208E0,9.716277319E-1,1.275666574E-1,1.440621790E0,1.742333161E0
3.116119208E0,2.900692588E-1,6.589089909E-1,1.397735971E0,1.572249051E0
3.126141208E0,-4.678661299E-1,1.161188909E0,1.223168517E0,1.750257015E0
3.136163208E0,-1.117148557E0,1.406668178E0,9.298850441E-1,2.022726491E0
3.146186208E0,-1.544339116E0,1.355448031E0,5.078072906E-1,2.116622525E0
3.156208208E0,-2.016880680E0,1.111213341E0,1.461979330E-1,2.307374396E0
3.166230208E0,-2.666971777E0,9.135148868E-1,-1.745354404E-1,2.824484117E0
3.176253208E0,-3.354327180E0,1.081475572E0,-5.106589776E-1,3.561161725E0
3.186275208E0,-3.925111322E0,1.370947830E0,-7.368668474E-1,4.222436452E0
3.196297208E0,-4.302940271E0,1.631709090E0,-7.885503866E-1,4.669002168E0
3.206320208E0,-4.364804397E0,1.835969289E0,-7.826790512E-1,4.799467382E0
3.216342208E0,-4.144302971E0,1.924801359E0,-7.916925341E-1,4.637551559E0
3.226364208E0,-3.862920336E0,1.899978467E0,-6.565582640E-1,4.354668811E0
3.236387208E0,-3.408528530E0,1.853843935E0,-5.571737243E-1,3.919852884E0
3.246409208E0,-2.920814027E0,1.761958742E0,-4.297685963E-1,3.438074204E0
3.256431208E0,-2.597366522E0,1.599471051E0,-2.321473253E-1,3.059168657E0
3.266453208E0,-2.425357810E0,1.476885636E0,-1.722303218E-1,2.844857636E0
3.276476208E0,-2.198239675E0,1.166762182E0,-2.935471827E-1,2.505945252E0
3.286498208E0,-1.737614737E0,6.179097766E-1,-4.531318773E-1,1.899064497E0
3.296520208E0,-1.088892472E0,1.054437169E-1,-4.842197688E-1,1.196358633E0
3.306543208E0,-5.287555254E-1,-4.958564588E-1,-4.885986024E-1,8.741765426E-1
3.316565208E0,-9.695677578E-2,-9.800860217E-1,-4.084432161E-1,1.066205931E0
3.326587208E0,2.566138297E-1,-1.289018106E0,-4.240314545E-1,1.381021727E0
3.336610208E0,5.752134079E-1,-1.653293794E0,-6.319372469E-1,1.861073754E0
3.346632208E0,6.130203348E-1,-1.973289395E0,-1.021501704E0,2.305022928E0
3.356654208E0,5.719711268E-1,-1.981784814E0,-1.260208874E0,2.417177781E0
3.366677208E0,5.593329549E-1,-1.953248648E0,-1.348503585E0,2.438543736E0
3.376699208E0,6.506962842E-1,-2.126195546E0,-1.347078326E0,2.599756367E0
3.386721208E0,1.068178711E0,-2.535173490E0,-1.080952831E0,2.955768835E0
3.396744208E0,1.610185196E0,-3.169770927E0,-7.172381830E-1,3.626923588E0
3.406766208E0,1.842445373E0,-3.735728193E0,-4.938768840E-1,4.194542223E0
3.416788208E0,1.908216609E0,-4.060707960E0,-3.468235034E-1,4.500102922E0
3.426810208E0,1.982121906E0,-4.313796504E0,-3.018661626E-1,4.756970749E0
3.436833208E0,1.891207643E0,-4.438411779E0,-3.028566809E-1,4.834034303E0
3.446855208E0,1.937688330E0,-4.362833886E0,-1.142329592E-1,4.775144474E0
3.456877208E0,2.083664069E0,-4.499856660E0,2.154476774E-1,4.963545468E0
3.466900208E0,1.797113079E0,-4.612018535E0,5.782639003E-1,4.983444545E0
3.476922208E0,9.624055034E-1,-4.090523790E0,6.356414580E-1,4.250017564E0
3.486944208E0,-2.538118440E-1,-2.964949980E0,1.826547378E-1,2.981394236E0
3.496967208E0,-1.087624796E0,-1.944048054E0,-2.542208567E-1,2.242070199E0
3.506989208E0,-1.330423409E0,-1.587680140E0,-4.198021634E-1,2.113525144E0
3.517011208E0,-1.296507804E0,-1.496175309E0,-2.371123423E-1,1.993914568E0
3.527034208E0,-1.094129823E0,-1.266842833E0,8.052288383E-2,1.675856428E0
3.537056208E0,-6.219753456E-1,-1.449581186E0,6.403402805E-2,1.578682774E0
3.547078208E0,1.397139555E-1,-1.846025331E0,5.585377336E-1,1.933725397E0
3.557101208E0,9.888325793E-1,-2.279296702E0,1.232093269E0,2.773271921E0
3.567123208E0,1.719853234E0,-2.400090529E0,1.687293014E0,3.400777471E0
3.577145208E0,1.804703935E0,-2.109473386E0,2.061860971E0,3.458049294E0
3.587168208E0,1.698498033E0,-1.611497896E0,1.994858750E0,3.075919776E0
3.597195125E0,1.658865606E0,-1.051714998E0,1.673591672E0,2.580474495E0
3.607217125E0,1.602922370E0,-4.683818543E-1,1.221577490E0,2.069056125E0
3.617239125E0,1.379880913E0,-4.905170739E-2,7.742852269E-1,1.583033486E0
3.627262125E0,1.130722284E0,1.750077492E-1,4.199626695E-1,1.218822891E0
3.637284125E0,8.895106047E-1,4.351474500E-1,1.786053948E-1,1.006221798E0
3.647306125E0,7.063799036E-1,6.559079075E-1,9.274151802E-2,9.683949300E-1
3.657329125E0,2.980349207E-1,8.395397151E-1,8.320412457E-2,8.947483856E-1
3.667351125E0,-3.189322847E-1,1.199415373E0,5.912602141E-2,1.242501882E0
3.677373125E0,-1.246398336E0,2.089297861E0,-1.300350595E-1,2.436305293E0
3.687396125E0,-2.489304129E0,3.389853108E0,-7.130416363E-1,4.265696604E0
3.697418125E0,-1.458701965E0,2.067887696E0,4.424177317E-1,2.568988983E0
3.707440125E0,-1.491331767E0,3.051821478E0,-1.164275654E-1,3.398711543E0
3.717463125E0,-3.053552254E0,3.661877275E0,-8.837184991E-1,4.849173633E0
3.727485125E0,-3.313756859E0,3.869253455E0,-3.217269614E-2,5.094422627E0
3.737507125E0,-3.033892745E0,4.198635884E0,-2.218725979E-2,5.180110110E0
3.747530125E0,-3.173335975E0,4.299803824E0,1.296627380E-1,5.345576355E0
3.757552125E0,-3.142320004E0,4.463180292E0,1.333434141E-1,5.460030567E0
3.767574125E0,-3.057137182E0,4.484650099E0,-9.476246193E-2,5.428365701E0
3.777596125E0,-3.010369982E0,4.432088892E0,-5.138271452E-1,5.382356149E0
3.787619125E0,-2.808214195E0,4.459725173E0,-8.261626013E-1,5.334581541E0
3.797641125E0,-2.366783327E0,4.195812263E0,-9.164914119E-1,4.903719035E0
3.807663125E0,-1.786101018E0,3.784798611E0,-6.552245142E-1,4.236056721E0
3.817686125E0,-1.361166315E0,3.383554487E0,-6.280541110E-1,3.700765687E0
3.827708125E0,-9.955843592E-1,3.052770481E0,-5.730366357E-1,3.261742910E0
3.837730125E0,-5.056672096E-1,2.699641340E0,-4.038040352E-1,2.776116062E0
3.847753125E0,1.444168711E-1,2.360511603E0,-3.317183912E-1,2.388076287E0
3.857775125E0,1.122934377E0,2.121288562E0,-2.566196769E-1,2.413855928E0
3.867797125E0,1.811455130E0,1.869758887E0,-1.780067861E-1,2.609416486E0
3.877820125E0,2.244249660E0,1.748140894E0,9.704039097E-2,2.846413526E0
3.887842125E0,3.152834467E0,1.395038651E0,5.393923415E-1,3.489619193E0
3.897864125E0,4.260928026E0,9.678668028E-1,8.571743327E-1,4.452754387E0
3.907886125E0,5.158318924E0,7.501907516E-1,9.903503703E-1,5.305830203E0
3.917909125E0,5.768572356E0,8.138523120E-1,1.030346056E0,5.916113218E0
3.927931125E0,6.182787943E0,8.764350611E-1,1.045924062E0,6.331584503E0
3.937953125E0,6.195591592E0,9.006039423E-1,1.160152343E0,6.367291111E0
3.947976125E0,5.666145510E0,9.496462941E-1,1.303299199E0,5.891147751E0
3.957998125E0,5.041252989E0,1.090669441E0,1.377680606E0,5.338707276E0
3.968020125E0,4.571470141E0,1.337709625E0,1.286713718E0,4.933907020E0
3.978043125E0,4.114768100E0,1.520961948E0,1.043257293E0,4.509215846E0
3.988065125E0,3.726352183E0,1.578288050E0,8.352414268E-1,4.132108663E0
3.998087125E0,3.298207943E0,1.265271978E0,4.819897869E-1,3.565305452E0
4.008110125E0,3.032223950E0,8.776600528E-1,1.455290115E-1,3.160039231E0
4.018132125E0,2.655927556E0,7.663559639E-1,-3.072495478E-1,2.781304538E0
4.028154125E0,2.122905902E0,7.959498918E-1,-6.266955104E-1,2.352235737E0
4.038176125E0,1.765469702E0,8.929943758E-1,-6.105548564E-1,2.070531202E0
4.048199125E0,1.714387257E0,8.566556847E-1,-2.915456808E-1,1.938551396E0
4.058221125E0,2.047318946E0,7.497615659E-1,2.282507408E-1,2.192203383E0
4.068243125E0,2.332544956E0,5.806916642E-1,6.062298171E-1,2.479008546E0
4.078266125E0,2.517291242E0,3.820991707E-1,1.031214952E0,2.747027349E0
4.088288125E0,2.852149588E0,-7.163073063E-2,1.365223113E0,3.162866166E0
4.098310125E0,3.272700049E0,-7.112804550E-1,1.563781985E0,3.696200697E0
4.108333125E0,3.497572269E0,-1.341155389E0,1.520338927E0,4.042664963E0
4.118355125E0,3.358360589E0,-1.863132237E0,1.311710565E0,4.058378024E0
4.128377125E0,2.839765770E0,-2.236054788E0,1.166594806E0,3.798046088E0
4.138400125E0,2.204446494E0,-2.437458038E0,1.149466703E0,3.481674846E0
4.148422125E0,1.557238659E0,-2.386285545E0,1.163926721E0,3.077998758E0
4.158444125E0,8.351028478E-1,-2.038250499E0,1.104141426E0,2.463937936E0
4.168466125E0,-2.145460367E-2,-1.512986054E0,1.021498049E0,1.825662993E0
4.178489125E0,-9.154196173E-1,-9.825652412E-1,8.352360182E-1,1.581469802E0
4.188511125E0,-1.705652686E0,-5.805624408E-1,5.795084801E-1,1.892652613E0
4.198533125E0,-2.583323264E0,-2.196892476E-1,2.171664664E-1,2.601727066E0
4.208556125E0,-3.488799106E0,1.639679137E-1,-3.448437823E-1,3.509632732E0
4.218578125E0,-4.234749457E0,5.511743349E-1,-9.708061981E-1,4.379424710E0
4.228600125E0,-4.724764255E0,7.760412920E-1,-1.443524932E0,5.000940070E0
4.238623125E0,-4.987261553E0,9.248789504E-1,-1.670920810E0,5.340426503E0
4.248645125E0,-5.095983512E0,1.075557020E0,-1.718096438E0,5.484316387E0
4.258667125E0,-5.047227674E0,1.055380618E0,-1.630086195E0,5.407912392E0
4.268690125E0,-4.759710724E0,9.217761254E-1,-1.385886004E0,5.042340471E0
4.278712125E0,-4.330675369E0,8.558899918E-1,-1.122874151E0,4.555012973E0
4.288734125E0,-3.898532803E0,8.154386616E-1,-9.538038106E-1,4.095514612E0
4.298756125E0,-3.376413867E0,6.312268102E-1,-7.128784990E-1,3.508106846E0
4.308779125E0,-2.879112269E0,4.963090333E-1,-4.326591673E-1,2.953439363E0
4.318801125E0,-2.506070436E0,3.600730017E-1,-2.736280578E-1,2.546549412E0
4.328823125E0,-2.245735438E0,2.089499590E-1,-1.439552334E-1,2.260024525E0
4.338846125E0,-2.064973444E0,-8.582309246E-2,-1.588097924E-1,2.072848638E0
4.348868125E0,-1.890716477E0,-5.716065529E-1,-3.442128678E-1,2.005000086E0
4.358890125E0,-1.822002922E0,-1.003838289E0,-4.415742709E-1,2.126587359E0
4.368913125E0,-1.871767990E0,-1.388226060E0,-5.319850887E-1,2.390333687E0
4.378935125E0,-1.837586337E0,-1.641357288E0,-6.346193647E-1,2.544311111E0
4.388957125E0,-1.576135105E0,-1.824804323E0,-6.044722903E-1,2.485859899E0
4.398979125E0,-1.167825791E0,-1.928164385E0,-4.727035314E-1,2.303276710E0
4.409002125E0,-5.736662346E-1,-2.065904320E0,-3.178064033E-1,2.167499601E0
4.419024125E0,9.752980292E-2,-2.248150630E0,-2.753654118E-1,2.267050822E0
4.429046125E0,8.991386300E-1,-2.688366154E0,-2.076784819E-1,2.842339390E0
4.439069125E0,1.607711239E0,-3.172726403E0,-6.837397769E-2,3.557471469E0
4.449091125E0,1.861642367E0,-3.449152645E0,4.840485916E-2,3.919784344E0
4.459113125E0,1.510564429E0,-3.392629366E0,1.713839373E-1,3.717675532E0
4.469136125E0,1.083852172E0,-3.002097633E0,-6.672433197E-2,3.192456400E0
4.479158125E0,5.980713433E-1,-2.538860159E0,-5.718781561E-1,2.670308009E0
4.489180125E0,-2.095642090E-2,-2.209789387E0,-8.407069655E-1,2.364401935E0
4.499202125E0,-3.088663030E-1,-2.528948252E0,-9.033626586E-1,2.703154037E0
4.509225125E0,-3.307109159E-1,-3.353108035E0,-5.900606579E-1,3.420654146E0
4.519247125E0,-4.273244601E-1,-3.924750549E0,-3.523947304E-1,3.963641647E0
4.529269125E0,-6.614270943E-1,-3.988808843E0,-3.834019303E-1,4.061413402E0
4.539292125E0,-7.921059322E-1,-3.868768137E0,-3.099188018E-1,3.961167551E0
4.549314125E0,-5.754379410E-1,-3.864470725E0,-9.756795600E-2,3.908296600E0
4.559336125E0,-2.798910105E-1,-3.768345131E0,1.562639147E-1,3.781954841E0
4.569359125E0,-1.300730664E-1,-3.739690559E0,5.970814097E-1,3.789288942E0
4.579381125E0,4.345136118E-1,-3.958220888E0,1.288043375E0,4.185136845E0
4.589403125E0,1.336019779E0,-4.347351628E0,1.833432475E0,4.903660843E0
4.599419708E0,2.119791675E0,-4.645154122E0,2.359449749E0,5.624764589E0
4.609442708E0,2.665306490E0,-4.568995600E0,2.796026258E0,5.983088025E0
4.619464708E0,2.890966330E0,-4.260475452E0,2.942182676E0,5.930073886E0
4.629486708E0,2.899115594E0,-3.845730399E0,2.853306752E0,5.597845385E0
4.639509708E0,2.780059267E0,-3.379207959E0,2.686129594E0,5.134497849E0
4.649531708E0,2.454383973E0,-2.893427423E0,2.326756066E0,4.450810794E0
4.659553708E0,1.798792400E0,-2.253702269E0,1.853830340E0,3.428048271E0
4.669576708E0,1.075715772E0,-1.609616262E0,1.423004860E0,2.402700931E0
4.679598708E0,4.573358792E-1,-9.995233360E-1,1.043590731E0,1.515679590E0
4.689620708E0,-1.825658602E-1,-4.093270227E-1,6.565415995E-1,7.949375929E-1
4.699642708E0,-9.597233856E-1,1.569778597E-1,3.141719203E-1,1.021966252E0
4.709665708E0,-1.734095882E0,6.820587024E-1,1.149387181E-2,1.863444314E0
4.719687708E0,-2.396555010E0,1.253292495E0,-2.759863861E-1,2.718526527E0
4.729709708E0,-3.048271633E0,1.822381822E0,-5.904190922E-1,3.600226404E0
4.739732708E0,-3.765468301E0,2.392794958E0,-7.741204816E-1,4.528077049E0
4.749754708E0,-4.468883666E0,3.211406026E0,-8.106025757E-1,5.562474847E0
4.759776708E0,-5.060136572E0,4.271079962E0,-8.184148943E-1,6.672099303E0
4.769799708E0,-5.424381854E0,5.426083978E0,-8.304695141E-1,7.717252455E0
4.779821708E0,-5.319590979E0,6.216278456E0,-9.430453724E-1,8.235866718E0
4.789843708E0,-5.200714161E0,6.828260325E0,-9.950054848E-1,8.640752442E0
4.799865708E0,-4.882646679E0,7.341658723E0,-7.920215861E-1,8.852541420E0
4.809888708E0,-4.269318781E0,7.395216880E0,-3.774699301E-1,8.547444010E0
4.819910708E0,-3.492609152E0,6.997009215E0,1.106316590E-1,7.821041875E0
4.829932708E0,-2.700313185E0,6.367472250E0,5.090515780E-1,6.935093919E0
4.839955708E0,-2.034817014E0,5.608731115E0,6.549039406E-1,6.002269918E0
4.849977708E0,-1.266380026E0,4.754789123E0,7.113839507E-1,4.971700423E0
4.859999708E0,-2.270076227E-1,3.952657555E0,5.036668772E-1,3.991079369E0
4.870022708E0,9.314825034E-1,3.204614486E0,-5.747038230E-2,3.337741227E0
4.880044708E0,2.246228358E0,2.497044089E0,-6.513114113E-1,3.421253801E0
4.890066708E0,3.432975739E0,2.028569849E0,-1.411707747E0,4.230051633E0
4.900088708E0,4.465734941E0,1.799886414E0,-2.209024133E0,5.297373621E0
4.910111708E0,5.208808461E0,1.589375541E0,-2.801242560E0,6.124113003E0
4.920133708E0,5.381039953E0,1.377545536E0,-2.793382148E0,6.217411559E0
4.930155708E0,5.466193539E0,9.416648448E-1,-2.579613206E0,6.117222309E0
4.940178708E0,5.811126637E0,5.176715434E-1,-2.296958947E0,6.270023686E0
4.950200708E0,6.078729724E0,4.224303406E-1,-1.896926951E0,6.381828446E0
4.960222708E0,6.091362049E0,5.478987247E-1,-1.439549557E0,6.283087422E0
4.970245708E0,5.974728223E0,8.323640120E-1,-9.951522499E-1,6.113962315E0
4.980267708E0,5.675585840E0,1.165186942E0,-4.899153954E-1,5.814632605E0
4.990289708E0,5.180009755E0,1.205176635E0,5.214473829E-2,5.318615502E0
5.000311708E0,4.510323468E0,1.112325774E0,4.319605713E-1,4.665498511E0
5.010334708E0,3.622444237E0,8.928400093E-1,5.839653741E-1,3.776278736E0
5.020356708E0,2.591118772E0,7.516402763E-1,4.759322177E-1,2.739593231E0
5.030378708E0,1.738902878E0,5.301910168E-1,2.009612006E-1,1.829008239E0
5.040401708E0,1.703976290E0,-6.095137596E-2,-1.581468643E-1,1.712384506E0
5.050423708E0,2.374154912E0,-9.763686544E-1,-4.329389566E-1,2.603333139E0
5.060445708E0,2.688912284E0,-1.588594937E0,-5.897063166E-1,3.178307205E0
5.070467708E0,2.302446413E0,-1.683128627E0,-5.110460633E-1,2.897472957E0
5.080490708E0,1.705632221E0,-1.603348047E0,-2.412404765E-1,2.353317488E0
5.090512708E0,1.131930318E0,-1.608321689E0,9.302218437E-2,1.968912905E0
5.100534708E0,5.465702373E-1,-1.703737723E0,5.194466119E-1,1.863138759E0
5.110557708E0,2.705003822E-1,-2.021715742E0,1.068391696E0,2.302599795E0
5.120579708E0,6.450145447E-1,-2.836178211E0,1.696014721E0,3.366959540E0
5.130601708E0,1.339041036E0,-3.492637511E0,2.034506380E0,4.258023472E0
5.140623708E0,2.298903000E0,-3.811321874E0,2.083645357E0,4.914540407E0
5.150646708E0,3.294860412E0,-4.167380177E0,2.281790539E0,5.781844925E0
5.160668708E0,3.963787145E0,-4.232914893E0,2.652922672E0,6.377082070E0
5.170690708E0,3.922032178E0,-3.724702975E0,3.129449113E0,6.248935942E0
5.180713708E0,3.271316013E0,-2.737009434E0,3.590245374E0,5.575176315E0
5.190735708E0,2.143747133E0,-1.411761980E0,3.838121125E0,4.617347445E0
5.200757708E0,4.978032893E-1,-3.506019741E-2,3.612699267E0,3.647003335E0
5.210780708E0,-1.336120352E0,1.000145480E0,3.038981577E0,3.467119496E0
5.220802708E0,-2.911371358E0,1.742391912E0,2.285016886E0,4.090637472E0
5.230824708E0,-4.359499218E0,2.060854957E0,1.425635815E0,5.028398758E0
5.240846708E0,-5.423080848E0,1.955922579E0,6.522707932E-1,5.801801118E0
5.250869708E0,-5.987883874E0,1.611602269E0,-3.131724849E-2,6.201047970E0
5.260891708E0,-6.337801139E0,1.187360169E0,-5.634489562E-1,6.472636416E0
5.270913708E0,-6.555407023E0,1.091476942E0,-9.440184952E-1,6.712365759E0
5.280936708E0,-6.466592495E0,1.336941301E0,-1.071923268E0,6.689786995E0
5.290958708E0,-6.190374706E0,1.460156460E0,-1.017300626E0,6.441094352E0
5.300980708E0,-5.772686457E0,1.547892762E0,-9.323303497E-1,6.048894181E0
5.311002708E0,-5.228110120E0,1.532831796E0,-8.164648479E-1,5.509022018E0
5.321025708E0,-4.658159207E0,1.296177437E0,-7.316015759E-1,4.890170141E0
5.331047708E0,-4.156265790E0,1.087656079E0,-7.650204599E-1,4.363805377E0
5.341069708E0,-3.595887938E0,7.711980432E-1,-7.087907106E-1,3.745335866E0
5.351092708E0,-2.925232183E0,3.528584146E-1,-6.131951666E-1,3.009568191E0
5.361114708E0,-2.116283346E0,9.766078055E-2,-4.537714165E-1,2.166587484E0
5.371136708E0,-1.463887276E0,-1.449787885E-1,-1.939454189E-1,1.483778835E0
5.381158708E0,-1.155098156E0,-1.770414108E-1,1.359033251E-1,1.176462973E0
5.391181708E0,-9.829830247E-1,-1.629709634E-1,3.228610289E-1,1.047403650E0
5.401203708E0,-5.772722125E-1,-3.702012563E-1,2.319844803E-1,7.239537116E-1
5.411225708E0,6.832529962E-2,-7.279950133E-1,5.581752062E-3,7.312155919E-1
5.421248708E0,8.863536930E-1,-1.271245494E0,-2.630595079E-1,1.571905939E0
5.431270708E0,1.768508500E0,-2.006284648E0,-5.043644500E-1,2.721614209E0
5.441292708E0,2.501783842E0,-2.440561447E0,-5.142123306E-1,3.532658615E0
5.451315708E0,2.935040887E0,-2.431936512E0,-1.302496523E-1,3.813888459E0
5.461337708E0,3.183362195E0,-2.180216217E0,2.687951879E-1,3.867736867E0
5.471359708E0,3.383174418E0,-1.646868873E0,5.000087129E-1,3.795794376E0
5.481381708E0,3.429932848E0,-1.135068519E0,4.928618073E-1,3.646331395E0
5.491404708E0,3.143784147E0,-7.596027222E-1,4.448093891E-1,3.264694542E0
5.501426708E0,2.685590481E0,-4.942683551E-1,4.719202968E-1,2.771174157E0
5.511448708E0,2.259466454E0,-3.440007600E-1,2.856322454E-1,2.303282649E0
5.521471708E0,1.941218294E0,-1.716415071E-1,-1.450689818E-1,1.954183789E0
5.531493708E0,2.012518072E0,-2.051364049E-1,-6.706955159E-1,2.131230257E0
5.541515708E0,1.971181766E0,-7.507365891E-1,-9.452851483E-1,2.311433969E0
5.551537708E0,1.422714107E0,-1.303612756E0,-8.842207749E-1,2.122585223E0
5.561560708E0,3.425193679E-1,-1.649210391E0,-1.359747927E0,2.164746834E0
5.571582708E0,-9.232467002E-1,-2.297567789E0,-1.964130024E0,3.160539347E0
5.581604708E0,-1.950645760E0,-3.489904815E0,-2.479248673E0,4.704373335E0
5.591627708E0,-2.336906394E0,-4.566043925E0,-3.009429749E0,5.946978732E0
5.601653708E0,-1.672936345E0,-5.229056200E0,-3.196529540E0,6.352916327E0
5.611675708E0,-6.130267668E-1,-5.863987806E0,-2.991384365E0,6.611394348E0
5.621697708E0,3.191275817E-1,-6.294423569E0,-2.011486769E0,6.615715344E0
5.631720708E0,7.885824001E-1,-6.206212474E0,-7.520891963E-1,6.301156532E0
5.641742708E0,1.140532742E0,-5.624477667E0,2.550140315E-1,5.744614531E0
5.651764708E0,1.611832942E0,-5.076340376E0,9.044835699E-1,5.402344636E0
5.661787708E0,1.991990837E0,-4.502449608E0,1.101845809E0,5.045210021E0
5.671809708E0,1.965802912E0,-4.001124833E0,6.947818051E-1,4.511773795E0
5.681831708E0,1.541241846E0,-3.585599469E0,3.206665689E-1,3.915964381E0
5.691853708E0,1.162577330E0,-3.307287207E0,2.113043404E-1,3.512034203E0
5.701876708E0,7.027248091E-1,-3.258549787E0,6.172481641E-2,3.334033417E0
5.711898708E0,9.454538405E-2,-3.182098027E0,-2.917833701E-2,3.183635981E0
5.721920708E0,-4.167409998E-1,-3.197878201E0,-1.198639740E-1,3.227145088E0
5.731943708E0,-1.070585425E0,-3.211621789E0,-8.209373832E-2,3.386356013E0
5.741965708E0,-1.605051926E0,-2.921505167E0,3.199479461E-2,3.333527830E0
5.751987708E0,-1.696869584E0,-2.378064652E0,1.295941794E-1,2.924269571E0
5.762009708E0,-1.697169546E0,-1.591576433E0,3.111461323E-1,2.347405360E0
5.772032708E0,-1.941175609E0,-5.631093791E-1,5.900238204E-1,2.105560027E0
5.782054708E0,-2.073561834E0,6.513219362E-1,7.085112137E-1,2.286015548E0
5.792076708E0,-2.464285648E0,1.846171219E0,5.109269263E-1,3.121233450E0
5.802099708E0,-2.896977852E0,2.945617623E0,2.282279366E-1,4.137781029E0
5.812121708E0,-3.073766663E0,3.729255325E0,-1.217466313E-1,4.834274405E0
5.822143708E0,-3.149545408E0,4.150487571E0,-3.915354073E-1,5.224890749E0
5.832165708E0,-3.396673300E0,4.392350630E0,-5.593411410E-1,5.580591015E0
5.842188708E0,-3.649934337E0,4.667960309E0,-6.848487014E-1,5.964972075E0
5.852210708E0,-3.694087831E0,4.858410555E0,-7.624375986E-1,6.150751915E0
5.862232708E0,-3.368944634E0,4.975982859E0,-7.622903949E-1,6.057332747E0
5.872255708E0,-2.862628968E0,5.057850895E0,-5.298841842E-1,5.835861336E0
5.882277708E0,-2.682135946E0,4.844840337E0,-4.391979624E-1,5.555108098E0
5.892299708E0,-2.104553246E0,4.488586444E0,-4.153325517E-1,4.974842084E0
5.902321708E0,-1.327078217E0,4.304910198E0,-5.458236940E-1,4.537765079E0
5.912344708E0,-6.505413330E-1,4.212506064E0,-8.212771064E-1,4.340841791E0
5.922366708E0,3.307068229E-2,3.866330432E0,-1.051296045E0,4.006847646E0
5.932388708E0,7.445394176E-1,3.499670250E0,-1.333402566E0,3.818375729E0
5.942410708E0,1.388337157E0,3.062782668E0,-1.446998178E0,3.660863486E0
5.952433708E0,1.858732792E0,2.501866288E0,-1.283383290E0,3.370652041E0
5.962455708E0,2.266366169E0,2.123765443E0,-9.463736075E-1,3.246909034E0
5.972477708E0,2.522611624E0,1.903270449E0,-4.463249874E-1,3.191428176E0
5.982500708E0,3.062016683E0,1.554671731E0,4.079763159E-2,3.434328873E0
5.992522708E0,3.762785599E0,1.304406223E0,4.619820768E-1,4.009171797E0
6.002544708E0,4.230725403E0,1.345594595E0,6.788586675E-1,4.491159243E0
6.012566708E0,4.341947047E0,1.540534918E0,1.054529409E0,4.726286519E0
6.022589708E0,4.653697196E0,1.351569280E0,1.543379588E0,5.085829103E0
6.032611708E0,4.995083374E0,1.125408919E0,1.642006183E0,5.377135618E0
6.042633708E0,4.724919791E0,1.064425968E0,2.146134551E0,5.297524251E0
6.052656708E0,4.124892554E0,7.794712687E-1,2.232734154E0,4.754725633E0
6.062678708E0,4.000492457E0,5.521771324E-1,1.952422875E0,4.485620867E0
6.072700708E0,3.824015302E0,2.890196836E-1,1.597875053E0,4.154495167E0
6.082722708E0,3.535059938E0,-2.155342162E-2,1.141073171E0,3.714722237E0
6.092745708E0,3.351957888E0,1.567989349E-2,5.773083191E-1,3.401345680E0
6.102767708E0,2.933773795E0,1.644219500E-1,1.097370350E-1,2.940426071E0
6.112789708E0,2.679025227E0,2.247307169E-1,1.152731788E-1,2.690904675E0
6.122812708E0,2.653029091E0,2.621511430E-1,3.123237616E-1,2.684181945E0
6.132834708E0,2.698474236E0,2.723615509E-1,6.596526106E-1,2.791251616E0
6.142856708E0,2.802838265E0,1.513423133E-1,1.179259436E0,3.044578731E0
6.152878708E0,3.148249081E0,-1.261583555E-1,1.490489768E0,3.485534099E0
6.162901708E0,3.514977676E0,-5.254436624E-1,1.791217186E0,3.979901771E0
6.172923708E0,3.558824192E0,-9.148103374E-1,1.934404534E0,4.152592983E0
6.182945708E0,3.456904884E0,-1.130526402E0,1.851725927E0,4.081319668E0
6.192968708E0,3.304719987E0,-1.298960711E0,1.779316494E0,3.971704962E0
6.202990708E0,2.933326483E0,-1.346692702E0,1.791429440E0,3.691504426E0
6.213012708E0,2.424815773E0,-1.051532273E0,1.747752639E0,3.168610254E0
6.223034708E0,1.713556952E0,-4.165983278E-1,1.725412913E0,2.467160578E0
6.233057708E0,7.314527643E-1,2.997943479E-1,1.554867613E0,1.744280107E0
6.243079708E0,-2.803470933E-1,1.047071724E0,1.267090316E0,1.667474605E0
6.253101708E0,-1.175528913E0,1.620896418E0,8.942450953E-1,2.192908506E0
6.263123708E0,-2.019816567E0,1.925317960E0,3.969850123E-1,2.818528927E0
6.273146708E0,-2.887485482E0,2.111127856E0,-1.433623257E-1,3.579802507E0
6.283168708E0,-3.600772702E0,2.187779298E0,-5.766874909E-1,4.252588714E0
6.293190708E0,-4.122779371E0,2.237161666E0,-9.314977062E-1,4.782247383E0
6.303213708E0,-4.547131106E0,2.265109602E0,-1.252843137E0,5.232278541E0
6.313235708E0,-4.778897778E0,2.241511702E0,-1.448507637E0,5.473610605E0
6.323257708E0,-4.840705771E0,2.177752200E0,-1.393099860E0,5.487783180E0
6.333279708E0,-4.759951045E0,2.029676142E0,-1.271649683E0,5.328584437E0
6.343302708E0,-4.480673407E0,1.776597246E0,-1.182147376E0,4.962882668E0
6.353324708E0,-4.160329605E0,1.409534191E0,-1.026129190E0,4.510883524E0
6.363346708E0,-4.011385235E0,9.322207144E-1,-1.081829621E0,4.258004496E0
6.373369708E0,-4.032679040E0,6.033923095E-1,-1.206601601E0,4.252348756E0
6.383391708E0,-3.882512017E0,1.072855899E-1,-1.153106595E0,4.051550886E0
6.393413708E0,-3.611155602E0,-5.859673145E-1,-1.255293120E0,3.867759467E0
6.403435708E0,-3.299147590E0,-1.262445434E0,-1.483215832E0,3.831197268E0
6.413458708E0,-2.955355284E0,-1.864925871E0,-1.481478624E0,3.795635951E0
6.423480708E0,-2.342026801E0,-2.249017480E0,-1.270160251E0,3.486613862E0
6.433502708E0,-1.819585099E0,-2.549489520E0,-9.960764024E-1,3.286784895E0
6.443524708E0,-1.400439139E0,-2.665956116E0,-8.774495530E-1,3.136633468E0
6.453547708E0,-9.127503633E-1,-2.797714642E0,-7.241666950E-1,3.030633242E0
6.463569708E0,-3.376673484E-1,-2.834287806E0,-4.996774681E-1,2.897737769E0
6.473591708E0,3.567912519E-1,-2.844927692E0,-3.482755132E-1,2.888288318E0
6.483614708E0,1.051520578E0,-3.007943387E0,-3.304374124E-1,3.203530526E0
6.493636708E0,1.288030511E0,-3.380063407E0,-3.837855077E-1,3.637463752E0
6.503658708E0,1.883464760E0,-3.619907130E0,-4.521530534E-1,4.105558368E0
6.513680708E0,2.427689095E0,-3.563537925E0,-7.907733518E-1,4.383811056E0
6.523703708E0,1.589619370E0,-3.706102982E0,-8.900128806E-1,4.129674562E0
6.533725708E0,6.983417362E-1,-3.889378402E0,-9.949171919E-1,4.074899478E0
6.543747708E0,1.633215040E-1,-3.980569823E0,-1.350965263E0,4.206746626E0
6.553769708E0,7.865616024E-2,-4.584830737E0,-1.437430379E0,4.805524505E0
6.563792708E0,3.187463433E-1,-5.261402997E0,-1.088239485E0,5.382213848E0
6.573814708E0,2.257551491E-1,-5.386051601E0,-7.191382357E-1,5.438536296E0
6.583836708E0,-2.129906774E-1,-4.859257524E0,-3.759084311E-1,4.878427602E0
6.593859708E0,-5.131405360E-1,-4.342953060E0,-1.532368112E-1,4.375846891E0
6.603877625E0,-2.364152080E-1,-4.174190722E0,3.111718601E-1,4.192444187E0
6.613899625E0,1.945397884E-1,-3.873723067E0,8.873266697E-1,3.978809464E0
6.623921625E0,4.760978401E-1,-3.591799564E0,1.167772435E0,3.806755275E0
6.633944625E0,8.159801137E-1,-3.510893103E0,1.195341472E0,3.797503807E0
6.643966625E0,1.221673969E0,-3.365404145E0,1.009477782E0,3.719876038E0
6.653988625E0,1.691590717E0,-3.271102005E0,8.983048171E-1,3.790585579E0
6.664011625E0,1.961863058E0,-3.260039658E0,9.083088183E-1,3.911750266E0
6.674033625E0,2.070954561E0,-3.200376131E0,9.972408754E-1,3.940272774E0
6.684055625E0,2.146214073E0,-3.042026222E0,1.013237542E0,3.858342740E0
6.694077625E0,2.077567177E0,-3.006395337E0,9.363320379E-1,3.772454901E0
6.704100625E0,1.920924947E0,-2.783797099E0,8.572139476E-1,3.489168195E0
6.714122625E0,1.838020200E0,-2.382224362E0,8.344877207E-1,3.122447905E0
6.724144625E0,1.569948751E0,-1.915373016E0,9.089137128E-1,2.638089652E0
6.734166625E0,1.006332126E0,-1.382396386E0,8.968611395E-1,1.930824699E0
6.744189625E0,3.967973167E-1,-7.525308073E-1,8.833998258E-1,1.226436292E0
6.754211625E0,-3.704561949E-1,-1.518448815E-1,8.940509677E-1,9.796028752E-1
6.764233625E0,-1.072075295E0,3.756792203E-1,8.115584493E-1,1.396104377E0
6.774256625E0,-1.407445273E0,9.204885685E-1,6.032377969E-1,1.786644128E0
6.784278625E0,-1.360991483E0,1.447977879E0,2.600220256E-1,2.004133032E0
6.794300625E0,-1.297917568E0,1.958330755E0,-1.266093220E-1,2.352802431E0
6.804322625E0,-1.452302772E0,2.395872055E0,-4.642192215E-1,2.839874246E0
6.814345625E0,-1.889081011E0,2.912610675E0,-7.226803328E-1,3.546011122E0
6.824367625E0,-2.714282768E0,3.402174361E0,-1.110674666E0,4.491739033E0
6.834389625E0,-3.482999838E0,3.844158668E0,-1.541501609E0,5.411568252E0
6.844411625E0,-4.092273277E0,4.152259278E0,-1.814531496E0,6.105774499E0
6.854434625E0,-4.572360088E0,4.331961756E0,-1.976201600E0,6.601343969E0
6.864456625E0,-4.925237213E0,4.487643581E0,-2.180649496E0,7.010858631E0
6.874478625E0,-5.043090768E0,4.497803703E0,-2.251108591E0,7.122534137E0
6.884501625E0,-4.998595212E0,4.372713341E0,-2.118842234E0,6.971088040E0
6.894523625E0,-4.623461829E0,4.249151734E0,-2.059744864E0,6.608648776E0
6.904545625E0,-4.055993643E0,3.895782858E0,-2.092834403E0,6.000680323E0
6.914567625E0,-3.577962129E0,3.359444078E0,-2.098372155E0,5.337681445E0
6.924590625E0,-2.858756942E0,2.775683795E0,-2.110216421E0,4.508871824E0
6.934612625E0,-1.718016039E0,2.266936857E0,-2.084473031E0,3.526415977E0
6.944634625E0,-5.671027350E-1,1.747357952E0,-1.778879853E0,2.557201372E0
6.954656625E0,4.432803422E-1,1.508009781E0,-1.408731076E0,2.110714145E0
6.964679625E0,1.691166794E0,1.591396923E0,-1.362993716E0,2.692645755E0
6.974701625E0,3.070790430E0,1.710635099E0,-1.080112586E0,3.677318249E0
6.984723625E0,3.804263408E0,1.700522924E0,-3.842158628E-1,4.184712669E0
6.994746625E0,3.922635026E0,1.763747697E0,3.992876458E-1,4.319409926E0
7.004768625E0,4.136180604E0,1.791415552E0,8.481320523E-1,4.586555096E0
7.014790625E0,4.773338830E0,1.681897203E0,6.330128422E-1,5.100416360E0
7.024812625E0,5.631765051E0,1.426008428E0,4.800031954E-1,5.829295043E0
7.034835625E0,6.234104277E0,1.059200896E0,5.832387114E-1,6.350285826E0
7.044857625E0,6.611833239E0,8.249526662E-1,6.924758095E-1,6.698985627E0
7.054879625E0,6.912536244E0,6.946445417E-1,1.064996364E0,7.028506643E0
7.064901625E0,6.935122284E0,4.264508861E-1,1.594582340E0,7.128848034E0
7.074924625E0,6.772188451E0,-4.036099076E-2,1.940965987E0,7.044963760E0
7.084946625E0,6.649100468E0,-6.880430353E-1,2.260867447E0,7.056589960E0
7.094968625E0,6.480684285E0,-1.393717180E0,2.138416080E0,6.965237951E0
7.104990625E0,5.952390690E0,-1.433351946E0,1.401269444E0,6.280844591E0
7.115013625E0,4.849432155E0,-8.182833320E-1,5.408753416E-1,4.947638424E0
7.125035625E0,3.419261679E0,6.110808134E-2,-3.613126114E-2,3.419998552E0
7.135057625E0,1.969125300E0,5.958798069E-1,1.518171072E-2,2.057366685E0
7.145080625E0,1.226415476E0,9.010448223E-1,3.857767770E-1,1.569968284E0
7.155102625E0,1.629023171E0,9.405170363E-1,7.060325789E-1,2.009171668E0
7.165124625E0,2.458433754E0,5.740381175E-1,1.061179009E0,2.738524635E0
7.175146625E0,2.895222518E0,-5.462644279E-2,1.395764582E0,3.214569372E0
7.185169625E0,3.224379829E0,-7.533108258E-1,1.526570305E0,3.646165023E0
7.195191625E0,3.579247347E0,-1.124174572E0,1.490673809E0,4.036940480E0
7.205213625E0,3.764718688E0,-1.225241355E0,1.421931165E0,4.206686513E0
7.215236625E0,3.350760378E0,-1.205911630E0,1.508522581E0,3.867487343E0
7.225258625E0,2.239889976E0,-1.074840444E0,1.668676064E0,2.992802849E0
7.235280625E0,1.245124812E0,-8.034542084E-1,1.730374568E0,2.278172647E0
7.245302625E0,3.514597607E-1,-3.633085585E-1,1.735821249E0,1.807924910E0
7.255325625E0,-5.890765715E-1,1.871951008E-1,1.356524649E0,1.490708669E0
7.265347625E0,-1.586565953E0,7.382334879E-1,6.792587632E-1,1.877118183E0
7.275369625E0,-2.388971171E0,1.267162676E0,-2.555467129E-2,2.704355292E0
7.285391625E0,-3.029329578E0,1.756505044E0,-7.564841098E-1,3.582515299E0
7.295414625E0,-3.824933900E0,2.235805404E0,-1.259703675E0,4.606061060E0
7.305436625E0,-4.627963015E0,2.695069987E0,-1.592983273E0,5.587400077E0
7.315458625E0,-5.028655162E0,3.025708105E0,-1.791133278E0,6.135995494E0
7.325480625E0,-5.232489685E0,3.193445134E0,-1.776930830E0,6.382360324E0
7.335503625E0,-5.065371584E0,3.223508301E0,-1.679508616E0,6.234560469E0
7.345525625E0,-4.443393899E0,3.120720097E0,-1.450635293E0,5.620230068E0
7.355547625E0,-3.989026067E0,2.926647209E0,-1.119333662E0,5.072524095E0
7.365569625E0,-3.646150019E0,2.569131195E0,-8.805357134E-1,4.546447866E0
7.375592625E0,-3.277670183E0,2.086381854E0,-8.303873608E-1,3.973116439E0
7.385614625E0,-3.188163929E0,1.566303012E0,-8.731740689E-1,3.657885635E0
7.395636625E0,-3.191842412E0,9.177760452E-1,-9.046964085E-1,3.442186289E0
7.405659625E0,-2.970040566E0,1.646213400E-1,-9.400627077E-1,3.119608796E0
7.415681625E0,-2.557466292E0,-3.770234951E-1,-9.034070975E-1,2.738416501E0
7.425703625E0,-2.162395658E0,-8.131795898E-1,-6.854802006E-1,2.409792342E0
7.435725625E0,-1.565230633E0,-1.334073241E0,-3.782607660E-1,2.091119211E0
7.445748625E0,-8.379381627E-1,-1.820499896E0,2.215773135E-2,2.004208372E0
7.455770625E0,-2.029960316E-1,-2.184288218E0,2.223742890E-1,2.204942796E0
7.465792625E0,2.139209694E-1,-2.445410251E0,2.522854283E-1,2.467679358E0
7.475814625E0,7.764891887E-1,-2.717190589E0,2.808335817E-1,2.839881627E0
7.485837625E0,1.117653172E0,-2.895216086E0,9.950353056E-2,3.105048430E0
7.495859625E0,1.252027450E0,-2.902668362E0,-1.391806895E-1,3.164242030E0
7.505881625E0,1.370684413E0,-2.950287209E0,-4.207562828E-1,3.280244843E0
7.515903625E0,1.558888158E0,-2.977060733E0,-6.376613787E-1,3.420472910E0
7.525926625E0,1.604673611E0,-3.150509322E0,-7.490259862E-1,3.614101038E0
7.535948625E0,1.429567629E0,-3.362422650E0,-6.652190137E-1,3.713767092E0
7.545970625E0,1.172555019E0,-3.595744096E0,-4.255808204E-1,3.805966357E0
7.555992625E0,9.522184843E-1,-3.839518317E0,-3.942686883E-1,3.975433152E0
7.566015625E0,6.308537579E-1,-3.909210111E0,-4.816241898E-1,3.988967538E0
7.576037625E0,2.127907026E-1,-4.363847793E0,-4.806646617E-1,4.395393721E0
7.586059625E0,4.164971709E-3,-5.091879351E0,-3.257244104E-1,5.102288611E0
7.596082625E0,-4.329851496E-1,-5.549221662E0,-7.247506857E-2,5.566559964E0
7.606105458E0,-1.044579933E0,-5.164927447E0,3.246257186E-2,5.269599281E0
7.616127458E0,-1.550286319E0,-4.664146171E0,2.871333718E-2,4.915126817E0
7.626149458E0,-1.658344619E0,-4.557182762E0,2.867047709E-1,4.858005890E0
7.636172458E0,-1.569329531E0,-4.515254718E0,5.689434385E-1,4.813939860E0
7.646194458E0,-1.125908856E0,-4.415813752E0,1.006557829E0,4.666930523E0
7.656216458E0,-1.853824639E-1,-4.446159340E0,1.578740479E0,4.721770964E0
7.666238458E0,6.369845635E-1,-4.495172748E0,1.996097921E0,4.959509480E0
7.676261458E0,1.206954773E0,-4.307220433E0,2.294722826E0,5.027389037E0
7.686283458E0,1.525356715E0,-4.041550143E0,2.584685665E0,5.034028273E0
7.696305458E0,1.594908761E0,-3.581333341E0,2.704904419E0,4.763002243E0
7.706327458E0,1.376906435E0,-3.088810672E0,2.558681928E0,4.240692857E0
7.716350458E0,1.097182070E0,-2.642304713E0,2.239345016E0,3.633214664E0
7.726372458E0,8.658732355E-1,-2.237548751E0,1.841719149E0,3.024614074E0
7.736394458E0,4.788676661E-1,-1.781652457E0,1.349361956E0,2.285689700E0
7.746416458E0,-3.523064375E-2,-1.165089001E0,9.502953351E-1,1.503906514E0
7.756439458E0,-6.625228626E-1,-4.329795948E-1,6.061428398E-1,9.969037141E-1
7.766461458E0,-1.209574910E0,4.136016297E-1,2.090911692E-1,1.295321153E0
7.776483458E0,-1.662181562E0,1.197639866E0,-3.448823740E-1,2.077530420E0
7.786506458E0,-2.242941054E0,1.898289791E0,-8.620722529E-1,3.062263422E0
7.796528458E0,-2.823450285E0,2.594527406E0,-1.177059275E0,4.011098666E0
7.806550458E0,-3.251349526E0,3.296514882E0,-1.470618006E0,4.858086189E0
7.816572458E0,-3.440610448E0,4.025875512E0,-1.757100875E0,5.579684344E0
7.826595458E0,-3.736850274E0,4.550561960E0,-1.995610263E0,6.217244120E0
7.836617458E0,-3.925449291E0,4.911293943E0,-2.060839024E0,6.616420317E0
7.846639458E0,-3.917439190E0,5.209245833E0,-1.892016898E0,6.786921239E0
7.856661458E0,-3.873620741E0,5.281644303E0,-1.564363052E0,6.734087611E0
7.866684458E0,-3.712191980E0,5.182287830E0,-1.302364376E0,6.506353005E0
7.876706458E0,-3.532559668E0,4.975490524E0,-1.139735913E0,6.207534270E0
7.886728458E0,-3.332821705E0,4.731914231E0,-1.072582249E0,5.886352477E0
7.896750458E0,-3.007911812E0,4.367352029E0,-1.094910427E0,5.414806188E0
7.906773458E0,-2.577393603E0,3.984175217E0,-1.186669905E0,4.891297926E0
7.916795458E0,-1.934622050E0,3.615200706E0,-1.278596760E0,4.295025995E0
7.926817458E0,-1.195068553E0,3.170359742E0,-1.212261414E0,3.598464600E0
7.936839458E0,-3.425053346E-1,2.706993045E0,-1.076547831E0,2.933270611E0
7.946862458E0,7.014699966E-1,2.319800364E0,-1.104239805E0,2.663246033E0
7.956884458E0,1.957102255E0,1.967526671E0,-8.734578051E-1,2.909353704E0
7.966906458E0,3.054081427E0,1.690970328E0,-4.572091408E-1,3.520771820E0
7.976928458E0,3.998591527E0,1.507060193E0,-2.164286940E-1,4.278645347E0
7.986951458E0,4.834579643E0,1.336154265E0,2.919163942E-2,5.015906767E0
7.996973458E0,5.451838624E0,1.138796119E0,1.931481510E-1,5.572854493E0
8.006995458E0,5.711973647E0,1.045144774E0,3.487741345E-1,5.817268598E0
8.017017458E0,5.291302734E0,1.048223918E0,-1.291649938E-1,5.395678048E0
8.027040458E0,5.269982616E0,9.946189839E-1,-2.278382197E-2,5.363068413E0
8.037062458E0,5.524669788E0,6.200153589E-1,-4.447099864E-2,5.559529925E0
8.047084458E0,6.033092206E0,1.718806583E-1,1.642488724E-1,6.037774608E0
8.057107458E0,6.205724232E0,-1.314775676E-1,4.941667597E-1,6.226756810E0
8.067129458E0,5.923038837E0,-1.794440317E-1,9.557288602E-1,6.002333453E0
8.077151458E0,5.575078050E0,-3.514562523E-1,1.280061926E0,5.730931451E0
8.087173458E0,5.355691103E0,-7.492405790E-1,1.497566653E0,5.611371893E0
8.097196458E0,5.147560047E0,-1.269154530E0,1.482237008E0,5.505011735E0
8.107218458E0,4.798831521E0,-1.388176358E0,1.124727718E0,5.120627892E0
8.117240458E0,4.139809386E0,-9.446393234E-1,7.160710788E-1,4.306172662E0
8.127262458E0,3.132849269E0,-2.364701718E-1,2.926964128E-1,3.155365886E0
8.137285458E0,2.439972925E0,1.842223763E-1,4.550490332E-1,2.488870302E0
8.147307458E0,2.326622896E0,4.227601236E-1,9.931793994E-1,2.564820762E0
8.157329458E0,2.527768868E0,6.531211245E-1,1.054684799E0,2.815766801E0
8.167351458E0,2.598390369E0,7.644322300E-1,1.327059214E0,3.016135823E0
8.177374458E0,2.513439682E0,4.355491537E-1,1.488145473E0,2.953245511E0
8.187396458E0,2.583257191E0,-1.081734896E-2,1.437421024E0,2.956266890E0
8.197418458E0,2.500451261E0,-4.268110746E-1,1.416843356E0,2.905489511E0
8.207440458E0,2.221759515E0,-7.845337880E-1,1.499383968E0,2.792823104E0
8.217463458E0,1.791300362E0,-1.067332619E0,1.442315728E0,2.535395544E0
8.227485458E0,1.320272058E0,-1.234585791E0,1.422575382E0,2.300226315E0
8.237507458E0,8.062988788E-1,-1.158273779E0,1.402235404E0,1.989467305E0
8.247529458E0,1.798679549E-1,-7.855453563E-1,1.376574021E0,1.595114423E0
8.257552458E0,-5.377941513E-1,-1.506260294E-1,1.343549824E0,1.455004082E0
8.267574458E0,-1.329501303E0,5.357838786E-1,1.146352184E0,1.835418592E0
8.277596458E0,-2.087692800E0,1.273130051E0,7.987552397E-1,2.572417402E0
8.287618458E0,-2.852032059E0,1.859894926E0,3.910319620E-1,3.427273260E0
8.297641458E0,-3.547968251E0,2.240747178E0,-5.910424054E-2,4.196727289E0
8.307663458E0,-4.089124551E0,2.378048865E0,-5.836465546E-1,4.766203867E0
8.317685458E0,-4.372459572E0,2.476532933E0,-1.078996060E0,5.139635257E0
8.327707458E0,-4.378571082E0,2.593256514E0,-1.565964166E0,5.324388025E0
8.337730458E0,-4.159440828E0,2.766164528E0,-2.071765716E0,5.407848683E0
8.347752458E0,-3.929602568E0,2.902861028E0,-2.440015025E0,5.460957042E0
8.357774458E0,-3.878958079E0,2.949835220E0,-2.465098411E0,5.461186115E0
8.367796458E0,-3.994867435E0,3.074052592E0,-2.125034289E0,5.470332338E0
8.377819458E0,-4.198465145E0,3.179795686E0,-1.842385147E0,5.579658879E0
8.387841458E0,-3.856052781E0,2.896808867E0,-1.508422594E0,5.053314100E0
8.397863458E0,-3.141611906E0,2.224824918E0,-7.017325366E-1,3.913055052E0
8.407885458E0,-2.682445849E0,1.692419560E0,4.356643438E-2,3.172017928E0
8.417908458E0,-2.091647857E0,1.262557116E0,6.456587617E-1,2.527037092E0
8.427930458E0,-1.023856816E0,6.625047362E-1,1.296819900E0,1.780150881E0
8.437952458E0,1.274207693E-1,-7.990249425E-2,1.870163368E0,1.876201344E0
8.447974458E0,1.014141083E0,-7.194683111E-1,2.121815397E0,2.459312376E0
8.457997458E0,1.697728540E0,-1.274514380E0,1.709536699E0,2.725653101E0
8.468019458E0,2.256697798E0,-1.644715344E0,9.183066800E-1,2.939568110E0
8.478041458E0,2.442633408E0,-1.871830848E0,7.715035602E-2,3.078337354E0
8.488064458E0,2.383497008E0,-1.945816252E0,-5.332843401E-1,3.122763369E0
8.498086458E0,1.910581807E0,-1.866811305E0,-8.344783652E-1,2.798510574E0
8.508108458E0,1.301141138E0,-1.877244785E0,-9.126258177E-1,2.459654879E0
8.518130458E0,9.809528714E-1,-2.278072002E0,-5.909324777E-1,2.549721902E0
8.528152458E0,8.498512799E-1,-3.138321970E0,-1.503631970E-1,3.254830422E0
8.538175458E0,4.236524087E-1,-4.161765389E0,2.907339410E-1,4.193363654E0
8.548197458E0,-3.752971047E-1,-4.996559211E0,1.638752353E-1,5.013312972E0
8.558219458E0,-1.287357497E0,-5.517398776E0,-1.175578322E-1,5.666815545E0
8.568242458E0,-2.199735977E0,-5.617328276E0,-2.865691155E-1,6.039481533E0
8.578264458E0,-3.018601107E0,-5.686219586E0,-5.014398189E-1,6.457281759E0
8.588286458E0,-3.528559588E0,-6.072230544E0,-5.944001690E-1,7.048122311E0
8.598308083E0,-3.673513234E0,-6.477705714E0,-6.366122420E-1,7.473997989E0
8.608331083E0,-3.628128315E0,-6.588368948E0,-6.627912498E-1,7.550444537E0
8.618353083E0,-3.233975109E0,-6.304985980E0,-3.210337740E-1,7.093271875E0
8.628375083E0,-2.466008822E0,-6.042536044E0,3.010702103E-1,6.533305796E0
8.638397083E0,-1.647853544E0,-5.688094203E0,9.689086305E-1,6.000718366E0
8.648420083E0,-7.499065769E-1,-5.242762073E0,1.425214961E0,5.484537512E0
8.658442083E0,1.005089593E-1,-5.105486991E0,1.604853120E0,5.352723887E0
8.668464083E0,1.091324329E0,-5.257923903E0,1.727610735E0,5.641045242E0
8.678486083E0,1.894704863E0,-5.232100845E0,1.777436468E0,5.841580793E0
8.688509083E0,2.284807702E0,-4.827664141E0,1.770431650E0,5.626821085E0
8.698531083E0,2.059719136E0,-4.320595061E0,1.861551150E0,5.135694431E0
8.708553083E0,1.676687919E0,-3.870823140E0,1.947715720E0,4.646305058E0
8.718575083E0,1.292981349E0,-3.584791969E0,1.722601426E0,4.182091570E0
8.728598083E0,9.622499675E-1,-3.387392892E0,1.348303610E0,3.770713226E0
8.738620083E0,7.071616763E-1,-3.103037240E0,7.330655725E-1,3.265930630E0
8.748642083E0,4.012096256E-1,-2.591399146E0,6.821727231E-2,2.623160745E0
8.758664083E0,-1.947994047E-1,-2.118392729E0,-1.973078603E-1,2.136460848E0
8.768686083E0,-9.493252820E-1,-1.453421052E0,-3.023383252E-1,1.762117961E0
8.778709083E0,-1.604088305E0,-5.364627403E-1,-5.734661137E-1,1.785988506E0
8.788731083E0,-1.995314394E0,2.697039914E-1,-6.304633100E-1,2.109858706E0
8.798753083E0,-2.347532539E0,1.008493257E0,-7.192630738E-1,2.654299727E0
8.808776083E0,-2.613772640E0,1.794908679E0,-8.849521154E-1,3.291905956E0
8.818798083E0,-2.750402189E0,2.582984418E0,-1.014789685E0,3.907213689E0
8.828820083E0,-2.778320889E0,3.280154080E0,-1.162579230E0,4.453096475E0
8.838842083E0,-2.798666861E0,3.886426728E0,-1.161579941E0,4.928094649E0
8.848864083E0,-2.966236367E0,4.304847048E0,-1.099722831E0,5.342252016E0
8.858887083E0,-3.150088615E0,4.627699306E0,-1.055373309E0,5.696707116E0
8.868909083E0,-3.352287086E0,4.763913703E0,-1.183934870E0,5.944274914E0
8.878931083E0,-3.447969169E0,4.809973975E0,-1.304865814E0,6.060281827E0
8.888953083E0,-3.476205373E0,4.834944509E0,-1.304332987E0,6.096062397E0
8.898976083E0,-3.406611813E0,4.807139829E0,-1.359730239E0,6.046690310E0
8.908998083E0,-2.976887071E0,4.690562137E0,-1.504165967E0,5.755496942E0
8.919020083E0,-2.276099444E0,4.490628877E0,-1.588191041E0,5.279083933E0
8.929042083E0,-1.478790075E0,4.383224296E0,-1.504716629E0,4.864529520E0
8.939065083E0,-6.502793777E-1,4.222688406E0,-1.305481526E0,4.467464902E0
8.949087083E0,3.807028556E-1,4.163584750E0,-9.027231194E-1,4.277298407E0
8.959109083E0,1.514213676E0,3.928957620E0,-4.293804874E-1,4.232483744E0
8.969131083E0,2.460016596E0,3.635940780E0,7.097087234E-2,4.390533438E0
8.979154083E0,3.151458033E0,3.400231331E0,5.201297128E-1,4.665168352E0
8.989176083E0,3.533776474E0,3.059172013E0,6.758849198E-1,4.722597802E0
8.999198083E0,3.962138815E0,2.879677695E0,4.626433969E-1,4.919870580E0
9.009220083E0,4.559117898E0,2.722432033E0,1.852416922E-1,5.313332915E0
9.019243083E0,5.073807362E0,2.713466497E0,4.607591316E-2,5.754002482E0
9.029265083E0,5.454324861E0,2.684117568E0,-2.745384693E-2,6.079054245E0
9.039287083E0,5.948292376E0,2.258099960E0,2.669232018E-1,6.368080215E0
9.049309083E0,6.440028595E0,1.668990059E0,8.922400850E-1,6.712345975E0
9.059332083E0,6.693058081E0,1.136236208E0,1.405892399E0,6.932863235E0
9.069354083E0,6.662970648E0,7.935963875E-1,1.779788364E0,6.942090442E0
9.079376083E0,6.384743171E0,2.983442384E-1,1.877063228E0,6.661630506E0
9.089398083E0,6.157533234E0,-6.501823139E-1,1.837438402E0,6.458647881E0
9.099421083E0,6.185208106E0,-1.480800932E0,1.698327879E0,6.582848039E0
9.109443083E0,6.016245208E0,-1.805920156E0,1.386735020E0,6.432696793E0
9.119465083E0,5.251608326E0,-1.799089438E0,1.116888795E0,5.662468843E0
9.129487083E0,4.426606543E0,-1.891970120E0,1.332137082E0,4.994895958E0
9.139510083E0,4.052016951E0,-2.086477164E0,1.669077622E0,4.853663404E0
9.149532083E0,4.058790951E0,-2.116758140E0,1.762488061E0,4.905182277E0
9.159554083E0,3.908237427E0,-2.187786607E0,1.903222356E0,4.866516758E0
9.169576083E0,3.557175862E0,-2.295388239E0,1.981236638E0,4.674142263E0
9.179599083E0,3.374240457E0,-2.469751625E0,1.976275129E0,4.625022718E0
9.189621083E0,3.292619759E0,-2.606141438E0,1.901612033E0,4.609712181E0
9.199643083E0,3.049259228E0,-2.594967994E0,1.785519659E0,4.384053054E0
9.209665083E0,2.300419183E0,-2.454115586E0,1.728086699E0,3.781652465E0
9.219688083E0,1.461957110E0,-2.169820452E0,1.663150153E0,3.100243187E0
9.229710083E0,8.405132765E-1,-1.806782035E0,1.506696496E0,2.498211004E0
9.239732083E0,1.148089099E-1,-1.321478339E0,1.270170483E0,1.836523657E0
9.249754083E0,-7.061501080E-1,-7.374449909E-1,8.718935287E-1,1.342635995E0
9.259777083E0,-1.679946572E0,-6.860888958E-2,4.187236445E-1,1.732702270E0
9.269799083E0,-2.709476357E0,6.857620364E-1,8.162917703E-2,2.796103543E0
9.279821083E0,-3.625276628E0,1.328216085E0,-3.164255834E-1,3.873875805E0
9.289843083E0,-4.318345930E0,1.840794119E0,-8.542758679E-1,4.771417171E0
9.299866083E0,-5.036494524E0,2.284072415E0,-1.364557700E0,5.696075983E0
9.309888083E0,-5.593803758E0,2.641982239E0,-1.833541233E0,6.452331678E0
9.319910083E0,-5.708909706E0,2.871363831E0,-2.184462465E0,6.753388524E0
9.329932083E0,-5.641975459E0,2.946432433E0,-2.425779686E0,6.811589994E0
9.339955083E0,-5.562490164E0,2.992394179E0,-2.537113304E0,6.806810094E0
9.349977083E0,-5.323536680E0,3.001576354E0,-2.428625818E0,6.576300385E0
9.359999083E0,-4.963806617E0,2.806374368E0,-2.226685794E0,6.121539255E0
9.370021083E0,-4.607303633E0,2.510664301E0,-1.934898769E0,5.592362224E0
9.380043083E0,-4.432306994E0,1.863617264E0,-1.850980115E0,5.152139553E0
9.390066083E0,-4.380280223E0,1.229265409E0,-1.849379878E0,4.911023744E0
9.400088083E0,-4.196817985E0,5.819885767E-1,-1.750306703E0,4.584273711E0
9.410110083E0,-3.850036581E0,-8.057989419E-2,-1.853940999E0,4.273917643E0
9.420132083E0,-3.282555531E0,-6.664486831E-1,-1.958026992E0,3.879844632E0
9.430155083E0,-2.625337263E0,-1.276351283E0,-1.819777472E0,3.439921276E0
9.440177083E0,-1.856678081E0,-1.768702336E0,-1.593707450E0,3.019182817E0
9.450199083E0,-1.053706852E0,-2.010934938E0,-1.044801835E0,2.499153523E0
9.460221083E0,-3.491933799E-1,-2.220462310E0,-4.002299246E-1,2.283105972E0
9.470244083E0,5.197975910E-1,-2.382295698E0,8.635094985E-2,2.439872704E0
9.480266083E0,1.425870434E0,-2.693059422E0,5.155606985E-1,3.090546615E0
9.490288083E0,2.142574182E0,-3.246543992E0,9.366979274E-1,4.001009250E0
9.500310083E0,2.624635012E0,-3.872994504E0,1.311010507E0,4.858759505E0
9.510333083E0,2.857398049E0,-4.320692418E0,1.515576662E0,5.397228844E0
9.520355083E0,2.995423914E0,-4.488687893E0,1.429624054E0,5.582536015E0
9.530377083E0,3.058063381E0,-4.434294755E0,1.064798436E0,5.490766551E0
9.540399083E0,2.737678648E0,-4.061909271E0,6.106893423E-1,4.936287347E0
9.550422083E0,1.997804723E0,-3.445908610E0,2.664487003E-1,3.992055207E0
9.560444083E0,1.009117740E0,-2.794466514E0,-2.004504463E-1,2.977841851E0
9.570466083E0,3.954179585E-2,-2.505724573E0,-5.906272531E-1,2.574696048E0
9.580488083E0,-2.799722868E-1,-3.322482951E0,-2.410456181E-1,3.342959831E0
9.590510083E0,-5.241508430E-1,-3.865060125E0,6.219537109E-3,3.900443892E0
9.600533125E0,-1.005401834E0,-3.746865385E0,-2.385126042E-1,3.886736590E0
9.610555125E0,-1.320087871E0,-3.470092694E0,-5.261979532E-1,3.749807939E0
9.620577125E0,-1.490116716E0,-3.576075524E0,-5.322716023E-1,3.910508540E0
9.630599125E0,-1.598117128E0,-3.757582161E0,-2.405692162E-1,4.090388197E0
9.640622125E0,-1.279465510E0,-3.981263011E0,7.829187870E-2,4.182537121E0
9.650644125E0,-4.501133984E-1,-4.384291120E0,4.662651622E-1,4.431931171E0
9.660666125E0,4.396205699E-1,-4.727640208E0,7.900895199E-1,4.813324177E0
9.670688125E0,1.162893664E0,-4.898343530E0,1.099548438E0,5.153163861E0
9.680711125E0,1.644525894E0,-4.756387459E0,1.236743413E0,5.182395329E0
9.690733125E0,1.774044644E0,-4.414519179E0,1.416577308E0,4.964061366E0
9.700755125E0,1.745431879E0,-4.024373947E0,1.588908348E0,4.665484739E0
9.710777125E0,1.611746988E0,-3.753444087E0,1.755258564E0,4.446009839E0
9.720800125E0,1.344276633E0,-3.520501833E0,1.774231755E0,4.165202413E0
9.730822125E0,1.017251801E0,-3.182035755E0,1.628506862E0,3.716475127E0
9.740844125E0,5.704268771E-1,-2.709931855E0,1.435124238E0,3.119086254E0
9.750866125E0,1.046715921E-1,-1.997170008E0,1.093323492E0,2.279254361E0
9.760889125E0,-5.709917182E-1,-1.055129187E0,6.758416504E-1,1.376986231E0
9.770911125E0,-1.566208872E0,5.787281692E-3,3.259087439E-1,1.599768806E0
9.780933125E0,-2.317545678E0,1.069648701E0,1.183944225E-2,2.552509840E0
9.790955125E0,-2.824620312E0,1.861190377E0,-2.265375066E-1,3.390254971E0
9.800978125E0,-3.161324040E0,2.455123646E0,-5.117389584E-1,4.035279242E0
9.811000125E0,-3.411829283E0,3.121492807E0,-8.697408763E-1,4.705395370E0
9.821022125E0,-3.620781289E0,3.735698372E0,-1.170825997E0,5.332572830E0
9.831044125E0,-3.833928087E0,4.308861161E0,-1.454289218E0,5.948129640E0
9.841066125E0,-4.012542983E0,4.878133214E0,-1.747633063E0,6.553694085E0
9.851089125E0,-4.137996749E0,5.430479330E0,-2.069653263E0,7.134184430E0
9.861111125E0,-4.242474214E0,5.906556705E0,-2.210440475E0,7.600792502E0
9.871133125E0,-4.188743564E0,6.123718786E0,-2.103608044E0,7.711722974E0
9.881155125E0,-3.766810822E0,6.179553849E0,-1.889383458E0,7.479673749E0
9.891178125E0,-3.048925937E0,5.850856129E0,-1.484419189E0,6.762541470E0
9.901200125E0,-2.301476945E0,5.577797590E0,-1.032396675E0,6.121639076E0
9.911222125E0,-1.718937560E0,5.303140422E0,-7.262288618E-1,5.621872734E0
9.921244125E0,-1.061594746E0,4.906423797E0,-6.574422169E-1,5.062826103E0
9.931267125E0,-4.731683850E-1,4.471623672E0,-4.170830619E-1,4.515890262E0
9.941289125E0,9.711932838E-2,3.911584958E0,-3.678174926E-1,3.930040554E0
9.951311125E0,7.300529408E-1,3.167366552E0,-5.668381485E-1,3.299468694E0
9.961333125E0,1.634549959E0,2.353971493E0,-6.870415534E-1,2.947025866E0
9.971356125E0,2.841548002E0,1.424457162E0,-6.824501735E-1,3.251032373E0
9.981378125E0,3.914994469E0,8.124957579E-1,-5.879992220E-1,4.041419817E0
9.991400125E0,4.603308231E0,1.007123255E0,-4.572972876E-1,4.734328329E0
1.000142213E1,4.933675915E0,1.403594297E0,-2.881867477E-1,5.137537015E0
1.001144413E1,5.074841149E0,1.632140322E0,1.890913528E-1,5.334196309E0
1.002146713E1,5.283086811E0,1.617958485E0,6.588391167E-1,5.564428533E0
1.003148913E1,5.792769889E0,1.321947870E0,8.851488742E-1,6.007263743E0
1.004151113E1,6.334624346E0,8.331890541E-1,1.072412680E0,6.478559915E0
1.005153313E1,6.480713521E0,3.146135312E-1,9.748540793E-1,6.561171381E0
1.006155613E1,6.201420681E0,-4.664148510E-2,7.489154738E-1,6.246652566E0
1.007157813E1,5.856751876E0,-5.083007956E-1,7.902878867E-1,5.931649618E0
1.008160013E1,5.751187999E0,-1.077929528E0,9.806657732E-1,5.932942004E0
1.009162213E1,5.757056850E0,-1.610403298E0,1.097756705E0,6.078007250E0
1.010164513E1,5.594306619E0,-1.804367135E0,1.135948379E0,5.986851094E0
1.011166713E1,5.126021243E0,-1.544406944E0,1.017487444E0,5.449455688E0
1.012168913E1,4.371573134E0,-1.140487719E0,8.787890039E-1,4.602568198E0
1.013171113E1,3.860746341E0,-1.004535277E0,8.446726933E-1,4.077735327E0
1.014173313E1,3.681790552E0,-1.090715634E0,9.335772684E-1,3.951810823E0
1.015175613E1,3.339510335E0,-1.158180808E0,8.908624810E-1,3.645181480E0
1.016177813E1,2.835337089E0,-1.234011009E0,9.166478249E-1,3.225238412E0
1.017180013E1,2.401439774E0,-1.503368261E0,9.390813987E-1,2.984778549E0
1.018182213E1,2.114510470E0,-1.799609841E0,8.617421776E-1,2.907292501E0
1.019184513E1,1.898848200E0,-2.058321066E0,7.379411271E-1,2.896008841E0
1.020186713E1,1.578406164E0,-2.321834026E0,6.393187720E-1,2.879411008E0
1.021188913E1,1.134663307E0,-2.357368140E0,4.091770416E-1,2.648031575E0
1.022191113E1,5.676839483E-1,-2.151795825E0,3.431669471E-1,2.251722428E0
1.023193413E1,-4.844008863E-2,-1.858193679E0,5.105920270E-1,1.927675909E0
1.024195613E1,-6.624234599E-1,-1.416463726E0,6.749736312E-1,1.703162861E0
1.025197813E1,-1.110969220E0,-9.216001242E-1,7.700321084E-1,1.636016150E0
1.026200013E1,-1.552511185E0,-4.168021032E-1,8.669103853E-1,1.826348430E0
1.027202213E1,-2.059061324E0,1.218290770E-1,8.324983518E-1,2.224326722E0
1.028204513E1,-2.627919393E0,6.369135198E-1,6.312183318E-1,2.776698715E0
1.029206713E1,-3.273805758E0,1.009075640E0,3.423221706E-1,3.442850891E0
1.030208913E1,-3.809066895E0,1.316995863E0,-3.006170511E-2,4.030430799E0
1.031211113E1,-4.350505616E0,1.532169306E0,-5.021916246E-1,4.639680843E0
1.032213413E1,-4.832490433E0,1.673929203E0,-1.113012822E0,5.233908702E0
1.033215613E1,-5.178713427E0,1.776116897E0,-1.630652205E0,5.712503007E0
1.034217813E1,-5.472253008E0,1.885582622E0,-1.911996249E0,6.095629948E0
1.035220013E1,-5.623601754E0,1.968656938E0,-1.957608770E0,6.271581852E0
1.036222313E1,-5.566044686E0,1.917635888E0,-1.909922242E0,6.189182807E0
1.037224513E1,-5.227331271E0,1.833148300E0,-1.822522155E0,5.831553131E0
1.038226712E1,-4.783863233E0,1.714349543E0,-1.581370849E0,5.322130734E0
1.039228913E1,-4.548284762E0,1.543831870E0,-1.188053210E0,4.947906785E0
1.040231213E1,-4.325771309E0,1.438819678E0,-9.375624382E-1,4.654194110E0
1.041233413E1,-4.013120103E0,1.187285617E0,-7.896340218E-1,4.258908544E0
1.042235613E1,-3.648340386E0,7.800466347E-1,-7.360247022E-1,3.802708598E0
1.043237813E1,-3.351517593E0,2.259445989E-1,-7.646550089E-1,3.445057099E0
1.044240013E1,-3.018246181E0,-5.729426417E-1,-6.194547571E-1,3.133974709E0
1.045242313E1,-2.416886364E0,-1.545984230E0,-4.777416386E-1,2.908546718E0
1.046244513E1,-1.718093807E0,-2.279619760E0,-3.256554133E-1,2.873075709E0
1.047246713E1,-1.014467357E0,-2.808398090E0,-1.895335485E-1,2.992017182E0
1.048248913E1,-3.047065938E-1,-3.177855288E0,-8.446186066E-2,3.193547267E0
1.049251213E1,3.046802813E-1,-3.432248345E0,7.319632262E-2,3.446522374E0
1.050253413E1,8.244451278E-1,-3.642239108E0,4.423639373E-1,3.760492168E0
1.051255613E1,1.378011559E0,-3.841757216E0,6.798876312E-1,4.137663780E0
1.052257813E1,1.804586406E0,-3.890323605E0,7.075528550E-1,4.346467633E0
1.053260013E1,1.985394593E0,-3.828753886E0,7.272059315E-1,4.373782856E0
1.054262313E1,1.903530065E0,-3.760356665E0,5.875153649E-1,4.255453356E0
1.055264513E1,1.683566583E0,-3.733402463E0,3.969380884E-1,4.114638531E0
1.056266713E1,1.467399698E0,-3.811321874E0,1.517298375E-1,4.086864109E0
1.057268913E1,9.826854014E-1,-3.895799814E0,-1.448017640E-1,4.020434596E0
1.058271213E1,3.769805181E-1,-4.300181847E0,-1.439982104E-1,4.319075562E0
1.059273413E1,1.704469210E-1,-4.966226195E0,9.604870319E-2,4.970078483E0
1.060275625E1,-4.885991871E-2,-5.147710905E0,3.186409472E-1,5.157794772E0
1.061277825E1,-4.611254597E-1,-4.866111338E0,4.424102765E-1,4.907891920E0
1.062280125E1,-7.337010187E-1,-4.114611103E0,3.975473683E-1,4.198378928E0
1.063282325E1,-7.140052575E-1,-3.824253284E0,6.756356822E-1,3.948569394E0
1.064284525E1,-4.298399323E-1,-3.631635183E0,1.088111138E0,3.815432127E0
1.065286725E1,4.036976159E-2,-3.267551576E0,1.242660211E0,3.496101746E0
1.066288925E1,5.805601019E-1,-3.345702537E0,1.647179799E0,3.774119339E0
1.067291225E1,1.263480392E0,-3.494452195E0,1.972831265E0,4.207094252E0
1.068293425E1,2.084190318E0,-3.612540808E0,2.183250922E0,4.707534913E0
1.069295625E1,2.478969761E0,-3.625946134E0,2.563021147E0,5.085455126E0
1.070297825E1,2.361230811E0,-3.540941067E0,2.720869072E0,5.051415949E0
1.071300125E1,2.228144674E0,-3.194617501E0,2.605095956E0,4.685801384E0
1.072302325E1,1.991037156E0,-2.695374627E0,2.200025560E0,4.008663843E0
1.073304525E1,1.430832966E0,-2.373026984E0,1.828122618E0,3.319724740E0
1.074306725E1,5.918481517E-1,-2.020351002E0,1.522246581E0,2.597948626E0
1.075308925E1,1.207128435E-1,-1.522039005E0,9.339978294E-1,1.789839733E0
1.076311225E1,-1.687336868E-1,-1.127587007E0,4.972543819E-1,1.243859090E0
1.077313425E1,-4.748102832E-1,-5.350898141E-1,3.853841364E-2,7.164154685E-1
1.078315625E1,-1.084055071E0,2.556186336E-1,-3.471638113E-1,1.166635759E0
1.079317825E1,-1.817610494E0,1.129676217E0,-4.956528296E-1,2.196712997E0
1.080320125E1,-2.285195957E0,1.995738317E0,-4.746196640E-1,3.070888442E0
1.081322325E1,-2.670628626E0,2.858696131E0,-5.243661667E-1,3.947069888E0
1.082324525E1,-2.962798789E0,3.624390190E0,-6.507484706E-1,4.726293949E0
1.083326725E1,-3.117905540E0,4.333210137E0,-7.550721534E-1,5.391491352E0
1.084328925E1,-3.229900770E0,4.896785247E0,-9.408060350E-1,5.941033641E0
1.085331225E1,-3.333370174E0,5.335015349E0,-1.127589492E0,6.391025235E0
1.086333425E1,-3.378686095E0,5.715066240E0,-1.343824058E0,6.773726076E0
1.087335625E1,-3.355933410E0,6.101962466E0,-1.560748158E0,7.136677785E0
1.088337825E1,-3.196850553E0,6.431008095E0,-1.739026254E0,7.389311936E0
1.089340125E1,-2.922567022E0,6.593426789E0,-1.895631793E0,7.457083526E0
1.090342325E1,-2.496020241E0,6.648582405E0,-1.950842811E0,7.364750689E0
1.091344525E1,-1.896127490E0,6.581634709E0,-1.863675590E0,7.098344991E0
1.092346725E1,-1.169956516E0,6.274990933E0,-1.651927738E0,6.593419046E0
1.093348925E1,-3.367779869E-1,5.726432642E0,-1.225495563E0,5.865772719E0
1.094351225E1,5.947653276E-1,5.122902923E0,-8.915436816E-1,5.233806482E0
1.095353425E1,1.506299470E0,4.647629541E0,-7.512945597E-1,4.943059979E0
1.096355625E1,2.100247357E0,4.212782053E0,-5.820628363E-1,4.743139122E0
1.097357825E1,2.601361340E0,3.793808001E0,-3.868810236E-1,4.616247058E0
1.098360125E1,3.123173881E0,3.368076907E0,-2.380688006E-1,4.599438433E0
1.099362325E1,3.510312767E0,3.015278134E0,-1.103463149E-1,4.628863171E0
1.100364525E1,3.901653462E0,2.540778338E0,2.455416884E-1,4.662482710E0
1.101366725E1,4.523330600E0,2.025466731E0,7.611626132E-1,5.014220150E0
1.102368925E1,5.575086236E0,1.459300135E0,1.443438540E0,5.940930756E0
1.103371225E1,6.730375012E0,6.920343447E-1,1.868642069E0,7.019165371E0
1.104373425E1,7.622062535E0,5.787983358E-2,2.273268953E0,7.954051741E0
1.105375625E1,7.808485803E0,-2.979179764E-1,2.418217628E0,8.179791083E0
1.106377825E1,7.291899503E0,-3.477233899E-1,2.533202101E0,7.727213133E0
1.107380125E1,6.212461393E0,-2.168621188E-1,2.436201325E0,6.676584654E0
1.108382325E1,5.111217263E0,-2.133064270E-2,2.005685893E0,5.490698754E0
1.109384525E1,4.311452647E0,1.796557009E-2,1.454280301E0,4.550151414E0
1.110386725E1,3.620062081E0,-2.930969471E-1,1.126275476E0,3.802532280E0
1.111388925E1,3.320978755E0,-6.479235345E-1,7.998610944E-1,3.476849517E0
1.112391225E1,3.029206202E0,-8.294152611E-1,2.004539546E-1,3.147094164E0
1.113393425E1,2.620470040E0,-9.829777622E-1,-2.983705509E-1,2.814628483E0
1.114395625E1,2.492636458E0,-1.200463779E0,-3.054255089E-1,2.783457299E0
1.115397825E1,2.516305402E0,-1.659076690E0,-5.630400896E-2,3.014547807E0
1.116400125E1,2.658519627E0,-2.163630590E0,3.711841732E-1,3.447724123E0
1.117402325E1,2.689029229E0,-2.472847726E0,7.801051068E-1,3.735561276E0
1.118404525E1,2.648304541E0,-2.889976396E0,1.201036221E0,4.099752251E0
1.119406725E1,2.864597141E0,-3.600147049E0,1.462856266E0,4.827724517E0
1.120408925E1,3.162723863E0,-4.174736559E0,1.555335829E0,5.463544373E0
1.121411225E1,3.257425953E0,-4.467521265E0,1.564125363E0,5.745960167E0
1.122413425E1,3.123137628E0,-4.330566026E0,1.483716646E0,5.541588747E0
1.123415625E1,2.678047573E0,-3.851514173E0,1.310870905E0,4.870778455E0
1.124417825E1,1.930352413E0,-3.116501623E0,1.299595134E0,3.889446017E0
1.125420125E1,1.070538062E0,-2.123070794E0,1.155420046E0,2.643572738E0
1.126422325E1,1.765677863E-1,-1.010343316E0,9.992814074E-1,1.431968272E0
1.127424525E1,-9.709792757E-1,1.117970091E-1,7.927856711E-1,1.258494515E0
1.128426725E1,-2.277263040E0,1.212390345E0,5.440633897E-1,2.636630856E0
1.129428925E1,-3.496002291E0,2.358120677E0,3.135288727E-1,4.228600892E0
1.130431225E1,-4.588953316E0,3.155733809E0,-1.261010528E-2,5.569318399E0
1.131433425E1,-5.323802143E0,3.495652920E0,-1.092506929E-1,6.369803318E0
1.132435625E1,-5.354452078E0,3.397914372E0,-1.837534297E-1,6.344268631E0
1.133437825E1,-5.427763883E0,2.909265776E0,-1.792022493E-1,6.160889674E0
1.134440125E1,-5.654014292E0,2.285022003E0,-9.786017060E-2,6.099080240E0
1.135442325E1,-5.853647005E0,1.633534590E0,-2.205362168E-1,6.081303704E0
1.136444525E1,-5.986982233E0,1.227070949E0,-6.278640765E-1,6.143604208E0
1.137446725E1,-5.838441321E0,1.082878319E0,-1.069366865E0,6.033536939E0
1.138448925E1,-5.297251691E0,1.199139969E0,-1.430416937E0,5.616485089E0
1.139451225E1,-4.658987172E0,1.556991614E0,-1.625579453E0,5.174252885E0
1.140453425E1,-4.465664189E0,1.924298206E0,-1.591734600E0,5.116512413E0
1.141455625E1,-4.349819153E0,1.918691896E0,-1.396524720E0,4.955056665E0
1.142457825E1,-3.977498281E0,1.826023175E0,-1.305201152E0,4.567100093E0
1.143460125E1,-3.261128994E0,1.393246187E0,-1.335714847E0,3.789489597E0
1.144462325E1,-2.461544473E0,5.779241771E-1,-1.264646619E0,2.827106050E0
1.145464525E1,-1.645529276E0,-3.851426464E-1,-1.231372453E0,2.091023571E0
1.146466725E1,-1.047003019E0,-1.099408690E0,-1.136929395E0,1.896713800E0
1.147468925E1,-7.134456789E-1,-1.569977403E0,-9.926589972E-1,1.989775280E0
1.148471225E1,-4.213766724E-1,-1.914394192E0,-7.313644713E-1,2.092213520E0
1.149473425E1,-6.693073869E-2,-2.105544057E0,-3.353895655E-1,2.133138922E0
1.150475625E1,4.445065033E-1,-2.489156780E0,-7.218212306E-2,2.529564738E0
1.151477825E1,1.122606348E0,-2.999541815E0,1.110204989E-1,3.204656248E0
1.152480025E1,1.616932299E0,-3.486553191E0,2.770787922E-1,3.853218897E0
1.153482325E1,1.840897615E0,-3.992356348E0,4.257936591E-1,4.416912211E0
1.154484525E1,1.805774560E0,-4.296826715E0,3.919949985E-1,4.677307094E0
1.155486725E1,1.497868370E0,-4.443194217E0,2.091212824E-1,4.693539838E0
1.156488925E1,1.090096414E0,-4.472774111E0,8.107164502E-3,4.603703310E0
1.157491225E1,6.209374648E-1,-4.462461669E0,-2.610354942E-1,4.513010859E0
1.158493425E1,4.508559948E-1,-4.375116254E0,-6.594288084E-1,4.447444178E0
1.159495625E1,3.048340631E-1,-4.311034572E0,-1.208011657E0,4.487453069E0
1.160497800E1,-1.099808639E-1,-4.347289647E0,-1.687457028E0,4.664604409E0
1.161500000E1,-3.988941282E-1,-4.431351851E0,-1.526138780E0,4.703732064E0
1.162502300E1,-6.477294070E-1,-4.176519668E0,-1.124933833E0,4.373596466E0
1.163504500E1,-1.166766275E0,-3.401609520E0,-9.215995395E-1,3.712362668E0
1.164506700E1,-1.268634712E0,-2.670209673E0,-9.867293358E-1,3.116582826E0
1.165508900E1,-6.630660689E-1,-2.421255111E0,-9.678375667E-1,2.690509706E0
1.166511100E1,6.854690909E-3,-2.322124340E0,-6.190447211E-1,2.403232158E0
1.167513400E1,6.391883790E-1,-2.197055321E0,-2.525079149E-1,2.302036949E0
1.168515600E1,1.649249275E0,-2.521289276E0,2.668873876E-1,3.024591156E0
1.169517800E1,2.804062672E0,-3.158980768E0,1.016076950E0,4.344460764E0
1.170520000E1,3.582251061E0,-3.686816819E0,1.769469052E0,5.436557886E0
1.171522300E1,3.915165208E0,-3.922309336E0,2.590269172E0,6.117395158E0
1.172524500E1,3.808058251E0,-3.876562475E0,3.048406704E0,6.230716467E0
1.173526700E1,3.281904736E0,-3.518282522E0,2.944330943E0,5.640770808E0
1.174528900E1,2.538762803E0,-2.960649353E0,2.516435210E0,4.641466075E0
1.175531100E1,1.902668186E0,-2.661477149E0,1.674361312E0,3.675199673E0
1.176533400E1,1.325209447E0,-2.370433744E0,9.117159909E-1,2.864674896E0
1.177535600E1,4.873034441E-1,-2.216860425E0,5.641462366E-1,2.338844964E0
1.178537800E1,-3.689002508E-1,-1.982389416E0,2.322278707E-1,2.029749979E0
1.179540000E1,-1.524674930E0,-1.548862815E0,-1.132395172E-1,2.176334728E0
1.180542200E1,-2.758778910E0,-8.480216861E-1,-5.887339246E-1,2.945608509E0
1.181544500E1,-3.583015877E0,-5.104180723E-2,-1.006126450E0,3.721948210E0
1.182546700E1,-4.048985170E0,8.495092177E-1,-1.342704024E0,4.349574797E0
1.183548900E1,-4.239491549E0,1.773323098E0,-1.402321065E0,4.804629827E0
1.184551100E1,-4.252430853E0,2.567917020E0,-1.272067174E0,5.127915841E0
1.185553400E1,-4.485395034E0,3.411863197E0,-1.187312222E0,5.759278548E0
1.186555600E1,-4.701985257E0,4.179775690E0,-1.149897058E0,6.395424413E0
1.187557800E1,-4.638368720E0,4.749016167E0,-1.145733256E0,6.736491938E0
1.188560000E1,-4.458378559E0,5.176689706E0,-1.353598264E0,6.964731434E0
1.189562200E1,-4.346289774E0,5.471436737E0,-1.635121232E0,7.176383226E0
1.190564500E1,-3.996447937E0,5.551897933E0,-1.719530468E0,7.053506348E0
1.191566700E1,-3.504708796E0,5.646169667E0,-1.839773488E0,6.895431976E0
1.192568900E1,-3.098417940E0,5.640690241E0,-1.808496000E0,6.684926171E0
1.193571100E1,-2.471894630E0,5.359967757E0,-1.594568453E0,6.114095678E0
1.194573300E1,-1.645917531E0,4.803649626E0,-1.339598275E0,5.251534803E0
1.195575600E1,-7.679341274E-1,4.094060771E0,-1.031401186E0,4.291252128E0
1.196577800E1,2.530341643E-1,3.463772439E0,-6.878489077E-1,3.540463517E0
1.197580000E1,1.097315387E0,2.984657435E0,-3.110926303E-1,3.195161919E0
1.198582200E1,2.033542905E0,2.617890249E0,1.060269767E-1,3.316607879E0
1.199584400E1,2.905804809E0,2.387721621E0,3.902536976E-1,3.781165703E0
1.200586700E1,3.519943716E0,2.224829303E0,5.230939588E-1,4.196843633E0
1.201588900E1,3.998789747E0,1.922710102E0,8.028441976E-1,4.509067796E0
1.202591100E1,4.477606543E0,1.611869195E0,1.155957112E0,4.897276743E0
1.203593300E1,5.069830670E0,1.190710623E0,1.350382295E0,5.380009959E0
1.204595600E1,5.623057963E0,7.860587418E-1,1.597952675E0,5.898315179E0
1.205597800E1,6.056069425E0,4.611207819E-1,1.684039038E0,6.302745175E0
1.206600000E1,6.262799488E0,2.045379424E-1,1.706216943E0,6.494279749E0
1.207602200E1,6.242226645E0,6.583672464E-2,1.736772738E0,6.479668780E0
1.208604400E1,5.923560408E0,1.081308049E-1,1.846564736E0,6.205647549E0
1.209606700E1,5.698140305E0,8.403559864E-2,1.862135287E0,5.995282541E0
1.210608900E1,5.656123382E0,-3.341560954E-1,1.740075683E0,5.927162508E0
1.211611100E1,5.607304394E0,-8.103761423E-1,1.585303978E0,5.883176078E0
1.212613300E1,5.402888074E0,-1.062452533E0,1.324982575E0,5.663531032E0
1.213615500E1,4.688028538E0,-9.415461463E-1,1.002828621E0,4.885671496E0
1.214617800E1,3.592950881E0,-4.171853882E-1,4.746208334E-1,3.648096026E0
1.215620000E1,2.546112753E0,-5.822306514E-2,3.251721409E-1,2.567453407E0
1.216622200E1,1.958119671E0,7.884385586E-3,5.759232599E-1,2.041073837E0
1.217624400E1,1.793790691E0,-3.869804263E-2,7.234759927E-1,1.934580082E0
1.218626700E1,1.910950767E0,-3.852116436E-1,9.261764476E-1,2.158222337E0
1.219628900E1,2.206809354E0,-9.514630240E-1,1.236999521E0,2.702860933E0
1.220631100E1,2.587867720E0,-1.525205272E0,1.407542483E0,3.317301057E0
1.221633300E1,3.047462379E0,-1.970285972E0,1.511324567E0,3.931050204E0
1.222635500E1,3.422762407E0,-2.035985287E0,1.630232814E0,4.303277543E0
1.223637800E1,3.137584929E0,-1.789861363E0,1.815807797E0,4.042919841E0
1.224640000E1,2.454614353E0,-1.426524153E0,2.021931505E0,3.485442553E0
1.225642200E1,2.010028912E0,-1.030646603E0,2.146775260E0,3.116262612E0
1.226644400E1,1.650498825E0,-4.550461096E-1,2.062825761E0,2.680758000E0
1.227646600E1,9.262352121E-1,2.871017969E-1,1.819474002E0,2.061752835E0
1.228648900E1,-2.092426121E-1,1.117632707E0,1.493247754E0,1.876878843E0
1.229651100E1,-1.273771491E0,1.883188187E0,1.199736824E0,2.570653614E0
1.230653300E1,-2.092199834E0,2.458929598E0,8.259425998E-1,3.332538986E0
1.231655500E1,-2.982828426E0,2.854635825E0,3.062660462E-1,4.140049517E0
1.232657700E1,-3.737048494E0,3.054255089E0,-1.298701680E-1,4.828133372E0
1.233660000E1,-4.331575255E0,3.126909083E0,-5.096047246E-1,5.366544659E0
1.234662200E1,-4.654134568E0,3.187402914E0,-8.869881159E-1,5.710276161E0
1.235664400E1,-4.816542737E0,3.104171892E0,-1.056160929E0,5.826700866E0
1.236666600E1,-4.694265763E0,2.931633130E0,-1.167577284E0,5.656309802E0
1.237668800E1,-4.569530035E0,2.757874931E0,-1.151230223E0,5.460019222E0
1.238671100E1,-4.577674622E0,2.687213668E0,-1.208598572E0,5.443981333E0
1.239673300E1,-4.329802964E0,2.571382665E0,-1.196196773E0,5.175914339E0
1.240675500E1,-4.115782008E0,2.181731815E0,-1.036630059E0,4.772233977E0
1.241677700E1,-4.160303292E0,1.739089404E0,-9.018020368E-1,4.598456519E0
1.242679900E1,-4.231762115E0,1.367566970E0,-8.717470559E-1,4.531886245E0
1.243682200E1,-3.930070930E0,9.882890806E-1,-8.035875249E-1,4.131334619E0
1.244684400E1,-3.155068104E0,5.021550795E-1,-7.952108037E-1,3.292259814E0
1.245686600E1,-2.414064497E0,-9.606039762E-2,-7.098584121E-1,2.518101261E0
1.246688800E1,-1.886834511E0,-6.472557825E-1,-6.021260950E-1,2.083660326E0
1.247691000E1,-1.355158886E0,-1.186823687E0,-6.217858958E-1,1.905681970E0
1.248693300E1,-9.620406371E-1,-1.717491252E0,-5.902468917E-1,2.055161741E0
1.249695500E1,-3.533378863E-1,-2.459887665E0,-4.967657009E-1,2.534298946E0
1.250697700E1,4.468372035E-1,-3.417829111E0,-3.331246465E-1,3.462974350E0
1.251699900E1,1.114950589E0,-4.266161284E0,-1.265507036E-1,4.411265351E0
1.252702200E1,1.732422994E0,-4.839009786E0,-4.215991589E-1,5.157038975E0
1.253704400E1,2.808034685E0,-5.090101798E0,2.768539667E-1,5.819866255E0
1.254706600E1,2.428688968E0,-4.798621313E0,-9.175640836E-1,5.455934426E0
1.255708800E1,2.045350188E0,-4.535740438E0,-9.274365225E-1,5.061278219E0
1.256711000E1,1.709537576E0,-4.467026883E0,-8.027221370E-1,4.849867084E0
1.257713300E1,8.689669973E-1,-4.171618532E0,-1.001219321E0,4.377207437E0
1.258715500E1,-2.925373685E-1,-3.820991414E0,-9.690420932E-1,3.952795983E0
1.259717700E1,-9.650075144E-1,-3.856782806E0,-1.059699079E0,4.114483595E0
1.260719958E1,-9.687789685E-1,-4.184719218E0,-1.085568915E0,4.430447776E0
1.261722158E1,-3.213717431E-1,-5.031653030E0,-9.428763878E-1,5.129310665E0
1.262724458E1,1.361617720E-1,-5.244505128E0,-9.970546415E-1,5.340177153E0
1.263726658E1,-1.462692690E-1,-4.749989728E0,-9.811402747E-1,4.852466729E0
1.264728858E1,-7.562291712E-1,-3.702246159E0,-8.189136618E-1,3.866410321E0
1.265731058E1,-8.748966587E-1,-3.567790897E0,-4.268262774E-1,3.698209934E0
1.266733258E1,-4.194365662E-1,-4.443923365E0,9.720846918E-1,4.568296242E0
1.267735558E1,5.656245589E-2,-4.155306846E0,1.364862194E0,4.374085402E0
1.268737758E1,7.275012159E-1,-4.235007612E0,1.874234930E0,4.687995741E0
1.269739958E1,1.328161706E0,-4.439572744E0,2.254096372E0,5.153132069E0
1.270742158E1,1.533445169E0,-4.073044708E0,2.377546297E0,4.959221075E0
1.271744358E1,1.474251466E0,-3.777460648E0,2.356848030E0,4.690134217E0
1.272746658E1,1.439980350E0,-2.931255984E0,2.209293690E0,3.942940991E0
1.273748858E1,1.220606267E0,-2.405313262E0,1.662151010E0,3.168305151E0
1.274751058E1,1.161407887E0,-2.430563293E0,1.270342391E0,2.978300857E0
1.275753258E1,8.259554636E-1,-2.173806792E0,1.024753194E0,2.541211818E0
1.276755458E1,3.482426226E-1,-1.860474678E0,1.007346472E0,2.144151549E0
1.277757758E1,-1.337620747E-1,-1.336212153E0,1.126197708E0,1.752619893E0
1.278759958E1,-7.213183701E-1,-6.206573832E-1,1.216967545E0,1.544838433E0
1.279762158E1,-1.203057019E0,1.193030798E-1,1.119268612E0,1.647525915E0
1.280764358E1,-1.707413283E0,7.895746726E-1,1.032519905E0,2.145876426E0
1.281766558E1,-2.457667184E0,1.731292142E0,8.219300942E-1,3.116579784E0
1.282768858E1,-2.934005930E0,2.584868098E0,5.037984395E-1,3.942555865E0
1.283771058E1,-3.446275815E0,3.376791598E0,1.745159984E-2,4.824918968E0
1.284773258E1,-3.717989495E0,4.284309872E0,-6.467616928E-1,5.709383299E0
1.285775458E1,-3.870525810E0,5.135953324E0,-1.365446185E0,6.574452819E0
1.286777658E1,-4.014326384E0,5.894220834E0,-2.101560934E0,7.434595747E0
1.287779958E1,-3.978123933E0,6.225664406E0,-2.373475173E0,7.760009776E0
1.288782158E1,-3.922792901E0,6.179340425E0,-2.341351739E0,7.684691289E0
1.289784358E1,-3.725318395E0,5.928362727E0,-2.317977203E0,7.375398299E0
1.290786558E1,-3.438324187E0,5.342786298E0,-2.453174184E0,6.810690290E0
1.291788758E1,-3.196603800E0,4.387406809E0,-2.751991754E0,6.086137772E0
1.292791058E1,-2.721374856E0,3.505833215E0,-3.097967996E0,5.412407352E0
1.293793258E1,-1.943193483E0,2.744169642E0,-3.243200554E0,4.671703947E0
1.294795458E1,-1.068389211E0,2.251003779E0,-3.050684779E0,3.938927664E0
1.295797658E1,8.620550036E-3,1.999403352E0,-2.531362275E0,3.225753097E0
1.296799958E1,8.338509589E-1,1.973339973E0,-1.856926587E0,2.835058098E0
1.297802158E1,1.775929202E0,1.740647687E0,-1.158811138E0,2.743469000E0
1.298804358E1,2.787743093E0,1.354986393E0,-5.732481587E-1,3.152160073E0
1.299806558E1,3.782662039E0,8.233604693E-1,-2.675095314E-1,3.880465940E0
1.300808758E1,4.636353770E0,4.194500148E-1,-2.592784059E-1,4.662503607E0
1.301810958E1,5.001017713E0,6.124373674E-1,-4.139667884E-2,5.038548539E0
1.302813258E1,5.386807646E0,5.180463499E-1,2.138168889E-1,5.415882781E0
1.303815458E1,5.753199441E0,3.325065958E-1,4.664370704E-1,5.781645786E0
1.304817658E1,5.726005796E0,2.386482596E-2,6.400735013E-1,5.761719013E0
1.305819858E1,5.674010600E0,-3.095018953E-1,7.847863877E-1,5.736381907E0
1.306822058E1,5.503449073E0,-4.854756045E-1,8.268436557E-1,5.586350213E0
1.307824358E1,5.307298377E0,-5.946396124E-1,7.333355677E-1,5.390620872E0
1.308826558E1,4.803337385E0,-4.465881121E-1,5.744111699E-1,4.858131242E0
1.309828758E1,4.575841520E0,-2.444364184E-1,5.169399105E-1,4.611431627E0
1.310830958E1,4.550113771E0,-2.457678294E-1,5.160597584E-1,4.585875579E0
1.311833258E1,4.382131451E0,-1.867080277E-1,4.315803561E-1,4.407289138E0
1.312835458E1,4.080970024E0,2.575523078E-2,4.458997487E-1,4.105338751E0
1.313837658E1,3.558910146E0,1.750089186E-1,5.399345246E-1,3.603886629E0
1.314839858E1,3.200865251E0,6.256988525E-2,8.385436419E-1,3.309472584E0
1.315842058E1,3.155305501E0,-3.010070604E-1,1.110116550E0,3.358409863E0
1.316844258E1,3.192372755E0,-5.546475810E-1,1.547949772E0,3.590964528E0
1.317846558E1,3.306132674E0,-7.278590655E-1,2.063299386E0,3.964529787E0
1.318848758E1,3.366703396E0,-8.682337564E-1,2.509736932E0,4.288041637E0
1.319850958E1,3.413182914E0,-9.399352384E-1,2.753524017E0,4.484996139E0
1.320853158E1,3.393684204E0,-1.037256880E0,2.730452659E0,4.477540176E0
1.321855458E1,3.046657802E0,-9.946809644E-1,2.496507607E0,4.062519442E0
1.322857658E1,2.488653334E0,-9.208019793E-1,2.196338160E0,3.444586044E0
1.323859858E1,1.867322937E0,-8.866004455E-1,1.939448780E0,2.834504696E0
1.324862058E1,1.378964655E0,-8.430451208E-1,1.705460313E0,2.349651777E0
1.325864258E1,9.163282746E-1,-5.255997831E-1,1.388489477E0,1.744653451E0
1.326866558E1,3.656304878E-1,-6.647465587E-2,1.113521529E0,1.173897240E0
1.327868758E1,-5.756776768E-1,6.431715024E-1,9.048063362E-1,1.250499450E0
1.328870958E1,-1.627159079E0,1.397152419E0,6.913972905E-1,2.253377856E0
1.329873158E1,-2.560315055E0,1.887511033E0,4.786340699E-1,3.216675560E0
1.330875358E1,-3.479896721E0,2.289366484E0,1.050990236E-1,4.166764439E0
1.331877658E1,-4.306471989E0,2.610623914E0,-5.468067572E-1,5.065575569E0
1.332879858E1,-5.006103621E0,2.857105104E0,-1.382748388E0,5.927572534E0
1.333882058E1,-5.356015039E0,3.107891891E0,-2.136584879E0,6.550639972E0
1.334884258E1,-5.426098596E0,3.371349009E0,-2.662515906E0,6.920804222E0
1.335886458E1,-5.408565720E0,3.634349168E0,-2.811821342E0,7.097000513E0
1.336888658E1,-5.184791023E0,3.610284075E0,-2.562800707E0,6.817929049E0
1.337890958E1,-4.691307657E0,3.264964768E0,-1.983675804E0,6.050068773E0
1.338893158E1,-4.129615935E0,2.729194045E0,-1.327315907E0,5.124841015E0
1.339895358E1,-3.577321274E0,2.168842798E0,-8.032518947E-1,4.259849784E0
1.340897558E1,-3.025420130E0,1.580229326E0,-5.009084532E-1,3.449811729E0
1.341899758E1,-2.698547911E0,1.070224652E0,-2.936723131E-1,2.917839108E0
1.342902058E1,-2.621512599E0,5.589987865E-1,-2.815212142E-1,2.695192413E0
1.343904258E1,-2.648191690E0,7.241952002E-2,-4.647077563E-1,2.689631408E0
1.344906458E1,-2.326012446E0,-5.512751994E-1,-6.792730889E-1,2.485085547E0
1.345908658E1,-1.823668794E0,-1.296585572E0,-8.349844417E-1,2.388325990E0
1.346910858E1,-1.342603160E0,-1.871150816E0,-8.953727308E-1,2.470927144E0
1.347913158E1,-8.207923722E-1,-2.307058404E0,-8.217454684E-1,2.582921643E0
1.348915358E1,-2.354784840E-1,-2.697065934E0,-5.273115554E-1,2.758200908E0
1.349917558E1,2.942582041E-1,-3.134903688E0,-2.567415914E-1,3.159133626E0
1.350919758E1,7.183555859E-1,-3.692236311E0,-9.733742952E-2,3.762727508E0
1.351921958E1,9.839384598E-1,-4.222371779E0,-3.438484401E-2,4.335636130E0
1.352924258E1,9.354194337E-1,-4.655907444E0,-1.343193144E-1,4.750844695E0
1.353926458E1,7.462432963E-1,-5.134451759E0,-2.362783831E-1,5.193775255E0
1.354928658E1,6.863771635E-1,-5.553467910E0,-4.014978933E-1,5.610108733E0
1.355930858E1,6.915969729E-1,-5.858241162E0,-5.336326879E-1,5.923011036E0
1.356933058E1,5.784305459E-1,-5.984415890E0,-5.356026149E-1,6.036115108E0
1.357935358E1,2.510794401E-3,-5.823071914E0,-5.400215019E-1,5.848059169E0
1.358937558E1,-4.544192880E-1,-5.886382642E0,-6.676621266E-1,5.941529282E0
1.359939758E1,-7.165832949E-1,-6.478061224E0,-4.911469652E-1,6.536053410E0
1.360941908E1,-1.099335600E0,-6.696885669E0,-3.755631530E-1,6.796901066E0
1.361944108E1,-1.643492691E0,-6.081569717E0,-6.071073380E-1,6.328912842E0
1.362946408E1,-1.572504569E0,-5.133236123E0,-8.632522210E-1,5.437654652E0
1.363948608E1,-8.092879754E-1,-4.648746359E0,-7.057940125E-1,4.771156560E0
1.364950808E1,-3.756514460E-1,-4.404880336E0,-9.300478891E-2,4.421847428E0
1.365953008E1,1.927119488E-1,-4.265287126E0,7.914240007E-1,4.342368491E0
1.366955208E1,1.069127129E0,-4.464669286E0,1.565532934E0,4.850484307E0
1.367957508E1,1.775436282E0,-4.644922280E0,2.134828375E0,5.411558848E0
1.368959708E1,2.278493294E0,-4.823894441E0,2.658209140E0,5.960500407E0
1.369961908E1,2.507421727E0,-4.837748834E0,2.995363687E0,6.217972428E0
1.370964108E1,2.480550848E0,-4.555749025E0,3.029288063E0,6.007043187E0
1.371966308E1,2.245191647E0,-4.039183775E0,2.777974150E0,5.391941346E0
1.372968608E1,1.888511492E0,-3.339802404E0,2.303877811E0,4.475333364E0
1.373970808E1,1.376593024E0,-2.539993350E0,1.763293369E0,3.384638544E0
1.374973008E1,7.342886639E-1,-1.788574683E0,1.175148551E0,2.262554608E0
1.375975208E1,-1.062789917E-1,-1.062220398E0,4.080725026E-1,1.142860694E0
1.376977408E1,-9.900055307E-1,-3.220991367E-1,-1.076761839E-1,1.046638890E0
1.377979608E1,-1.878759506E0,1.724504694E-1,-3.602346772E-1,1.920740864E0
1.378981908E1,-2.557618904E0,4.294008064E-1,-7.125060314E-1,2.689510059E0
1.379984108E1,-2.889518559E0,1.158236942E0,-9.065441287E-1,3.242322096E0
1.380986308E1,-3.369566193E0,1.900585992E0,-8.871461369E-1,3.969034103E0
1.381988508E1,-3.804503143E0,2.628547969E0,-1.009177674E0,4.733069635E0
1.382990708E1,-4.078422977E0,3.337552688E0,-1.165015034E0,5.397226320E0
1.383993008E1,-4.173995717E0,3.972191348E0,-1.239928976E0,5.893892451E0
1.384995208E1,-4.196179469E0,4.485578637E0,-1.333361343E0,6.285395000E0
1.385997408E1,-4.158594151E0,4.932787723E0,-1.511476595E0,6.626527109E0
1.386999608E1,-4.023815830E0,5.323254844E0,-1.600639617E0,6.862228731E0
1.388001808E1,-3.723478861E0,5.626582664E0,-1.574054228E0,6.928230223E0
1.389004108E1,-3.240119364E0,5.756470959E0,-1.381576606E0,6.748635811E0
1.390006308E1,-2.697756198E0,5.456255611E0,-1.084531765E0,6.182622659E0
1.391008508E1,-2.254949480E0,4.972891436E0,-7.846133101E-1,5.516345207E0
1.392010708E1,-2.011460311E0,4.564754614E0,-6.330438325E-1,5.028290143E0
1.393012908E1,-1.826609359E0,4.386654857E0,-5.120454986E-1,4.779271198E0
1.394015208E1,-1.328724793E0,4.325964267E0,-2.493336077E-1,4.532289009E0
1.395017408E1,-5.189082295E-1,4.378772811E0,-7.879605487E-2,4.410116313E0
1.396019608E1,7.614483958E-1,4.495552232E0,-3.225470334E-3,4.559583746E0
1.397021808E1,2.356765292E0,4.226186795E0,2.778076476E-1,4.846872657E0
1.398024008E1,3.771538880E0,3.753008469E0,7.360913604E-1,5.371350723E0
1.399026308E1,4.858918093E0,3.375156716E0,1.440059288E0,6.088886487E0
1.400028508E1,6.027735572E0,2.811089271E0,1.864448007E0,6.907386292E0
1.401030708E1,7.009038107E0,2.391894779E0,1.878628528E0,7.640485650E0
1.402032908E1,7.539213921E0,2.375383412E0,1.626168414E0,8.070106357E0
1.403035108E1,7.985350043E0,2.435927237E0,1.414474065E0,8.467602594E0
1.404037308E1,8.020423982E0,2.407990994E0,1.367851583E0,8.485083348E0
1.405039608E1,7.724251984E0,2.346748427E0,1.435224079E0,8.199461266E0
1.406041808E1,7.002353570E0,2.069775762E0,1.696605728E0,7.496358997E0
1.407044008E1,5.927145921E0,1.618874159E0,1.484862408E0,6.321125587E0
1.408046208E1,5.025449134E0,1.095987484E0,1.085863030E0,5.256940753E0
1.409048408E1,4.062673502E0,4.392580426E-1,7.749969792E-1,4.159192702E0
1.410050708E1,3.743400909E0,-7.040047646E-2,2.037976849E-1,3.749605325E0
1.411052908E1,3.918602786E0,-5.011531591E-1,-2.732457961E-1,3.959957771E0
1.412055108E1,3.787445646E0,-4.248627824E-1,-6.234511828E-1,3.861857621E0
1.413057308E1,3.647594281E0,-7.426256239E-2,-3.321972781E-1,3.663442916E0
1.414059508E1,3.726877263E0,9.218018532E-2,2.172576830E-1,3.734342274E0
1.415061808E1,4.325297685E0,2.377653301E-2,4.857261577E-1,4.352550434E0
1.416064008E1,4.899907660E0,-2.694402820E-1,6.754949105E-1,4.953583200E0
1.417066208E1,5.218185641E0,-7.199132842E-1,1.063234890E0,5.373844523E0
1.418068408E1,5.408266928E0,-1.314630080E0,1.395840304E0,5.738115855E0
1.419070608E1,5.375994975E0,-2.050451884E0,1.595249653E0,5.970803661E0
1.420072808E1,4.909587141E0,-2.468422553E0,1.778608396E0,5.775863885E0
1.421075108E1,4.020949525E0,-2.539134686E0,2.093991421E0,5.196156282E0
1.422077308E1,3.225184990E0,-2.532515053E0,2.501849915E0,4.803613610E0
1.423079508E1,2.569362452E0,-2.276077809E0,2.722858295E0,4.381336657E0
1.424081708E1,1.945853966E0,-1.952797535E0,2.545214036E0,3.752050154E0
1.425083908E1,1.156150655E0,-1.516340894E0,2.182979465E0,2.898512271E0
1.426086208E1,2.898178285E-1,-8.121963805E-1,1.598981054E0,1.816699685E0
1.427088408E1,-7.677131027E-1,-7.028762519E-2,9.182099086E-1,1.198930021E0
1.428090608E1,-1.856727197E0,5.313458419E-1,3.877487504E-1,1.969800341E0
1.429092808E1,-2.778997997E0,1.111403376E0,-2.142111374E-1,3.000655552E0
1.430095008E1,-3.592155660E0,1.559462940E0,-7.371059985E-1,3.984825240E0
1.431097308E1,-4.335439680E0,1.854997006E0,-1.071187396E0,4.835751601E0
1.432099508E1,-4.966813840E0,2.041683399E0,-1.238333271E0,5.511005363E0
1.433101708E1,-5.395155131E0,2.206187210E0,-1.187691121E0,5.948577233E0
1.434103908E1,-5.561075723E0,2.271173165E0,-9.443995875E-1,6.080763218E0
1.435106108E1,-5.482417808E0,2.132622221E0,-7.858501424E-1,5.934858297E0
1.436108308E1,-5.377421696E0,1.665315377E0,-8.351250672E-1,5.690990535E0
1.437110608E1,-5.472797969E0,1.192667979E0,-8.419473061E-1,5.664172471E0
1.438112808E1,-5.428980689E0,1.043549946E0,-1.170825705E0,5.650987581E0
1.439115008E1,-5.184998015E0,1.044841011E0,-1.577090833E0,5.519339874E0
1.440117208E1,-4.705471952E0,1.217589397E0,-1.602029500E0,5.117664384E0
1.441119408E1,-4.235772720E0,9.657413399E-1,-1.618351418E0,4.636107007E0
1.442121708E1,-4.024731504E0,5.869633877E-1,-1.771684854E0,4.436423889E0
1.443123908E1,-3.730166906E0,1.463391432E-1,-1.775678356E0,4.133835255E0
1.444126108E1,-3.387406048E0,-5.469529375E-1,-1.582681648E0,3.778697983E0
1.445128308E1,-2.880122083E0,-1.343389025E0,-1.304710863E0,3.435413763E0
1.446130508E1,-2.421040810E0,-2.111151245E0,-7.053455311E-1,3.288755160E0
1.447132808E1,-1.577909735E0,-2.905843693E0,5.332412168E-2,3.307048558E0
1.448135008E1,-6.954263145E-1,-3.554151974E0,8.267629641E-1,3.714720853E0
1.449137208E1,-1.958068800E-1,-4.023512067E0,1.256529514E0,4.219698581E0
1.450139408E1,1.732506609E-1,-4.414589053E0,1.065988636E0,4.544771069E0
1.451141608E1,2.386745721E-1,-4.459184890E0,6.558090895E-1,4.513466627E0
1.452143808E1,3.637693191E-1,-4.562739079E0,2.487040088E-1,4.583968772E0
1.453146108E1,5.290139723E-1,-4.639898937E0,-2.224769077E-1,4.675255490E0
1.454148308E1,6.731104159E-1,-4.695215059E0,-5.491509059E-1,4.774901967E0
1.455150508E1,6.707417089E-1,-4.756401493E0,-8.506780761E-1,4.878206924E0
1.456152708E1,4.661511415E-1,-4.591162687E0,-1.274307681E0,4.787476555E0
1.457154908E1,2.885519063E-1,-4.547858208E0,-1.509252899E0,4.800429230E0
1.458157208E1,1.858560884E-1,-4.951755506E0,-1.263533016E0,5.113799053E0
1.459159408E1,3.419404936E-1,-5.772310481E0,-8.040203650E-1,5.838059638E0
1.460161608E1,6.439059126E-1,-6.566522580E0,-3.782709986E-1,6.608851835E0
1.461164213E1,5.973702621E-1,-6.408332008E0,-4.462923892E-1,6.451569364E0
1.462166413E1,9.881619036E-2,-5.603145270E0,-7.639100736E-1,5.655843010E0
1.463168613E1,-9.948394239E-2,-5.436615399E0,-7.651923680E-1,5.491102203E0
1.464170913E1,-8.969044089E-3,-5.322270173E0,-6.683298786E-1,5.364075415E0
1.465173113E1,3.590359980E-1,-5.428918709E0,-5.777516842E-1,5.471367489E0
1.466175313E1,1.083079755E0,-5.654121296E0,2.985588312E-2,5.756999284E0
1.467177513E1,1.681433519E0,-5.761712987E0,7.119813900E-1,6.044127127E0
1.468179713E1,1.801617774E0,-5.734277267E0,1.560052924E0,6.209792871E0
1.469182013E1,1.611435916E0,-5.639546526E0,2.126617715E0,6.238887211E0
1.470184213E1,1.388775698E0,-5.493119967E0,2.037153415E0,6.021051316E0
1.471186413E1,1.292120638E0,-5.224757912E0,1.665398553E0,5.633934977E0
1.472188613E1,1.206601601E0,-4.576589671E0,7.886177757E-1,4.798226593E0
1.473190813E1,7.199781883E-1,-3.485516480E0,8.878616899E-2,3.560207396E0
1.474193013E1,4.929986322E-1,-3.373898688E0,-1.372259653E-1,3.412487505E0
1.475195312E1,7.383448774E-1,-2.364169037E0,-1.328645271E-1,2.480342995E0
1.476197513E1,-5.900279135E-1,-1.068750861E0,-7.024748406E-1,1.408485798E0
1.477199713E1,-1.239014472E0,-4.163267246E-1,-3.269809771E-1,1.347368310E0
1.478201913E1,-1.830864378E0,2.757386103E-1,-1.989617452E-1,1.862171294E0
1.479204113E1,-2.191765053E0,8.998870736E-1,-2.868848652E-1,2.386615536E0
1.480206413E1,-2.361396287E0,1.470590524E0,-4.520505810E-1,2.818364533E0
1.481208613E1,-2.685737246E0,2.121397321E0,-6.720930004E-1,3.487867565E0
1.482210813E1,-3.030275658E0,2.714264642E0,-7.828483281E-1,4.142783438E0
1.483213013E1,-3.310398218E0,3.283646037E0,-1.040811549E0,4.777484311E0
1.484215213E1,-3.583010030E0,3.799490325E0,-1.578486856E0,5.455795850E0
1.485217513E1,-3.905947073E0,4.308386952E0,-1.914404132E0,6.122382204E0
1.486219713E1,-4.162510031E0,4.743710403E0,-2.239853724E0,6.696732252E0
1.487221913E1,-4.078146404E0,4.999528427E0,-2.532241988E0,6.931003684E0
1.488224113E1,-3.725735301E0,5.108372008E0,-2.696377425E0,6.873646726E0
1.489226313E1,-3.247540065E0,5.133312137E0,-2.790348612E0,6.684568448E0
1.490228513E1,-2.831873783E0,5.116093256E0,-2.660271745E0,6.424248212E0
1.491230813E1,-2.148378713E0,5.045117998E0,-2.493207731E0,6.023689193E0
1.492233013E1,-1.424562997E0,4.892429071E0,-2.455108443E0,5.656217766E0
1.493235213E1,-8.098241651E-1,4.751417618E0,-1.856138529E0,5.164981588E0
1.494237413E1,-2.435260069E-1,4.491613548E0,-9.537165409E-1,4.598203173E0
1.495239613E1,3.923399842E-1,3.964309301E0,3.556335032E-2,3.983835294E0
1.496241813E1,1.170220810E0,3.122586236E0,1.056960097E0,3.498160401E0
1.497244113E1,2.054323910E0,2.347305082E0,1.899604830E0,3.652202949E0
1.498246313E1,2.907577100E0,1.785749016E0,2.399283175E0,4.171266461E0
1.499248513E1,3.682105132E0,1.657573371E0,2.694209862E0,4.854298555E0
1.500250713E1,4.143473836E0,1.733719321E0,2.939556107E0,5.367974313E0
1.501252913E1,4.450086038E0,1.863830395E0,3.266405522E0,5.826365463E0
1.502255213E1,4.737785420E0,1.884129589E0,3.659762921E0,6.276178744E0
1.503257413E1,5.257570147E0,1.958221412E0,3.839130355E0,6.798205412E0
1.504259613E1,5.613141670E0,2.017321560E0,3.680192508E0,7.008620590E0
1.505261813E1,5.956109519E0,1.962947717E0,3.629211220E0,7.245659281E0
1.506264013E1,6.309503539E0,1.904904161E0,3.603034989E0,7.511348474E0
1.507266313E1,6.490971876E0,1.942145078E0,3.603895115E0,7.674158156E0
1.508268513E1,6.319393519E0,1.773186273E0,3.562008585E0,7.467719141E0
1.509270713E1,6.262997709E0,1.221637132E0,3.510047303E0,7.282717189E0
1.510272913E1,6.449650773E0,6.554103094E-1,3.222928550E0,7.239808437E0
1.511275113E1,6.439874813E0,5.557755089E-1,2.556115585E0,6.950870514E0
1.512277313E1,5.878846750E0,8.432994747E-1,1.863024064E0,6.224375614E0
1.513279613E1,4.937270198E0,1.203355227E0,1.403365086E0,5.272014262E0
1.514281813E1,4.533200115E0,1.376674885E0,1.238449192E0,4.896824831E0
1.515284013E1,4.713029478E0,1.476284543E0,1.079391478E0,5.055407884E0
1.516286213E1,4.811350994E0,1.417101949E0,1.226033653E0,5.163374366E0
1.517288413E1,4.677403563E0,1.076013980E0,1.617747400E0,5.064880732E0
1.518290713E1,4.674940131E0,4.571967155E-1,1.886990631E0,5.062097165E0
1.519292913E1,4.979080714E0,-1.804731417E-1,2.001281039E0,5.369258898E0
1.520295113E1,4.997339814E0,-7.336682743E-1,1.883882836E0,5.390796685E0
1.521297313E1,4.561842116E0,-1.245111948E0,1.518774505E0,4.966626949E0
1.522299513E1,3.641854069E0,-1.619784570E0,1.086870944E0,4.131354689E0
1.523301713E1,2.601995178E0,-1.826601757E0,7.302277726E-1,3.261914390E0
1.524304013E1,1.654938031E0,-1.735564703E0,2.621814023E-1,2.412414519E0
1.525306213E1,8.944743061E-1,-1.297994167E0,-9.074410915E-2,1.578957768E0
1.526308413E1,-4.675667524E-2,-6.547542518E-1,-1.529011810E-1,6.739941306E-1
1.527310613E1,-9.244892335E-1,-6.694243312E-2,-2.784414858E-2,9.273278432E-1
1.528312813E1,-1.663611206E0,2.484639806E-1,3.069548482E-1,1.709841476E0
1.529315113E1,-2.524835905E0,5.569624937E-1,7.400142574E-1,2.689353950E0
1.530317313E1,-3.559490190E0,6.965940034E-1,7.109668981E-1,3.696036735E0
1.531319513E1,-4.609942482E0,8.466531453E-1,4.617429256E-1,4.709734362E0
1.532321713E1,-5.597226718E0,9.852827346E-1,6.702151671E-2,5.683680224E0
1.533323913E1,-6.061720174E0,9.337216946E-1,-2.698700523E-1,6.139146318E0
1.534326113E1,-6.396740488E0,9.088584566E-1,-2.985570771E-1,6.467878237E0
1.535328413E1,-6.789188645E0,1.137974293E0,-5.469801271E-1,6.905595935E0
1.536330613E1,-6.786404201E0,1.576717196E0,-8.008381641E-1,7.013035068E0
1.537332813E1,-6.595932321E0,1.864824714E0,-9.263065481E-1,6.916786697E0
1.538335013E1,-6.181709132E0,2.011589534E0,-8.309567334E-1,6.553663811E0
1.539337213E1,-5.591387689E0,1.924678860E0,-8.405354959E-1,5.972813819E0
1.540339413E1,-4.832061247E0,1.734695807E0,-1.175382147E0,5.266830986E0
1.541341713E1,-3.844978740E0,1.164226829E0,-9.266125037E-1,4.122850513E0
1.542343913E1,-2.995234464E0,2.389450058E-1,-4.769588426E-2,3.005128800E0
1.543346113E1,-2.530981913E0,-1.029291803E0,2.332179505E-1,2.742207445E0
1.544348313E1,-2.332469527E0,-2.045968823E0,1.292934863E-1,3.105337232E0
1.545350513E1,-2.102217284E0,-2.560789557E0,-1.927430852E-1,3.318751355E0
1.546352813E1,-1.757814528E0,-2.929346868E0,-6.418161178E-1,3.476048463E0
1.547355013E1,-1.389049348E0,-3.306219213E0,-9.017383021E-1,3.697793334E0
1.548357213E1,-1.046515946E0,-3.570588497E0,-1.194485586E0,3.907824671E0
1.549359413E1,-4.052915668E-1,-3.671659374E0,-1.423935737E0,3.958906010E0
1.550361613E1,4.149494129E-1,-3.685017046E0,-1.270853877E0,3.920025921E0
1.551363813E1,1.307485367E0,-3.694217347E0,-8.605828209E-1,4.012151865E0
1.552366113E1,2.024862714E0,-3.671418469E0,-5.169646150E-1,4.224527784E0
1.553368313E1,2.450458152E0,-3.828802125E0,-1.968699038E-2,4.545861684E0
1.554370513E1,2.183235134E0,-4.308474076E0,5.344602151E-1,4.859538274E0
1.555372713E1,1.563054884E0,-4.714188396E0,5.227679765E-1,4.993996312E0
1.556374913E1,9.076779038E-1,-4.997547390E0,2.383864506E-1,5.084897953E0
1.557377213E1,4.398398405E-1,-5.279166253E0,-1.529176994E-1,5.299664068E0
1.558379413E1,4.902176964E-1,-5.943019357E0,-1.793611474E-1,5.965900007E0
1.559381613E1,6.255123264E-1,-6.457185495E0,1.105480438E-1,6.488353493E0
1.560383813E1,4.157007802E-1,-6.238813040E0,2.702167922E-1,6.258483235E0
1.561385658E1,3.665572715E-1,-5.732722492E0,2.577166146E-1,5.750207758E0
1.562387858E1,5.160559577E-1,-5.369388791E0,4.355057381E-1,5.411683193E0
1.563390158E1,3.894152069E-1,-5.016250294E0,6.786506528E-1,5.076906334E0
1.564392358E1,1.992146373E-1,-4.475114459E0,8.466306335E-1,4.558850658E0
1.565394558E1,3.475327706E-1,-4.092572947E0,1.065048258E0,4.243142720E0
1.566396758E1,7.096128291E-1,-3.879307743E0,1.259258702E0,4.139844370E0
1.567398958E1,9.873222435E-1,-3.654931367E0,1.467964978E0,4.060572581E0
1.568401258E1,1.207966341E0,-3.549330652E0,1.718327696E0,4.124267308E0
1.569403458E1,1.468058680E0,-3.400636543E0,1.833866484E0,4.133109177E0
1.570405658E1,1.577968208E0,-3.201174861E0,1.782468289E0,3.989322920E0
1.571407858E1,1.473342808E0,-2.958427995E0,1.584818805E0,3.665335712E0
1.572410058E1,1.109970515E0,-2.742052073E0,1.291541326E0,3.227841866E0
1.573412258E1,5.586540931E-1,-2.429010273E0,9.191909252E-1,2.656519764E0
1.574414558E1,-5.315937638E-2,-2.104969861E0,5.655257410E-1,2.180262231E0
1.575416758E1,-7.669506258E-1,-1.734653414E0,2.820189585E-1,1.917490658E0
1.576418958E1,-1.352265683E0,-1.255886905E0,1.749486923E-2,1.845584045E0
1.577421158E1,-1.984142704E0,-5.920896417E-1,-9.721931577E-2,2.072883019E0
1.578423358E1,-2.667295713E0,1.541182789E-1,-5.492947474E-2,2.672309135E0
1.579425558E1,-3.210658168E0,8.206751356E-1,-4.615748182E-2,3.314206400E0
1.580427858E1,-3.545891905E0,1.423082189E0,-2.090815213E-1,3.826516353E0
1.581430058E1,-3.794579249E0,1.970176629E0,-3.782231976E-1,4.292258195E0
1.582432258E1,-4.096806623E0,2.389376676E0,-6.658037353E-1,4.789179473E0
1.583434458E1,-4.275115710E0,2.979880553E0,-9.513560200E-1,5.297299380E0
1.584436658E1,-4.352708847E0,3.514642045E0,-1.251586716E0,5.732822370E0
1.585438958E1,-4.301681950E0,4.052839070E0,-1.475647196E0,6.091593123E0
1.586441158E1,-4.290917226E0,4.449893079E0,-1.593793258E0,6.383862155E0
1.587443358E1,-4.330554916E0,4.685585572E0,-1.517129829E0,6.558208669E0
1.588445558E1,-4.173599861E0,4.762919676E0,-1.520345213E0,6.512740530E0
1.589447758E1,-3.764599990E0,4.458370373E0,-1.268486193E0,5.971460180E0
1.590449958E1,-3.276081494E0,3.998879210E0,-9.985706784E-1,5.265062990E0
1.591452258E1,-2.581063315E0,3.491529171E0,-5.556236275E-1,4.377371518E0
1.592454458E1,-1.676966246E0,2.962909302E0,-9.023832500E-2,3.405758400E0
1.593456658E1,-5.312750906E-1,2.531619844E0,2.496970122E-1,2.598788344E0
1.594458858E1,5.718828338E-1,2.234799975E0,4.107778631E-1,2.343100373E0
1.595461058E1,1.407748159E0,2.146645013E0,5.343916565E-1,2.622101091E0
1.596463258E1,2.165584729E0,2.414994205E0,2.868796027E-1,3.256417377E0
1.597465558E1,2.853445331E0,2.875530850E0,-3.689704174E-1,4.067796344E0
1.598467758E1,3.684301347E0,3.296537978E0,-8.401601046E-1,5.014689228E0
1.599469958E1,4.637605659E0,3.944583719E0,-1.069084591E0,6.181429352E0
1.600472158E1,5.418502479E0,4.186096530E0,-9.059950751E-1,6.906837217E0
1.601474358E1,5.732450012E0,4.295800236E0,-3.206110203E-1,7.170611845E0
1.602476558E1,5.757608827E0,4.133706062E0,1.766135408E-1,7.090047782E0
1.603478858E1,5.721836146E0,3.462064467E0,5.103310950E-1,6.707140753E0
1.604481058E1,5.607346494E0,2.720615303E0,6.957718849E-1,6.271218450E0
1.605483258E1,5.582471269E0,1.915318637E0,8.977388066E-1,5.969787762E0
1.606485458E1,5.645248731E0,1.164825584E0,1.351895555E0,5.920580501E0
1.607487658E1,5.453561214E0,7.012442940E-1,2.024144530E0,5.859200846E0
1.608489958E1,4.956684124E0,2.434055543E-1,2.624473629E0,5.613895759E0
1.609492158E1,4.965727428E0,-7.312282312E-1,2.670007067E0,5.685251212E0
1.610494358E1,5.059429058E0,-1.735252461E0,2.263783454E0,5.808066720E0
1.611496558E1,4.644505958E0,-1.946573174E0,1.434502825E0,5.236256398E0
1.612498758E1,3.800390797E0,-1.594129912E0,5.408430357E-1,4.156528789E0
1.613500958E1,2.996710301E0,-1.091988573E0,-1.407073975E-2,3.189499907E0
1.614503258E1,2.572925161E0,-7.561847323E-1,-1.759444731E-1,2.687511058E0
1.615505458E1,2.548102561E0,-3.535536486E-1,-9.995055020E-2,2.574454691E0
1.616507658E1,2.841172026E0,-2.142817426E-1,3.008233117E-1,2.865077627E0
1.617509858E1,3.207353906E0,-5.223960936E-1,9.816526370E-1,3.394651478E0
1.618512058E1,3.593211082E0,-9.776439321E-1,1.561155124E0,4.037840866E0
1.619514358E1,4.048601008E0,-1.499000975E0,1.991128373E0,4.754236662E0
1.620516558E1,4.271830745E0,-1.865364704E0,2.195820681E0,5.152645132E0
1.621518758E1,4.154011104E0,-1.881914663E0,2.288545681E0,5.102435926E0
1.622520958E1,3.750909904E0,-1.757246763E0,2.302204338E0,4.738922463E0
1.623523158E1,3.135864678E0,-1.567472456E0,2.088371516E0,4.080675528E0
1.624525358E1,2.200757486E0,-1.129931740E0,1.938633825E0,3.142989079E0
1.625527658E1,9.646438175E-1,-5.261119992E-1,1.807668473E0,2.115418833E0
1.626529858E1,-5.418562120E-1,3.019695121E-1,1.601791372E0,1.717710494E0
1.627532058E1,-2.097809653E0,1.260281380E0,1.289166479E0,2.766055803E0
1.628534258E1,-3.304723495E0,2.326655932E0,7.798517762E-1,4.116150386E0
1.629536458E1,-4.296691936E0,3.183168653E0,3.870652109E-1,5.361337869E0
1.630538658E1,-5.002686508E0,3.759662893E0,2.294564366E-2,6.257992000E0
1.631540958E1,-5.358525249E0,4.116367606E0,-3.737565096E-1,6.767419674E0
1.632543158E1,-5.650328792E0,4.204087535E0,-8.023017222E-1,7.088318243E0
1.633545358E1,-5.920698781E0,4.159594610E0,-1.243554835E0,7.341888722E0
1.634547558E1,-6.035618203E0,3.843111724E0,-1.601986377E0,7.332431736E0
1.635549758E1,-6.071727684E0,3.465557301E0,-1.722428348E0,7.200189156E0
1.636551958E1,-5.921541950E0,3.014767672E0,-1.611318387E0,6.837384743E0
1.637554258E1,-5.674371373E0,2.450257300E0,-1.404533359E0,6.338372447E0
1.638556458E1,-5.218701950E0,1.776944863E0,-1.097289805E0,5.621070006E0
1.639558658E1,-4.517804981E0,9.119791156E-1,-7.961599530E-1,4.677193434E0
1.640560858E1,-3.546469610E0,-2.749097675E-1,-5.623131345E-1,3.601280069E0
1.641563058E1,-2.675191208E0,-1.644558638E0,-3.828451292E-1,3.163509366E0
1.642565258E1,-1.989440866E0,-2.890243321E0,-3.477701676E-1,3.525950298E0
1.643567558E1,-1.428405787E0,-3.774603406E0,-3.918518879E-1,4.054814653E0
1.644569758E1,-1.028677846E0,-4.251982664E0,-3.274325283E-1,4.386883489E0
1.645571958E1,-7.107752556E-1,-4.636271909E0,-2.145676714E-1,4.695344286E0
1.646574158E1,-3.832428861E-1,-4.817813337E0,-3.422965890E-1,4.845138534E0
1.647576358E1,-2.026908070E-1,-4.852052585E0,-5.734149505E-1,4.890020711E0
1.648578658E1,-9.047981501E-2,-4.896128312E0,-9.802646542E-1,4.994114320E0
1.649580858E1,-2.688783646E-2,-4.907909575E0,-1.288919288E0,5.074407579E0
1.650583058E1,-6.597705781E-2,-4.896547265E0,-1.443918158E0,5.105431200E0
1.651585258E1,-7.893331826E-2,-4.937975957E0,-1.586657170E0,5.187226427E0
1.652587458E1,-2.490732604E-1,-5.139283898E0,-1.607708023E0,5.390640181E0
1.653589658E1,-3.673267651E-1,-5.262825040E0,-1.662338998E0,5.531331421E0
1.654591958E1,3.386531889E-2,-5.121710676E0,-1.758815863E0,5.415394755E0
