"Time (s)","Linear Acceleration x (m/s^2)","Linear Acceleration y (m/s^2)","Linear Acceleration z (m/s^2)","Absolute acceleration (m/s^2)"
7.651958334E-3,2.769091498E-1,-8.951824039E-2,4.021270537E-1,4.963852939E-1
1.767295833E-2,-8.858268589E-2,2.509145486E-1,6.138904005E-1,6.690787897E-1
2.769395833E-2,-2.041132153E-1,3.771284527E-1,4.588239956E-1,6.280187365E-1
3.771495833E-2,-2.076594054E-1,1.912989691E-1,9.796425104E-2,2.988556821E-1
4.773595833E-2,-1.728556084E-1,7.275105715E-2,-1.439999646E-1,2.364482342E-1
5.775695833E-2,-1.227820270E-1,-2.632036418E-2,-1.849842685E-1,2.235785485E-1
6.777795833E-2,-1.122512647E-1,-7.996827543E-2,-1.833698523E-1,2.293900046E-1
7.779895833E-2,-8.321092196E-2,-6.068152696E-2,-2.723902023E-1,2.912090788E-1
8.781995833E-2,-4.339204118E-2,-5.944308668E-2,-2.941237181E-1,3.031915424E-1
9.784095833E-2,2.899217628E-2,-7.251716852E-2,-2.847629106E-1,2.952781761E-1
1.078619583E-1,6.535301372E-2,-1.095633727E-1,-2.689169562E-1,2.976432065E-1
1.178829583E-1,5.787603289E-2,-8.615346014E-2,-2.349522346E-1,2.568552247E-1
1.279039583E-1,4.944939114E-2,-1.310995451E-1,-1.496267402E-1,2.049890104E-1
1.379249583E-1,4.774551250E-2,-1.266737875E-1,-7.131147265E-2,1.530072173E-1
1.479459583E-1,2.416011035E-2,-1.013737625E-1,3.821447790E-2,1.109986350E-1
1.579669583E-1,5.438692622E-2,-6.643255591E-2,7.144829750E-2,1.116963806E-1
1.679879583E-1,6.806575634E-2,-7.363427907E-2,1.031934160E-1,1.438882738E-1
1.780089583E-1,6.096095078E-2,-5.688434511E-2,9.069850087E-2,1.232001798E-1
1.880299583E-1,3.353553593E-2,8.457997441E-3,8.318424404E-2,9.008767034E-2
1.980509583E-1,3.254604086E-2,-6.647114754E-3,1.038529819E-1,1.090360984E-1
2.080719583E-1,8.472820133E-2,2.443288296E-2,1.058515602E-1,1.377693241E-1
2.180929583E-1,8.121994503E-2,3.723536164E-2,9.492194474E-2,1.303584566E-1
2.281139583E-1,3.857130423E-2,4.388072222E-2,6.605541050E-2,8.818492246E-2
2.381349583E-1,1.514385000E-2,5.066378474E-2,5.196479023E-2,7.413834838E-2
2.481559583E-1,-4.568429589E-3,3.264061958E-2,1.148334682E-2,3.490197486E-2
2.581769583E-1,-1.794737063E-2,2.869930387E-2,-4.314485013E-2,5.483827357E-2
2.681979583E-1,-1.717765778E-3,5.203144848E-3,-4.721451223E-2,4.753139595E-2
2.782189583E-1,5.563771874E-2,-1.704463363E-4,-4.422190726E-2,7.107152651E-2
2.882399583E-1,8.693135910E-2,-2.728340060E-2,-7.461865783E-2,1.177683711E-1
2.982609583E-1,7.411148496E-2,-3.171178937E-2,-6.758855045E-2,1.051967772E-1
3.082819583E-1,7.832835071E-2,-1.219495296E-2,-6.147879481E-2,1.003179426E-1
3.183029583E-1,5.690005951E-2,-1.382808030E-2,-8.163531661E-2,1.004647077E-1
3.283239583E-1,2.779101200E-2,4.306474328E-3,-5.462585807E-2,6.143997428E-2
3.383449583E-1,4.181775145E-2,-2.123036295E-2,-4.378862858E-2,6.416304731E-2
3.483659583E-1,4.790616475E-2,-6.348234326E-2,-4.692916811E-2,9.234368059E-2
3.583869583E-1,3.616612516E-2,-5.495388687E-2,-6.019123793E-2,8.916783845E-2
3.684079583E-1,2.234352663E-2,-5.924311191E-2,-5.756232977E-2,8.557103073E-2
3.784289583E-1,1.425054163E-2,-6.037922591E-2,8.686623573E-3,6.264332596E-2
3.884499583E-1,3.119226426E-2,-1.398507804E-2,1.217390299E-2,3.628696283E-2
3.984709583E-1,3.400996439E-2,-1.763812602E-3,5.450599015E-2,6.427045725E-2
4.084919583E-1,1.400685892E-2,2.196097255E-2,1.049154210E-1,1.081005179E-1
4.185129583E-1,6.289776787E-2,7.679206789E-2,6.168578625E-2,1.168686747E-1
4.285339583E-1,5.131523766E-2,1.451410487E-1,4.026451170E-2,1.591238780E-1
4.385549583E-1,-8.663899831E-2,-9.779175818E-3,6.466201901E-2,1.085501037E-1
4.485759583E-1,-1.753838713E-1,5.926562369E-2,8.418060958E-2,2.033673806E-1
4.585969583E-1,-2.491566563E-1,1.408097237E-1,5.097368717E-2,2.906969805E-1
4.686179583E-1,-1.798846194E-1,9.875859529E-2,2.514419675E-2,2.067461416E-1
4.786389583E-1,-1.302897788E-1,4.857457459E-2,1.282960975E-1,1.891951490E-1
4.886589583E-1,-3.273974815E-1,6.723318592E-1,1.772174120E-2,7.480195852E-1
4.986799583E-1,-3.895780519E-1,5.948945510E-1,-2.879753709E-3,7.111110169E-1
5.087009583E-1,-3.927798775E-1,5.119181755E-1,-1.381714600E-1,6.598693833E-1
5.187219583E-1,-3.477995864E-1,3.344423166E-1,-1.846883994E-1,5.166488365E-1
5.287429583E-1,-3.067046970E-1,1.952885243E-1,-4.964812338E-1,6.153852407E-1
5.387639583E-1,-3.631013843E-1,-6.861532152E-2,-7.739368790E-1,8.576298563E-1
5.487849583E-1,-4.882585137E-1,-1.802790141E-1,-8.941082704E-1,1.034565850E0
5.588059583E-1,-4.208128181E-1,-2.077737916E-1,-1.463062234E0,1.536490962E0
5.688269583E-1,-2.273522064E-1,-4.434177518E-1,-1.647295135E0,1.721014117E0
5.788479583E-1,-7.310280371E-2,-6.247267529E-1,-1.669960697E0,1.784487676E0
5.888689583E-1,3.491164159E-2,-7.542285463E-1,-1.800558844E0,1.952457854E0
5.988899583E-1,1.535755111E-1,-8.242925155E-1,-1.898624836E0,2.075528814E0
6.089109583E-1,3.102121858E-1,-9.604142341E-1,-1.789248574E0,2.054273001E0
6.189319583E-1,4.841330838E-1,-1.293778324E0,-1.713873287E0,2.201274367E0
6.289529583E-1,7.118695620E-1,-1.719288393E0,-1.723518269E0,2.536380507E0
6.389739583E-1,7.914272167E-1,-2.390304629E0,-1.648576260E0,3.009604117E0
6.489949583E-1,8.348274440E-1,-2.898264532E0,-1.615700875E0,3.421602472E0
6.590159583E-1,7.069834093E-1,-8.990941912E-1,-1.834790198E0,2.162094118E0
6.690369583E-1,3.493114205E-1,1.949520171E-2,-1.971705676E0,2.002503884E0
6.790579583E-1,1.202451467E0,-4.803677693E-1,-1.664429231E0,2.108783391E0
6.890789583E-1,3.449184220E0,-2.173377898E-1,-8.451723379E-1,3.557867870E0
6.990999583E-1,1.848075365E0,-1.162619430E0,-1.348411199E0,2.566179895E0
7.091209583E-1,1.010308087E0,-9.660620597E-1,-1.564550602E0,2.098050743E0
7.191419583E-1,-6.229907146E-1,-9.381638244E-1,-2.586016492E0,2.820593925E0
7.291629583E-1,-1.453832404E0,-2.489732730E-1,-3.174520036E0,3.500456229E0
7.391839583E-1,-1.210623535E0,-6.302465245E-2,-3.270483955E0,3.487928719E0
7.492049583E-1,-2.518650135E-1,-3.013046837E-1,-2.553355114E0,2.583378183E0
7.592259583E-1,1.038040115E0,-2.498617575E-1,-1.766839120E0,2.064383360E0
7.692469583E-1,1.542251514E0,-4.255524614E-1,-1.300677454E0,2.061891478E0
7.792706667E-1,1.416924194E0,-5.337958252E-1,-1.706509888E0,2.281400481E0
7.892916667E-1,1.045872241E0,-7.025555322E-1,-2.387375466E0,2.699443394E0
7.993126667E-1,9.104838364E-1,-7.946452318E-1,-3.105352153E0,3.332214557E0
8.093336667E-1,9.058556921E-1,-7.597709759E-1,-3.844589315E0,4.022274664E0
8.193546667E-1,9.720585255E-1,-7.327049455E-1,-4.377015722E0,4.543128982E0
8.293756667E-1,8.943974152E-1,-9.081062123E-1,-4.441832108E0,4.621090359E0
8.393966667E-1,7.388094386E-1,-1.129832191E0,-4.095236646E0,4.311997606E0
8.494176667E-1,5.331216413E-1,-1.130400102E0,-3.752248916E0,3.954920354E0
8.594386667E-1,2.834313534E-1,-1.269859411E0,-3.307934201E0,3.554617411E0
8.694596667E-1,-8.203307346E-2,-1.564962831E0,-2.585037668E0,3.022955148E0
8.794806667E-1,-3.672201996E-1,-1.866450240E0,-2.038358672E0,2.788080567E0
8.895016667E-1,-4.365490276E-1,-1.982321004E0,-2.008565354E0,2.855609637E0
8.995226667E-1,-4.239357063E-1,-1.831762510E0,-2.563327541E0,3.178950056E0
9.095436667E-1,-4.413025215E-1,-1.760477350E0,-3.114787220E0,3.604986524E0
9.195646667E-1,-4.725114504E-1,-1.615388049E0,-3.192486191E0,3.608976821E0
9.295856667E-1,-3.933901441E-1,-1.661891394E0,-2.304930895E0,2.868683538E0
9.396066667E-1,-5.149420631E-1,-1.947797581E0,-1.134187344E0,2.312025449E0
9.496276667E-1,-6.442853969E-1,-1.857418630E0,-3.913360173E-1,2.004557687E0
9.596486667E-1,-7.248416099E-1,-1.906061617E0,1.468177378E-1,2.044510136E0
9.696696667E-1,-1.058045194E0,-2.067032248E0,9.493188500E-2,2.324025389E0
9.796906667E-1,-1.500357822E0,-2.026390884E0,-5.326269668E-1,2.577018644E0
9.897116667E-1,-1.695965019E0,-1.944815209E0,-1.071952504E0,2.794223633E0
9.997326667E-1,-1.808099413E0,-1.791462038E0,-1.462741807E0,2.935672549E0
1.009753667E0,-2.117748073E0,-1.618021781E0,-1.477234131E0,3.047141622E0
1.019774667E0,-2.461665218E0,-1.538434305E0,-1.297752677E0,3.179738632E0
1.029795667E0,-2.633276027E0,-1.359885190E0,-1.039964726E0,3.140852909E0
1.039816667E0,-2.682016663E0,-1.274644627E0,-8.008165294E-1,3.075587654E0
1.049837667E0,-2.621572825E0,-1.159233015E0,-4.422126406E-1,2.900347786E0
1.059858667E0,-2.615775311E0,-1.166123447E0,1.950654531E-1,2.870570484E0
1.069879667E0,-2.549304163E0,-9.711321804E-1,5.427648693E-1,2.781482183E0
1.079900667E0,-2.582163761E0,-7.283224574E-1,7.301272005E-1,2.780487191E0
1.089921667E0,-2.568583018E0,-6.045129284E-1,9.087292331E-1,2.790849946E0
1.099942667E0,-2.531291816E0,-5.264819817E-1,7.966556507E-1,2.705417114E0
1.109963667E0,-2.516151620E0,-5.410595289E-1,4.088601226E-1,2.605941478E0
1.119984667E0,-2.422875082E0,-6.904830784E-1,3.278709233E-2,2.519556615E0
1.130005667E0,-2.211519286E0,-1.862748952E-1,-1.932194871E-1,2.227745421E0
1.140026667E0,-2.116141843E0,3.785984427E-1,-3.501201636E-1,2.178067311E0
1.150047667E0,-1.984663691E0,6.006961584E-1,2.931501567E-2,2.073785237E0
1.160068667E0,-1.751320025E0,6.227471781E-1,8.689477015E-1,2.051829912E0
1.170089667E0,-1.786213869E0,4.765454444E-1,1.520529254E0,2.393671816E0
1.180110667E0,-1.908127146E0,4.235176304E-1,1.710395948E0,2.597262152E0
1.190131667E0,-1.853152210E0,5.577141532E-1,1.883001076E0,2.700168743E0
1.200152667E0,-1.462795016E0,2.412023234E-1,2.154130619E0,2.615000295E0
1.210173667E0,-1.065485483E0,-3.917584786E-1,2.394189811E0,2.649694109E0
1.220194667E0,-5.451844472E-1,-7.933870572E-1,2.506128323E0,2.684654219E0
1.230215667E0,-1.441478992E-1,-1.076748683E0,2.509044330E0,2.734130536E0
1.240236667E0,1.530953085E-1,-1.231947527E0,2.469421257E0,2.763905611E0
1.250257667E0,7.382425511E-1,-1.189276594E0,1.890884877E0,2.352621197E0
1.260278667E0,1.066269595E0,-1.010393018E0,1.378184052E0,2.014253256E0
1.270299667E0,1.050987312E0,-7.717389107E-1,8.606259441E-1,1.562316323E0
1.280320667E0,1.004680873E0,-6.186646521E-1,3.684368590E-1,1.236072541E0
1.290341667E0,1.336441364E0,-6.081917042E-1,1.525848466E-1,1.476229929E0
1.300362667E0,2.008773515E0,-1.007072968E0,3.095638758E-1,2.268302624E0
1.310383667E0,2.511379707E0,-1.839556848E0,1.116246917E0,3.307114242E0
1.320404667E0,2.864383718E0,-2.648437273E0,1.976949459E0,4.373470388E0
1.330425667E0,3.212616400E0,-3.329342612E0,2.342552465E0,5.185844041E0
1.340446667E0,3.574705229E0,-3.651803691E0,2.173986886E0,5.553413964E0
1.350467667E0,4.275184708E0,-3.641319634E0,1.935536847E0,5.939925576E0
1.360488667E0,4.617057958E0,-3.252832380E0,1.887577399E0,5.954921588E0
1.370509667E0,4.284183573E0,-2.418351091E0,2.081563749E0,5.341868449E0
1.380530667E0,3.930971986E0,-1.565288520E0,2.012291493E0,4.685294650E0
1.390551667E0,3.772314806E0,-7.683644825E-1,1.838393106E0,4.266196454E0
1.400572667E0,3.595606102E0,-3.479444146E-2,1.902859390E0,4.068226610E0
1.410593667E0,3.094081644E0,-7.992839742E-1,1.436108909E0,3.503513221E0
1.420614667E0,3.076852823E0,-8.092774504E-1,9.788829571E-1,3.328688200E0
1.430635667E0,3.040068575E0,-6.204767042E-1,6.662767750E-1,3.173473337E0
1.440656667E0,2.986768865E0,-6.813444650E-1,4.878256005E-1,3.102094832E0
1.450677667E0,3.169156093E0,-6.995942098E-1,3.028629667E-1,3.259556469E0
1.460698667E0,3.224093315E0,-8.205807030E-1,3.703630780E-1,3.347431732E0
1.470719667E0,3.066437471E0,-1.077236048E0,5.664874618E-1,3.299149028E0
1.480740667E0,3.103037532E0,-1.159066662E0,6.981616420E-1,3.385218919E0
1.490761667E0,3.027723056E0,-1.183505099E0,7.330769746E-1,3.332445509E0
1.500782667E0,2.721902567E0,-1.086259471E0,6.754421394E-1,3.007479893E0
1.510803667E0,2.704921961E0,-1.023452189E0,5.818967754E-1,2.950027297E0
1.520824667E0,2.840673551E0,-1.187231530E0,5.418788700E-1,3.126112224E0
1.530845667E0,2.934401202E0,-1.531263573E0,7.150307129E-1,3.386258623E0
1.540866667E0,3.106503469E0,-1.885424162E0,8.476338695E-1,3.731443588E0
1.550887667E0,3.257071027E0,-2.260144731E0,9.486195230E-1,4.076351908E0
1.560908667E0,3.229303477E0,-2.593201550E0,1.268339428E0,4.331487057E0
1.570929667E0,3.371626460E0,-2.712900487E0,1.729268129E0,4.660264187E0
1.580950667E0,3.378636687E0,-2.809012924E0,2.080714002E0,4.861595441E0
1.590971667E0,3.265290165E0,-2.451748633E0,2.351214238E0,4.711836119E0
1.600992667E0,3.153985784E0,-2.285904055E0,2.530323224E0,4.644945564E0
1.611013667E0,3.113563105E0,-2.380640643E0,2.630222319E0,4.720147723E0
1.621034667E0,3.189503234E0,-2.135283288E0,2.328766777E0,4.489489982E0
1.631055667E0,3.323895054E0,-1.807304192E0,1.890090240E0,4.229310568E0
1.641076667E0,3.315950442E0,-1.471531926E0,1.700676121E0,4.006648576E0
1.651097667E0,3.454212826E0,-1.335539723E0,1.649979884E0,4.054341650E0
1.661118667E0,3.480931385E0,-1.128414972E0,1.306991862E0,3.885670005E0
1.671139667E0,3.335956690E0,-1.101547017E0,1.058644533E0,3.669160819E0
1.681160667E0,3.035674392E0,-1.295924252E0,1.093597727E0,3.477167622E0
1.691181667E0,2.664942501E0,-1.125079721E0,9.400328869E-1,3.041608906E0
1.701202667E0,2.015736380E0,-7.284531426E-1,5.747052848E-1,2.219036570E0
1.711223667E0,1.861590619E0,-3.973510480E-1,4.894221827E-1,1.965436735E0
1.721244667E0,1.817664873E0,-1.233552003E-1,5.177498960E-1,1.893987078E0
1.731265667E0,1.414486490E0,4.270765382E-1,1.143849868E-1,1.481975143E0
1.741286667E0,1.170674262E0,7.746508241E-1,1.757556081E-2,1.403877141E0
1.751307667E0,9.011489028E-1,9.986886460E-1,1.040453553E-2,1.345197610E0
1.761328667E0,6.813000262E-1,1.080849043E0,-2.643537891E-1,1.304717327E0
1.771349667E0,7.476214850E-1,1.049857630E0,-4.525271291E-1,1.365986724E0
1.781371542E0,8.474068514E-1,9.729503721E-1,-5.372912908E-1,1.397645423E0
1.791392542E0,7.674944168E-1,8.313881117E-1,-4.404432732E-1,1.214184561E0
1.801413542E0,6.488479793E-1,9.914340055E-1,-3.311687529E-1,1.230291766E0
1.811434542E0,3.774409863E-1,1.169739000E0,-2.165954858E-1,1.248064353E0
1.821455542E0,1.658936942E-1,1.084098925E0,-1.116818190E-1,1.102390142E0
1.831476542E0,-9.240471840E-2,9.345394278E-1,-5.621747017E-2,9.407778579E-1
1.841497542E0,-2.631083322E-1,8.558154398E-1,-7.778200150E-2,8.987191448E-1
1.851518542E0,-3.441212127E-1,8.602663404E-1,-1.444291502E-1,9.377298997E-1
1.861539542E0,-4.807598251E-1,8.597687423E-1,-1.444244725E-1,9.955856206E-1
1.871560542E0,-5.484106484E-1,1.017067029E0,-3.409102142E-2,1.156002500E0
1.881581542E0,-7.161330593E-1,1.217935844E0,1.863396531E-1,1.425109380E0
1.891602542E0,-9.817922392E-1,1.205295333E0,3.185247338E-1,1.586855648E0
1.901623542E0,-1.093273206E0,1.161575117E0,7.275409770E-1,1.753230997E0
1.911644542E0,-1.060691644E0,7.434494966E-1,9.363427091E-1,1.598287079E0
1.921665542E0,-9.852818576E-1,3.543143713E-1,9.285717595E-1,1.399487236E0
1.931686542E0,-9.691558215E-1,2.916006446E-1,7.580114025E-1,1.264466381E0
1.941707542E0,-7.274728569E-1,4.933699304E-1,5.907670015E-1,1.059073319E0
1.951728542E0,-5.681265825E-1,7.818785673E-1,4.530516243E-1,1.067406990E0
1.961749542E0,-5.571110129E-1,8.442554945E-1,2.400422359E-1,1.039596218E0
1.971770542E0,-5.374523816E-1,8.175261176E-1,1.743622166E-1,9.937837782E-1
1.981791542E0,-5.470347986E-1,8.633343744E-1,2.019382703E-1,1.041812065E0
1.991812542E0,-4.658222356E-1,9.367280406E-1,7.998055458E-2,1.049212403E0
2.001833542E0,-1.965240410E-1,1.052657277E0,2.190554094E-1,1.093020729E0
2.011854542E0,-8.604177833E-4,1.074079721E0,4.752663660E-1,1.174532292E0
2.021875542E0,8.632069051E-2,9.309264332E-1,7.394441539E-1,1.191995362E0
2.031896542E0,1.101910713E-1,7.930590284E-1,1.274762594E0,1.505358551E0
2.041917542E0,1.417534643E-1,6.559546852E-1,1.632081850E0,1.764670439E0
2.051938542E0,1.234122106E-1,8.788616556E-1,1.846518543E0,2.048721336E0
2.061959542E0,2.305469424E-1,8.626777321E-1,1.977365781E0,2.169640568E0
2.071980542E0,3.142077345E-1,6.623328280E-1,1.506353849E0,1.675265112E0
2.082001542E0,2.692356294E-1,6.129197627E-1,6.317939901E-1,9.205010080E-1
2.092022542E0,5.209109008E-2,3.924224299E-1,1.719280207E-1,4.315878699E-1
2.102043542E0,-2.694423285E-1,3.270932436E-1,1.411348289E-1,4.466634061E-1
2.112064542E0,-5.413372716E-1,4.802271438E-1,5.395927548E-2,7.256553966E-1
2.122085542E0,-8.542004389E-1,8.439666420E-1,-8.445718288E-2,1.203773691E0
2.132106542E0,-1.251539500E0,1.243762411E0,-6.235915160E-1,1.871406539E0
2.142127542E0,-1.577728472E0,1.373864713E0,-1.276990968E0,2.451007408E0
2.152148542E0,-1.729384196E0,1.309609661E0,-1.712855871E0,2.764004775E0
2.162169542E0,-1.925384326E0,1.391881154E0,-1.971192291E0,3.087075801E0
2.172190542E0,-2.189439907E0,1.503294001E0,-2.249517417E0,3.480498322E0
2.182211542E0,-2.644247743E0,1.810108516E0,-2.723852906E0,4.205700134E0
2.192232542E0,-3.071501452E0,2.183847338E0,-2.946320751E0,4.783734559E0
2.202253542E0,-3.074603400E0,1.972821910E0,-1.358004141E0,3.897356489E0
2.212274542E0,-3.045490405E0,1.355391020E0,7.813306832E-1,3.423824508E0
2.222295542E0,-1.871729691E0,4.670223767E-1,7.198168051E-1,2.059033309E0
2.232316542E0,3.738768160E-2,-4.188652933E-2,-2.377097815E-1,2.442504049E-1
2.242337542E0,8.105281699E-1,-3.424269819E-1,-1.042612638E0,1.364277561E0
2.252358542E0,2.483195543E-1,-1.229330313E-1,-1.593694294E0,1.617602125E0
2.262379542E0,-1.569579792E-1,4.991499031E-1,-1.680318455E0,1.759902424E0
2.272400542E0,-3.797696400E-1,9.371741831E-1,-1.381499715E0,1.712034431E0
2.282421542E0,-2.752366269E-1,1.199188501E0,-1.284956630E0,1.779022710E0
2.292442542E0,-1.403150493E-1,1.240941714E0,-1.588461328E0,2.020602396E0
2.302463542E0,-6.597629768E-1,1.395746748E0,-1.177543863E0,1.941650257E0
2.312484542E0,-1.091522550E0,1.692364304E0,2.207382381E-1,2.025893330E0
2.322505542E0,-1.244421392E0,1.978617085E0,2.051846445E-2,2.337505332E0
2.332526542E0,-1.435805438E0,2.759170673E0,-7.692105746E-1,3.204098152E0
2.342547542E0,-1.211815563E0,3.077618809E0,-8.330425814E-1,3.410893495E0
2.352568542E0,1.571020546E0,-3.090771536E0,5.264375136E0,6.303540261E0
2.362589542E0,-1.494319110E0,-3.160244644E-2,6.353716090E-2,1.496003104E0
2.372610542E0,-5.763090591E0,4.684338360E0,-5.110384619E0,9.015113421E0
2.382631542E0,-5.662312660E0,4.282528226E0,-2.674888907E0,7.586623975E0
2.392652542E0,-6.121592739E0,4.855209205E0,-5.742959797E-1,7.834332770E0
2.402673542E0,-7.575813398E0,5.382629811E0,3.607755446E-1,9.300312431E0
2.412694542E0,-7.517661669E0,5.565904938E0,-1.931276858E-1,9.355844860E0
2.422715542E0,-3.849595116E0,5.308720420E0,-1.635462125E0,6.758448892E0
2.432736542E0,3.868180491E0,4.562726215E0,-7.737662573E0,9.780220494E0
2.442757542E0,3.439159754E0,-2.278327233E0,-2.531056407E1,2.564455592E1
2.452778542E0,1.733935668E0,-6.663056018E0,-2.349941475E1,2.448724856E1
2.462799542E0,3.724075277E0,-8.609859572E0,6.591304834E0,1.146489066E1
2.472820542E0,2.315319058E0,-8.602047692E0,2.690945361E0,9.305757023E0
2.482841542E0,4.704887230E0,-6.495237420E0,3.649130344E0,8.811369091E0
2.492862542E0,1.027813276E1,-7.064881940E0,3.022331046E0,1.283304542E1
2.502883542E0,1.414988532E1,-5.457574158E0,5.164673678E0,1.602118049E1
2.512904542E0,1.316914353E1,-1.701454678E0,5.975617000E0,1.456122549E1
2.522925542E0,8.329956282E0,3.719719101E0,4.026866907E0,9.971967657E0
2.532946542E0,4.359312108E0,4.703409054E0,2.897777166E0,7.037241739E0
2.542967542E0,7.211856383E-1,1.034452556E0,2.217633719E0,2.551097828E0
2.552988542E0,-1.116697737E0,-2.871865815E-1,-2.075749862E-1,1.171570460E0
2.563009542E0,-6.562885612E-1,9.243269733E-1,-7.458365639E0,7.544024989E0
2.573030542E0,-1.108819199E-1,8.875783923E-1,-5.263987466E0,5.339443252E0
2.583051542E0,6.642612398E-2,2.763218701E-1,8.257350236E-1,8.732723144E-1
2.593072542E0,1.501933354E-1,-2.264918983E-2,2.147916782E0,2.153280643E0
2.603093542E0,7.869826019E-2,2.213024944E-2,2.240960017E0,2.242450660E0
2.613114542E0,1.246971363E-1,9.524003327E-2,1.322476459E0,1.331752238E0
2.623135542E0,2.904253542E-2,-2.986228582E-1,-2.094075036E-1,3.658832913E-1
2.633156542E0,-7.411597270E-1,-6.999935746E-1,-7.966106272E-1,1.293791806E0
2.643177542E0,-4.620662767E-1,-4.781984523E-1,-3.961868674E-1,7.740433048E-1
2.653198542E0,-1.292831075E-1,-3.467521673E-1,8.580315346E-1,9.344352849E-1
2.663219542E0,3.570134461E-2,-9.568851471E-2,1.599585949E0,1.602843125E0
2.673241542E0,1.675689214E-1,2.917871708E-1,1.448846483E0,1.487405536E0
2.683261542E0,1.510780191E-1,5.123599327E-1,7.290846419E-1,9.038261357E-1
2.693283542E0,1.190773773E-1,4.965973011E-1,-5.033924600E-2,5.131494333E-1
2.703304542E0,4.841436088E-2,3.779643121E-1,-2.318531921E-1,4.460458208E-1
2.713325542E0,-2.542954087E-2,1.631267917E-1,3.462739382E-3,1.651332864E-1
2.723346542E0,-4.510074377E-2,-1.072700948E-2,2.122083199E-1,2.172130679E-1
2.733367542E0,-4.430259883E-2,-1.165961114E-1,2.717160183E-1,2.989765343E-1
2.743388542E0,-1.424218011E-1,-3.185709268E-2,2.905060641E-1,3.251040096E-1
2.753409542E0,-2.390692592E-2,7.678855956E-3,2.600332814E-1,2.612428246E-1
2.763430542E0,-2.959299231E-1,-1.285641924E-1,3.634857291E-1,4.860299849E-1
2.773451542E0,5.928375006E-2,-1.800521421E-1,7.780831397E-1,8.008412509E-1
2.783467958E0,-1.383544779E-1,-2.362394992E-1,1.104040854E0,1.137478470E0
2.793488958E0,-1.234078252E-1,6.988445967E-2,5.871551764E-1,6.040401727E-1
2.803509958E0,5.777341425E-2,1.913109559E-1,4.597519487E-1,5.013077933E-1
2.813530958E0,1.741072780E-1,4.123541263E-1,5.376608348E-1,6.995916259E-1
2.823551958E0,3.930439889E-2,4.139243960E-1,2.691099143E-1,4.952760719E-1
2.833572958E0,2.904312015E-2,1.074803022E-1,-1.226880147E-1,1.656739784E-1
2.843593958E0,-1.505190253E-1,-2.029530546E-1,-1.475527146E-1,2.926050631E-1
2.853614958E0,-1.610761732E-1,-1.759894967E-1,5.716411611E-2,2.453274805E-1
2.863635958E0,-2.790057421E-2,-2.864901781E-2,2.226350749E-1,2.261981097E-1
2.873656958E0,2.577277243E-2,1.553248519E-1,2.314059166E-1,2.798905923E-1
2.883677958E0,2.269772172E-2,2.697311810E-1,1.457763304E-1,3.074424094E-1
2.893698958E0,3.587325275E-2,2.164949137E-1,1.084874851E-1,2.447988405E-1
2.903719958E0,7.192075253E-5,1.312571275E-1,1.451682383E-1,1.957096219E-1
2.913740958E0,-5.794590712E-2,-1.271360099E-2,1.579298047E-1,1.687044369E-1
2.923761958E0,-5.868148685E-2,-3.041107625E-2,8.937761486E-2,1.111607327E-1
2.933782958E0,-4.779806435E-2,3.446553558E-2,1.051709443E-1,1.205547827E-1
2.943803958E0,-3.129546762E-2,8.163151592E-2,1.491946310E-1,1.729223774E-1
2.953824958E0,-9.128673077E-3,1.589679596E-1,1.690330642E-1,2.322204161E-1
2.963845958E0,2.374788165E-2,2.047732928E-1,1.559265304E-1,2.584746529E-1
2.973866958E0,-2.549970746E-3,9.246933013E-2,1.816864389E-1,2.038799682E-1
2.983887958E0,-9.166913867E-2,-1.356153497E-1,1.840364349E-1,2.463009611E-1
2.993908958E0,-8.863735735E-2,-1.231110790E-1,9.865305305E-2,1.809567456E-1
3.003929958E0,-6.436556518E-2,-5.338069350E-2,3.530314922E-2,9.076748737E-2
3.013950958E0,-7.348546743E-2,-1.959518909E-2,-7.253180483E-2,1.050949479E-1
3.023971958E0,-2.241430718E-1,3.233217895E-3,-5.195817556E-3,2.242265971E-1
3.033992958E0,-6.318501234E-2,2.067049205E-1,1.229733771E-1,2.486799578E-1
3.044013958E0,2.813820505E-1,3.007293177E-1,4.790156007E-1,6.317198165E-1
3.054034958E0,7.942799270E-2,3.204765344E-1,8.360904425E-1,8.989222676E-1
3.064055958E0,1.774513006E-2,3.164396167E-1,4.976828367E-1,5.900314623E-1
3.074076958E0,-3.143463135E-3,2.022891033E-1,9.480556687E-2,2.234252854E-1
3.084097958E0,-6.667112231E-2,8.549097061E-2,1.031583327E-1,1.496508811E-1
3.094118958E0,-3.914710879E-2,-2.710213691E-2,3.843339765E-1,3.872720329E-1
3.104139958E0,-1.114537776E-2,-1.120428845E-1,5.431542939E-1,5.547020952E-1
3.114160958E0,-5.831311226E-2,-1.527380437E-2,3.408137351E-1,3.461036120E-1
3.124181958E0,-5.323597491E-2,7.360036522E-2,1.680419612E-1,1.910214216E-1
3.134202958E0,-4.290394485E-2,3.376416206E-2,9.338588119E-2,1.081743497E-1
3.144223958E0,1.568632543E-2,1.001815152E-1,-6.476726890E-2,1.203212197E-1
3.154244958E0,1.771004677E-2,1.753948349E-1,-9.187554538E-2,1.987916238E-1
3.164265958E0,2.187852681E-2,1.669499937E-1,-2.876192389E-1,3.332803578E-1
3.174286958E0,9.121364057E-2,1.249289784E-1,-6.128904901E-1,6.321091130E-1
3.184307958E0,6.826390386E-2,1.468168607E-1,-8.456401151E-1,8.610007872E-1
3.194328958E0,-2.706635195E-1,-1.495162278E-2,-1.358652597E0,1.385431042E0
3.204349958E0,1.111766195E-1,-6.684390754E-2,-1.327526114E0,1.333849291E0
3.214370958E0,-3.993882179E-2,4.299165308E-2,-1.344139223E0,1.345419504E0
3.224391958E0,-1.501909965E-1,6.367354721E-2,-1.426161625E0,1.435461124E0
3.234412958E0,1.590091825E-2,-9.381360501E-2,-1.102568525E0,1.106666700E0
3.244433958E0,1.018345231E-1,-6.076601923E-2,-9.880414510E-1,9.951324977E-1
3.254454958E0,4.599829137E-2,2.493121192E-1,-9.000396860E-1,9.350635336E-1
3.264475958E0,2.946996689E-4,2.993701324E-1,-7.617108627E-1,8.184289837E-1
3.274496958E0,7.668506384E-2,2.280957896E-1,-5.736013671E-1,6.220344175E-1
3.284517958E0,9.690415084E-2,2.456274962E-1,-4.313321783E-1,5.057378070E-1
3.294538958E0,1.864899266E-1,3.341154572E-1,-2.754349206E-1,4.714615859E-1
3.304559958E0,2.145705950E-1,2.885554147E-1,-1.420476524E-1,3.866294132E-1
3.314580958E0,4.046916425E-2,4.429964599E-1,-3.134041809E-2,4.459437616E-1
3.324601958E0,6.089699686E-2,7.512488052E-1,6.483334243E-2,7.564962484E-1
3.334622958E0,-7.591440082E-3,9.187905371E-1,-8.163238569E-1,1.229072138E0
3.344643958E0,1.564586270E-1,2.577727479E-1,-8.090892432E-1,8.634532384E-1
3.354664958E0,-3.792884141E-1,-1.387731385E-1,7.797020875E-2,4.113356762E-1
3.364685958E0,-3.132686716E-1,3.419422477E-2,8.180969520E-1,8.766921515E-1
3.374706958E0,7.959229946E-2,3.619642836E-1,8.251077636E-1,9.045197058E-1
3.384727958E0,1.110766321E-1,3.223590454E-1,1.296727075E0,1.340803669E0
3.394748958E0,-1.020309895E-1,-2.052931103E-1,1.639831895E0,1.655779040E0
3.404769958E0,-3.314055651E-1,-5.964499104E-1,1.658707146E0,1.793569497E0
3.414790958E0,-5.932737029E-1,-8.239636096E-1,1.546411954E0,1.849940445E0
3.424811958E0,-6.782664907E-1,-8.400653797E-1,1.664051647E0,1.983638868E0
3.434832958E0,-5.488214153E-1,-5.525343972E-1,1.821526959E0,1.981024903E0
3.444853958E0,-5.520116562E-1,-4.993843764E-2,1.939426122E0,2.017073226E0
3.454874958E0,-3.290707719E-1,1.242240965E-1,1.743222947E0,1.778354701E0
3.464895958E0,-2.982518524E-1,3.477017552E-1,1.451326287E0,1.521906262E0
3.474916958E0,-2.413561052E-1,4.131981719E-1,1.237273025E0,1.326585857E0
3.484937958E0,6.885096431E-2,1.994035023E-1,1.472029962E0,1.487069071E0
3.494958958E0,-2.536229789E-2,1.495349389E-1,1.370425966E0,1.378793412E0
3.504979958E0,-2.626452327E-2,1.427925146E-1,1.047563037E0,1.057576401E0
3.515000958E0,-1.420762306E-1,1.473732233E-1,8.986082876E-1,9.216297395E-1
3.525021958E0,-1.982586175E-1,1.665497518E-1,7.964175229E-1,8.374521897E-1
3.535042958E0,-3.809127706E-1,2.111201531E-1,8.214745961E-1,9.297778067E-1
3.545063958E0,-4.749763441E-1,2.840036497E-1,9.474756615E-1,1.097256000E0
3.555084958E0,-3.832370389E-1,1.880929407E-1,1.472544517E0,1.533178704E0
3.565105958E0,-4.705652046E-1,2.856774151E-2,1.960863769E0,2.016738567E0
3.575126958E0,-4.308842450E-1,-1.657217860E-1,2.184585257E0,2.232831764E0
3.585147958E0,-3.822979760E-1,-2.808283192E-1,2.451070794E0,2.496550485E0
3.595168958E0,-2.577043355E-1,-4.299188697E-1,2.479568515E0,2.529723657E0
3.605189958E0,-1.894147038E-2,-3.426143852E-1,2.036021540E0,2.064734150E0
3.615210958E0,1.988053322E-1,-2.045037362E-1,1.002605550E0,1.042383435E0
3.625231958E0,-3.829166114E-2,-1.133240095E-1,-4.152824119E-2,1.266221831E-1
3.635252958E0,-2.601081258E-1,9.486639619E-2,-9.836175207E-1,1.021841131E0
3.645273958E0,4.857282043E-3,1.804289952E-1,-1.981994437E0,1.990196011E0
3.655294958E0,2.970344621E-1,3.902478504E-1,-2.656808147E0,2.701694355E0
3.665315958E0,6.258602357E-1,5.259453535E-1,-2.779652885E0,2.897376350E0
3.675336958E0,5.348851615E-1,3.703535762E-1,-2.251179780E0,2.343304144E0
3.685357958E0,3.121243715E-2,-3.459797502E-3,-1.228647505E0,1.229048769E0
3.695378958E0,-3.257659256E-2,-5.103391349E-2,-3.871629325E-1,3.918683848E-1
3.705399958E0,-9.242927670E-2,7.772060573E-2,2.079503044E-1,2.404724368E-1
3.715420958E0,-1.019386035E-1,3.241374761E-2,6.465925620E-1,6.553808597E-1
3.725441958E0,-4.403713524E-2,-4.255223483E-2,9.501186761E-1,9.520900486E-1
3.735462958E0,-6.529702663E-2,8.667123109E-2,1.224099540E0,1.228900032E0
3.745483958E0,-3.630185366E-2,1.935326055E-1,1.025310580E0,1.044047164E0
3.755504958E0,1.145177186E-2,1.301768544E-1,7.005905753E-1,7.126740565E-1
3.765525958E0,-3.016169250E-2,1.116862044E-1,4.090899181E-1,4.251330345E-1
3.775546958E0,-1.787786186E-2,1.889685613E-1,5.443867408E-2,1.974646914E-1
3.785567958E0,3.148374796E-2,1.497086012E-1,-1.692928268E-1,2.281752679E-1
3.795588958E0,2.929630458E-2,1.332717857E-1,-2.394160721E-1,2.755715840E-1
3.805609958E0,-7.983495891E-2,1.622760218E-1,-4.119690871E-1,4.499173887E-1
3.815630958E0,-2.053951442E-2,9.153085202E-2,-7.237401406E-1,7.297941900E-1
3.825651958E0,1.017392135E-1,-2.311109063E-1,-7.323286772E-1,7.746408264E-1
3.835672958E0,-1.064099693E-1,-6.768005937E-2,-1.672603346E-1,2.094747993E-1
3.845693958E0,-7.037708759E-2,1.116835731E-1,2.609237393E-1,2.924164029E-1
3.855714958E0,4.083929300E-2,2.906779540E-1,5.518075883E-2,2.986744665E-1
3.865735958E0,8.760415435E-2,3.034742931E-1,-5.967522115E-3,3.159220564E-1
3.875756958E0,3.292508662E-2,1.450457391E-1,-2.186496127E-1,2.644427743E-1
3.885777958E0,5.650632262E-2,1.914457342E-1,-5.878527492E-1,6.208182410E-1
3.895799958E0,1.389052856E-1,2.947040543E-1,-9.223210859E-1,9.781724508E-1
3.905819958E0,2.240565330E-1,4.200169024E-1,-1.158198350E0,1.252213619E0
3.915840958E0,1.440256923E-1,2.254882237E-1,-1.441619909E0,1.466238829E0
3.925861958E0,8.743516982E-2,-5.648761153E-2,-1.509672290E0,1.513256813E0
3.935883958E0,1.131354368E-1,1.639559269E-2,-9.645794982E-1,9.713300422E-1
3.945903958E0,-6.548355281E-2,4.547935098E-2,-5.762372553E-1,5.817266037E-1
3.955925958E0,-1.655984098E-1,-1.831874192E-2,-4.475271749E-1,4.775342731E-1
3.965946958E0,-1.992836344E-1,1.229882875E-1,-2.592556749E-1,3.493616905E-1
3.975967958E0,1.336088777E-3,1.754723105E-1,5.420760673E-1,5.697708133E-1
3.985988958E0,9.476699352E-2,8.950596124E-2,7.361176729E-1,7.475702833E-1
3.996009958E0,-8.676566362E-2,1.284513411E-1,3.257014601E-1,3.607069011E-1
4.006030958E0,-1.145440310E-1,-9.530084431E-3,4.976493613E-1,5.107504718E-1
4.016051958E0,-1.229154897E-1,-4.104219139E-2,8.863956468E-1,8.958180182E-1
4.026072958E0,-1.473182595E-1,7.721803755E-2,9.477001946E-1,9.621855090E-1
4.036093958E0,-2.722288191E-2,1.487812328E-1,1.232436793E0,1.241683288E0
4.046114958E0,-5.140404224E-2,3.550721705E-2,1.149370662E0,1.151067356E0
4.056135958E0,-3.040020043E-1,2.614465535E-2,7.864556216E-1,8.435716960E-1
4.066156958E0,-2.095969534E-1,2.536487067E-1,1.099909065E0,1.148071645E0
4.076177958E0,-2.319064200E-2,2.801997435E-1,1.394691765E0,1.422749036E0
4.086198958E0,-2.132187188E-2,4.042115861E-1,1.303088115E0,1.364507334E0
4.096219958E0,-7.945664406E-2,5.970331702E-1,1.400949601E0,1.524933359E0
4.106240958E0,-3.136604351E-1,2.455371568E-1,1.617142214E0,1.665479001E0
4.116261958E0,-4.283407062E-1,-1.353604111E-1,1.462129164E0,1.529581608E0
4.126282958E0,-4.244523078E-1,-4.417434016E-1,1.401545578E0,1.529583931E0
4.136303958E0,-3.560252666E-1,-6.010455295E-1,1.643341248E0,1.785659591E0
4.146324958E0,-3.161267906E-1,-4.602799523E-1,1.554258187E0,1.651518178E0
4.156345958E0,-2.435599208E-1,-4.850923195E-1,1.224647717E0,1.339551426E0
4.166366958E0,-2.414110690E-1,-7.540624854E-1,6.606574546E-1,1.031192421E0
4.176387958E0,-1.193311465E-1,-3.888211298E-1,2.815945968E-2,4.076944305E-1
4.186408958E0,1.741078627E-1,1.894518337E-1,-6.534861369E-1,7.023173615E-1
4.196429958E0,1.455705267E-1,4.629041827E-1,-1.585913989E0,1.658491556E0
4.206450958E0,1.722589731E-1,3.751488778E-1,-1.644090861E0,1.695123769E0
4.216471958E0,1.606867486E-1,3.155894315E-1,-7.129742472E-1,7.960836625E-1
4.226492958E0,1.992660928E-1,4.162568504E-1,-4.714914036E-1,6.597582018E-1
4.236513958E0,1.406191045E-1,3.270368180E-1,-7.117492555E-1,7.958101630E-1
4.246534958E0,1.658410692E-1,3.941663620E-1,-7.389716989E-1,8.537854256E-1
4.256555958E0,2.172515434E-1,5.681148881E-1,-5.381870842E-1,8.121564484E-1
4.266576958E0,3.296449685E-1,5.516105372E-1,-7.390284169E-1,9.793380371E-1
4.276597958E0,3.039856321E-1,4.537828186E-1,-9.919666868E-1,1.132397465E0
4.286618958E0,1.440935200E-1,4.102011815E-1,-1.046618273E0,1.133330385E0
4.296639958E0,-8.293105960E-3,2.562647510E-1,-8.106739117E-1,8.502544262E-1
4.306660958E0,-7.504082680E-2,1.462686843E-1,-1.636572804E-1,2.319684442E-1
4.316681958E0,-1.076337916E-1,1.038246229E-1,3.101591223E-1,3.443301709E-1
4.326702958E0,-1.364400995E-1,-9.990231067E-2,7.334763394E-1,7.527176847E-1
4.336723958E0,-1.708878011E-1,-1.805088097E-1,8.409225816E-1,8.768904487E-1
4.346744958E0,-1.633846539E-1,3.612117469E-2,8.591004056E-1,8.752444180E-1
4.356765958E0,-1.598108357E-1,7.445171982E-2,9.848816156E-1,1.000537035E0
4.366786958E0,-1.851257712E-1,-9.412263036E-2,1.110745125E0,1.129993519E0
4.376807958E0,-2.841945612E-1,-1.759240079E-1,9.169966114E-1,9.760115729E-1
4.386828958E0,-3.680372018E-1,-9.364900589E-2,8.862472737E-1,9.641865734E-1
4.396849958E0,-3.955290556E-1,-2.717122176E-1,1.107998250E0,1.207448087E0
4.406870958E0,-3.027676570E-1,-1.943462455E-1,8.492620267E-1,9.223257056E-1
4.416891958E0,-1.848404270E-1,-3.847897670E-1,1.412738611E0,1.475825034E0
4.426912958E0,-2.432102573E-1,-1.460508755E-1,1.686662099E0,1.710354093E0
4.436933958E0,-2.836501855E-1,6.585718989E-2,1.184978013E0,1.220232555E0
4.446954958E0,-1.308472377E-1,1.893269956E-1,9.828245652E-1,1.009410638E0
4.456975958E0,2.964304447E-2,2.434649035E-1,6.711134456E-1,7.145258051E-1
4.466996958E0,2.043888384E-1,-1.110897884E-1,6.877772793E-2,2.425821803E-1
4.477017958E0,-1.312430942E-1,-4.700705302E-1,-1.494612640E-1,5.104211228E-1
4.487038958E0,-2.964187503E-1,-6.854457021E-2,-3.501717652E-1,4.638778921E-1
4.497059958E0,-9.106979907E-2,-3.792007059E-2,8.808172569E-2,1.322498788E-1
4.507080958E0,-5.031295180E-2,8.514540017E-2,1.340595518E-1,1.665926040E-1
4.517101958E0,1.592828321E-1,3.438218352E-1,-1.521142919E-1,4.083175637E-1
4.527122958E0,7.001046717E-2,4.026228976E-1,-1.166361648E-1,4.249831269E-1
4.537143958E0,1.274079055E-1,5.856179434E-1,-4.969612902E-1,7.785574314E-1
4.547164958E0,-7.048467636E-2,7.053788602E-2,-5.547532694E-1,5.636442787E-1
4.557185958E0,2.228023052E-2,1.550623119E-2,-4.825372325E-1,4.833001475E-1
4.567206958E0,-9.497106135E-2,2.394668698E-2,-2.342423826E-1,2.538945453E-1
4.577227958E0,1.551967978E-2,1.023540482E-1,-4.934962302E-1,5.042377821E-1
4.587248958E0,3.762683272E-1,2.571731159E-1,-5.885608470E-1,7.443921925E-1
4.597269958E0,9.450211465E-2,3.373980841E-1,1.797141731E-2,3.508433962E-1
4.607290958E0,2.262229264E-2,3.270151833E-1,3.298847044E-1,4.650533479E-1
4.617311958E0,9.510671675E-2,2.284974933E-1,1.394971700E-1,2.841053545E-1
4.627332958E0,-9.333325624E-2,1.928996444E-3,3.653568381E-1,3.770947320E-1
4.637353958E0,-1.247778279E-1,-1.098764911E-1,6.520921607E-1,6.729535911E-1
4.647374958E0,1.022455823E-1,4.986271620E-2,7.813277596E-1,7.895653979E-1
4.657395958E0,1.806462193E-1,2.856955415E-1,1.406001011E0,1.446061493E0
4.667416958E0,-3.729704976E-2,7.466815451E-1,1.815543942E0,1.963447021E0
4.677437958E0,3.201140070E-1,8.987512520E-1,1.855924228E0,2.086787371E0
4.687458958E0,8.626397252E-2,4.481265146E-1,1.777308560E0,1.834961734E0
4.697479958E0,-1.884855813E-1,2.358237621E-1,8.501535809E-1,9.021644929E-1
4.707500958E0,-5.385566282E-1,-1.155626160E-1,1.862235859E-2,5.511304313E-1
4.717521958E0,-8.736588031E-1,-5.003202233E-1,-4.999234897E-1,1.124065623E0
4.727542958E0,-9.320069987E-1,-1.020604010E0,-7.606607759E-1,1.577616686E0
4.737563958E0,-9.391715920E-1,-1.643928308E0,-1.122161814E0,2.200861354E0
4.747584958E0,-8.889995581E-1,-2.158898146E0,-1.480154961E0,2.764420396E0
4.757605958E0,-5.818552601E-1,-2.339461042E0,-1.597012150E0,2.891726356E0
4.767626958E0,-2.975238740E-1,-1.152991697E0,-1.108161387E0,1.626632094E0
4.777649167E0,-8.305268168E-2,-8.338626534E-2,-9.972864836E-3,1.181121298E-1
4.787670167E0,3.253373247E-1,6.267045736E-1,9.842121094E-1,1.211311881E0
4.797691167E0,5.526957804E-1,1.219313740E0,1.830026325E0,2.267420335E0
4.807712167E0,3.073659074E-1,1.647727244E0,2.242859192E0,2.799981470E0
4.817733167E0,4.337236530E-1,1.839241683E0,1.942719274E0,2.710181609E0
4.827754167E0,6.687869847E-1,1.749803550E0,1.371571435E0,2.321701250E0
4.837775167E0,5.116149974E-1,1.131513997E0,9.427927727E-1,1.559144651E0
4.847796167E0,-1.370359308E-1,6.221846759E-2,6.958056526E-1,7.118957018E-1
4.857817167E0,-4.424295723E-1,-6.596574345E-1,7.321883440E-1,1.080273867E0
4.867838167E0,-4.014593017E-1,-1.039513906E0,4.748238780E-1,1.211287103E0
4.877859167E0,-2.362356985E-1,-7.207318944E-1,8.302403033E-2,7.629906673E-1
4.887880167E0,-3.824915189E-1,-3.153257221E-1,-8.157377467E-2,5.023786955E-1
4.897901167E0,-6.732601047E-2,-1.105755258E-1,1.293070811E-1,1.829755716E-1
4.907922167E0,1.003873372E-1,-1.086944765E-1,5.747730394E-1,5.935117131E-1
4.917943167E0,-3.757537723E-2,-1.468861502E-1,8.130746323E-1,8.270899635E-1
4.927964167E0,2.338301539E-3,-3.669554669E-1,7.038140722E-1,7.937354916E-1
4.937985167E0,-2.728076935E-1,-2.723019093E-2,5.508485719E-1,6.153045344E-1
4.948006167E0,-1.985942477E-1,5.590435177E-2,4.587438887E-1,5.030019157E-1
4.958027167E0,1.035325545E-1,-3.761510906E-1,-4.118544817E-2,3.923071168E-1
4.968048167E0,3.705053115E-1,-3.688841709E-1,-6.322115544E-1,8.203908623E-1
4.978069167E0,4.448017877E-1,-1.366068621E0,-9.800939155E-1,1.739130872E0
4.988090167E0,4.288441515E-1,-2.681782774E0,-1.238215157E0,2.984801992E0
4.998111167E0,1.091871044E0,-4.569802223E0,-1.676740105E0,4.988660353E0
5.008132167E0,1.894264567E0,-6.233101480E0,-2.627490208E0,7.024492658E0
5.018153167E0,2.361728409E0,-5.922561119E0,-3.947113225E0,7.498946199E0
5.028174167E0,2.133201680E0,-4.256955720E0,-4.933919159E0,6.856805355E0
5.038195167E0,1.100990946E0,-2.322933887E0,-4.251530381E0,4.968270674E0
5.048216167E0,5.049538493E-1,-1.002577921E0,-4.110748140E0,4.261266378E0
5.058237167E0,1.517243704E0,-5.207024476E-1,-5.341733800E0,5.577390024E0
5.068258167E0,1.600979925E0,4.861097351E-1,-7.199818720E0,7.391672950E0
5.078279167E0,1.035505639E0,2.124938979E0,-7.796491994E0,8.146958022E0
5.088300167E0,5.866873991E-1,3.351333990E0,-7.291268588E0,8.046007659E0
5.098321167E0,3.522339320E-1,4.769788985E0,-6.564315841E0,8.121896218E0
5.108342167E0,2.363684303E-1,5.358909996E0,-4.719138649E0,7.144512297E0
5.118363167E0,1.260361487E-1,5.812042311E0,-2.259043116E0,6.236906023E0
5.128384167E0,-3.646475708E-1,5.810006896E0,2.740908650E-1,5.827887592E0
5.138405167E0,-5.924527538E-1,5.117676097E0,2.829660905E0,5.877804840E0
5.148426167E0,-5.672898459E-1,4.976481042E0,5.785567288E0,7.652448639E0
5.158447167E0,-3.931913388E-1,4.788258001E0,9.289986062E0,1.045876929E1
5.168468167E0,4.249528295E-1,4.926559854E0,1.199834034E1,1.297735519E1
5.178489167E0,1.221642394E0,4.647626617E0,1.141307732E1,1.238350424E1
5.188510167E0,1.593984316E0,4.196027733E0,1.188423894E1,1.270364396E1
5.198531167E0,2.033757498E0,3.761662349E0,1.101241558E1,1.181353334E1
5.208552167E0,2.275626404E0,3.464015098E0,8.784353936E0,9.713019623E0
5.218573167E0,2.810791063E0,3.548612614E0,7.592104910E0,8.839301717E0
5.228594167E0,3.180674230E0,3.611446794E0,5.477742959E0,7.291426776E0
5.238615167E0,3.501340215E0,3.393418740E0,4.114238927E0,6.379783382E0
5.248636167E0,3.747975771E0,2.831689011E0,2.806219710E0,5.471805378E0
5.258657167E0,3.922894058E0,2.098986551E0,2.049885288E0,4.898660228E0
5.268678167E0,3.970013845E0,1.520904353E0,2.115003390E0,4.748410189E0
5.278699167E0,3.867825565E0,1.260589236E0,2.774113233E0,4.923907397E0
5.288720167E0,3.666279058E0,1.196325120E0,4.062923763E0,5.601798410E0
5.298741167E0,3.481614048E0,1.031286581E0,5.392273039E0,6.500907392E0
5.308762167E0,3.295273225E0,6.526824372E-1,5.815225536E0,6.715777544E0
5.318783167E0,3.212711125E0,9.782220938E-2,5.939763043E0,6.753655822E0
5.328804167E0,3.116408653E0,-6.595147625E-1,5.309740174E0,6.191954726E0
5.338825167E0,2.866913223E0,-1.263634027E0,4.573873932E0,5.544031487E0
5.348846167E0,2.566616600E0,-1.338483504E0,4.090729612E0,5.011299993E0
5.358867167E0,2.238715855E0,-1.335513264E0,3.712808862E0,4.536561915E0
5.368888167E0,1.875851101E0,-1.570092447E0,3.574356735E0,4.331285458E0
5.378909167E0,1.720631499E0,-1.698698300E0,3.048604925E0,3.891033366E0
5.388930167E0,1.728526994E0,-1.592953890E0,2.314130319E0,3.298561323E0
5.398951167E0,1.752132788E0,-1.624059908E0,9.229584324E-1,2.561131032E0
5.408972167E0,1.162464479E0,-1.789498543E0,2.550555468E-3,2.133924836E0
5.418993167E0,6.798943555E-1,-1.542772647E0,2.364380121E-1,1.702441397E0
5.429014167E0,1.915512764E-1,-1.179017581E0,6.526147556E-1,1.361132016E0
5.439035167E0,-2.873526424E-1,-1.037516131E0,1.341205090E0,1.719837887E0
5.449056167E0,-5.870037335E-1,-9.419735777E-1,1.868685923E0,2.173447649E0
5.459077167E0,-7.692667079E-1,-9.628539117E-1,1.527417859E0,1.962616682E0
5.469098167E0,-1.004301388E0,-8.910566816E-1,1.198501453E0,1.799724707E0
5.479119167E0,-1.223937426E0,-7.225086439E-1,8.085208207E-1,1.635159772E0
5.489140167E0,-1.352967934E0,-5.150544758E-1,-1.657095069E-1,1.457142060E0
5.499161167E0,-1.410173584E0,-5.109899300E-1,-9.068107617E-1,1.752713896E0
5.509182167E0,-1.311307692E0,-9.348667257E-1,-1.569351751E0,2.248637048E0
5.519203167E0,-6.400069892E-1,-1.217232643E0,-2.433489532E0,2.795198662E0
5.529224167E0,-2.352100968E-2,-2.452200184E-1,-2.795647359E0,2.806480046E0
5.539245167E0,-4.153107709E-1,1.196747727E0,-2.528812011E0,2.828352586E0
5.549266167E0,-1.017954637E0,1.399253031E0,-1.999280268E0,2.644099521E0
5.559287167E0,-1.633433726E0,6.045468423E-1,-1.689475195E0,2.426501402E0
5.569308167E0,-1.868398824E0,-1.756336205E-1,-1.498856842E0,2.401735449E0
5.579329167E0,-1.931477417E0,-9.775199711E-1,-1.205454378E0,2.477755146E0
5.589350167E0,-2.010338815E0,-1.651351203E0,-8.739482403E-1,2.744486923E0
5.599371167E0,-2.184450771E0,-2.168147564E0,-7.004911727E-1,3.156481730E0
5.609392167E0,-2.286808035E0,-2.475690934E0,-4.329974288E-1,3.397943991E0
5.619413167E0,-2.246175733E0,-2.460844269E0,-2.071270895E-1,3.338257266E0
5.629434167E0,-2.029707717E0,-2.060672232E0,-8.607393801E-2,2.893698703E0
5.639455167E0,-1.714925201E0,-1.705353601E0,-1.117490619E-1,2.421092151E0
5.649476167E0,-1.398514236E0,-1.431082057E0,-3.702761006E-1,2.034930543E0
5.659497167E0,-1.154916893E0,-1.299021230E0,-6.733893281E-1,1.864066086E0
5.669518167E0,-9.219813627E-1,-9.638163634E-1,-7.299295646E-1,1.520456768E0
5.679539167E0,-1.046879058E0,-8.136418853E-1,-3.158578187E-1,1.362987543E0
5.689560167E0,-1.349429199E0,-9.365743319E-1,-4.392194510E-1,1.700307140E0
5.699581167E0,-1.415705050E0,-5.213194750E-1,-1.016102824E0,1.818917186E0
5.709602167E0,-6.669813645E-1,3.443299583E-1,-2.036856523E0,2.170762943E0
5.719623167E0,9.564407587E-2,1.685193425E0,-2.339795503E0,2.885076717E0
5.729644167E0,-6.376336044E-1,2.598628936E0,-1.260589528E0,2.957792237E0
5.739665167E0,-2.757256880E0,2.060128587E0,-1.808780614E0,3.888223580E0
5.749686167E0,-2.808808857E0,-4.118506810E-1,-4.154040340E0,5.031409278E0
5.759707167E0,-2.562799537E0,-1.685884127E0,-6.635431432E0,7.310204994E0
5.769728167E0,-2.508108190E0,-9.705398574E-1,-7.380632170E0,7.855334846E0
5.779748167E0,-2.333680485E0,-2.295599908E0,-2.330820027E0,4.018527783E0
5.789769167E0,-1.959920613E0,-1.561248972E0,-1.529096010E0,2.935459379E0
5.799790167E0,-1.811115991E0,-1.447031069E0,-1.672570894E0,2.858589415E0
5.809811167E0,-1.249625999E0,-1.172906875E0,2.863317186E-1,1.737602235E0
5.819832167E0,-6.098757023E-1,-6.623874995E-1,2.073868228E0,2.260892523E0
5.829853167E0,-4.301083195E-1,-3.160386439E-1,3.467711708E0,3.508546434E0
5.839874167E0,-4.249972683E-1,-1.886931574E-1,3.631001052E0,3.660655191E0
5.849895167E0,-2.211329252E-1,-2.556037232E-1,3.527183154E0,3.543339390E0
5.859916167E0,-2.161797488E-1,-9.933860984E-1,2.716994122E0,2.900966509E0
5.869937167E0,1.195872545E-2,-1.868960011E0,2.432541114E0,3.067639289E0
5.879958167E0,4.116638625E-1,-2.591749102E0,2.304126903E0,3.492224410E0
5.889979167E0,5.105209833E-1,-3.092891444E0,1.654139886E0,3.544402336E0
5.900000167E0,1.720689386E-1,-3.348470024E0,1.130346308E0,3.538296482E0
5.910021167E0,-1.987848669E-1,-3.100164503E0,6.813649303E-1,3.180376320E0
5.920042167E0,-5.925884092E-1,-2.979705428E0,7.128492630E-1,3.120570386E0
5.930063167E0,-6.724771625E-1,-2.632291649E0,5.436203170E-1,2.770687263E0
5.940084167E0,-9.423127162E-1,-2.775682626E0,5.910236943E-1,2.990263584E0
5.950105167E0,-1.572927323E0,-3.262625881E0,7.849132723E-1,3.706064874E0
5.960126167E0,-2.167250016E0,-3.491029819E0,5.796853584E-1,4.149734563E0
5.970147167E0,-2.974794937E0,-3.935286354E0,2.995592898E-1,4.942228179E0
5.980168167E0,-3.497445969E0,-4.294070045E0,-2.425366580E-1,5.543463708E0
5.990189167E0,-3.974359496E0,-4.094738463E0,-3.092779469E-1,5.714723907E0
6.000210167E0,-4.054813090E0,-3.129893209E0,2.940605682E-1,5.130712652E0
6.010231167E0,-3.454806903E0,-2.359219369E0,1.509192088E0,4.447388843E0
6.020252167E0,-2.457210517E0,-1.039085889E0,3.136079271E0,4.117350629E0
6.030273167E0,-1.622868977E0,5.337893933E-1,4.995230139E0,5.279295310E0
6.040294167E0,-1.339999979E0,3.074841966E0,6.125762973E0,6.983926192E0
6.050315167E0,-1.775840909E0,8.373826772E0,7.566094156E0,1.142455104E1
6.060336167E0,-1.274926901E-1,7.411895478E0,6.819363787E0,1.007254543E1
6.070357167E0,-2.130393262E0,1.095671500E1,5.505082201E0,1.244564619E1
6.080378167E0,-2.969168161E0,1.358324217E1,4.875756905E0,1.473409084E1
6.090399167E0,-2.041285788E0,6.037606257E0,3.932280593E0,7.488816171E0
6.100420167E0,-4.585701095E0,-1.363126302E0,2.606119219E0,5.447809214E0
6.110441167E0,-5.112155156E0,-1.023470315E0,-4.382213897E0,6.810684288E0
6.120462167E0,-4.653585514E0,-2.774055346E0,-3.640758301E0,6.527354917E0
6.130483167E0,-4.355961068E0,-3.834277458E0,5.942876101E-1,5.833460227E0
6.140504167E0,-4.512068862E0,-3.375761318E0,-6.551594639E-1,5.673073578E0
6.150525167E0,-4.432392363E0,-1.501501245E0,-3.376153082E0,5.770530104E0
6.160546167E0,-4.099710351E0,5.167909527E-1,-5.278595565E0,6.703601195E0
6.170567167E0,-3.322214271E0,2.204987946E0,-6.035747427E0,7.233901196E0
6.180588167E0,-2.536897541E0,3.564028798E0,-6.839777001E0,8.119156350E0
6.190609167E0,-1.731649407E0,4.277316602E0,-7.099694508E0,8.467568074E0
6.200630167E0,-1.220933127E0,5.013443046E0,-6.472356681E0,8.277480890E0
6.210651167E0,-5.946203166E-1,6.279918382E0,-6.868457009E0,9.325591128E0
6.220672167E0,8.796726644E-2,7.691367243E0,-7.769098374E0,1.093269216E1
6.230693167E0,4.341885066E-1,8.292335297E0,-7.667533407E0,1.130231892E1
6.240714167E0,5.619221020E-1,6.279050655E0,-6.048381506E0,8.736426753E0
6.250735167E0,-4.444989020E-1,1.990871095E0,-4.531565233E0,4.969530205E0
6.260756167E0,-1.320517641E0,-4.127555376E-1,-2.058024613E0,2.479838559E0
6.270777167E0,-1.960262091E0,-2.055401552E0,2.795442706E-1,2.854023126E0
6.280798167E0,-2.019853404E0,-3.175186034E0,1.928790622E0,4.228693343E0
6.290819167E0,-1.596817877E0,-3.000346684E0,2.681996198E0,4.329550919E0
6.300840167E0,-8.309934247E-1,-1.680707880E0,3.354726545E0,3.843113222E0
6.310861167E0,5.689130330E-1,-1.721700954E-1,2.379757714E0,2.452865948E0
6.320882167E0,1.692436810E0,7.016717255E-2,4.418343258E-1,1.750566582E0
6.330903167E0,2.403758780E0,-3.942298043E-1,-1.007136703E0,2.635867551E0
6.340924167E0,3.044729975E0,-1.518465187E0,-1.996458110E0,3.944865286E0
6.350945167E0,2.816058235E0,-1.221136025E0,-2.118910500E0,3.729763917E0
6.360966167E0,1.823716156E0,-1.898300316E0,-1.437095919E0,2.999121436E0
6.370987167E0,3.716004950E-1,-3.925747499E0,-1.240776238E0,4.133897196E0
6.381008167E0,-7.734416199E-1,-5.367439914E0,-1.073538269E0,5.528119715E0
6.391029167E0,-1.646485296E0,-5.801562347E0,-1.018702496E0,6.116109406E0
6.401050167E0,-2.273594497E0,-6.255201616E0,-1.018376221E0,6.733043095E0
6.411071167E0,-2.755325544E0,-6.508052178E0,-1.149419925E0,7.160148614E0
6.421092167E0,-3.000853638E0,-6.723524414E0,-1.020514548E0,7.433192655E0
6.431113167E0,-2.924736339E0,-6.836791413E0,-4.985453010E-1,7.452807987E0
6.441134167E0,-2.469531770E0,-6.514687598E0,-2.474345782E-1,6.971439273E0
6.451155167E0,-1.897875223E0,-5.932622423E0,8.310618371E-2,6.229353563E0
6.461176167E0,-1.406265305E0,-4.727408951E0,7.107604913E-1,4.983087193E0
6.471197167E0,-1.092242342E0,-3.268091274E0,9.714100693E-1,3.580090981E0
6.481218167E0,-4.232255620E-1,-2.327169610E0,1.166647431E0,2.637404879E0
6.491239167E0,2.987857032E-1,-1.384674461E0,1.208430026E0,1.861961167E0
6.501260167E0,1.015211708E0,-2.924069756E-1,8.531613886E-1,1.357954714E0
6.511281167E0,1.110343568E0,-6.503565609E-2,2.794245489E-1,1.146808857E0
6.521302167E0,4.570312393E-1,-4.239833611E-1,4.203049508E-1,7.518614872E-1
6.531323167E0,2.672469914E-2,-1.037319446E0,1.491860356E0,1.817248789E0
6.541344167E0,-5.783983862E-1,-1.016080604E0,3.225743984E0,3.431091479E0
6.551365167E0,-1.029830917E0,-5.357137120E-1,4.013881996E0,4.178371641E0
6.561386167E0,-1.270241527E0,-3.731546849E-1,3.936010532E0,4.152702357E0
6.571407167E0,-1.629119650E0,-1.546073985E-1,3.084010400E0,3.491282634E0
6.581428167E0,-2.058743820E0,9.196693736E-1,2.629483523E0,3.463870880E0
6.591449167E0,-2.315833613E0,1.602734674E0,2.747231244E0,3.934351696E0
6.601470167E0,-2.173901224E0,2.142708668E0,2.665478983E0,4.052385122E0
6.611491167E0,-2.039871347E0,2.060919569E0,1.776332075E0,3.400561751E0
6.621512167E0,-2.332720957E0,1.354287651E0,5.159360898E-1,2.746246921E0
6.631533167E0,-2.448643177E0,7.499141783E-1,-3.622325246E-1,2.586394611E0
6.641554167E0,-2.752614191E0,5.828142035E-1,-4.129332930E-1,2.843777625E0
6.651575167E0,-2.750749514E0,8.109474152E-2,-5.409773755E-1,2.804613300E0
6.661596167E0,-2.957787141E0,-4.220444244E-1,-5.080976048E-1,3.030641754E0
6.671617167E0,-2.732209162E0,-1.184606130E0,-8.133307403E-1,3.087031824E0
6.681638167E0,-1.411400914E0,-9.928180414E-1,-9.725472066E-1,1.980804956E0
6.691659167E0,1.621373259E0,8.007636121E-1,1.177256180E0,2.157777959E0
6.701680167E0,6.670144013E0,7.427782363E-1,1.226617205E0,6.822545744E0
6.711701167E0,8.017148371E0,-3.015072897E0,1.680362309E0,8.728628190E0
6.721722167E0,1.279020420E1,-4.701005556E0,-8.725147954E0,1.618075967E1
6.731743167E0,1.390321468E1,-1.219635045E0,-1.478844220E1,2.033432838E1
6.741764167E0,1.065588394E0,-1.765664999E0,-3.285955687E0,3.879504646E0
6.751785167E0,1.387792781E0,-1.394569704E0,1.939981023E0,2.763027295E0
6.761806167E0,8.874009293E-1,7.187283459E-1,4.552878335E0,4.693905833E0
6.771827167E0,-1.217501396E0,3.395859953E0,4.403889818E0,5.692839361E0
6.781848417E0,-2.373020552E0,4.250511796E0,2.269152075E0,5.370952263E0
6.791869417E0,-1.061262624E0,3.975974204E0,6.176492831E-1,4.161266618E0
6.801890417E0,-8.972078794E-1,4.145969428E0,-9.475439277E-1,4.346479492E0
6.811911417E0,-3.708239847E-1,4.499664579E0,-1.890190812E0,4.894620829E0
6.821932417E0,1.013731778E-1,4.732773479E0,-3.275100039E0,5.756361836E0
6.831953417E0,4.886518121E-3,4.325458483E0,-3.865743079E0,5.801170961E0
6.841974417E0,-7.722862101E-1,3.747924900E0,-3.412057325E0,5.126938876E0
6.851995417E0,-1.064507829E0,3.516078999E0,-2.710023072E0,4.565108267E0
6.862016417E0,-1.385203049E0,3.083269558E0,-1.315947750E0,3.627265793E0
6.872037417E0,-1.483278982E0,2.791340300E0,-5.799172005E-1,3.213720767E0
6.882058417E0,-1.285354241E0,2.424969847E0,-3.029878047E-1,2.761234487E0
6.892079417E0,-1.076705121E0,2.178907025E0,-5.798227680E-1,2.498624459E0
6.902100417E0,-8.473223591E-1,2.058638716E0,-1.079038452E0,2.473918456E0
6.912121417E0,-5.558117616E-1,1.764855014E0,-1.345626755E0,2.287870472E0
6.922142417E0,-4.713972634E-1,1.071977793E0,-1.611507544E0,1.992061328E0
6.932163417E0,-4.449713570E-1,1.422460192E-1,-1.766848768E0,1.827563408E0
6.942184417E0,-2.232718366E-1,-2.956424593E-1,-1.768448566E0,1.806838429E0
6.952205417E0,3.226850277E-1,6.770344824E-2,-7.538519856E-1,8.228014343E-1
6.962226417E0,1.090007536E0,9.946365255E-1,5.865415111E-1,1.587907173E0
6.972247417E0,1.703676327E0,1.608277981E0,1.503272659E0,2.783684569E0
6.982268417E0,2.092633113E0,1.849831283E0,2.045199915E0,3.461767152E0
6.992288417E0,2.356919659E0,1.841204009E0,2.213558210E0,3.720879255E0
7.002310417E0,2.540472529E0,1.604507842E0,2.055636902E0,3.640616591E0
7.012330417E0,2.522518069E0,1.065614122E0,1.438615025E0,3.093257838E0
7.022351417E0,2.280931583E0,2.558445372E-1,7.834663787E-1,2.425268002E0
7.032372417E0,1.947675959E0,-4.454565297E-1,2.358980218E-1,2.011845182E0
7.042393417E0,1.553997547E0,-9.461355527E-1,-1.172700030E-1,1.823138260E0
7.052414417E0,1.124920676E0,-1.082055835E0,-1.826298872E-1,1.571510431E0
7.062435417E0,3.539366412E-1,-8.773776323E-1,-2.142185926E-2,9.463200049E-1
7.072456417E0,-6.149785674E-1,-4.549182017E-1,9.360866010E-2,7.706567263E-1
7.082477417E0,-1.398172174E0,-2.801058409E-2,5.304506332E-2,1.399458395E0
7.092498417E0,-1.717560541E0,5.227645778E-1,1.558797526E-1,1.802108630E0
7.102519417E0,-2.020516478E0,9.968907002E-1,-1.685942307E-1,2.259358741E0
7.112540417E0,-2.153621911E0,1.460625114E0,-3.570198780E-1,2.626590233E0
7.122561417E0,-2.146485969E0,1.368742991E0,-8.139028904E-1,2.672694765E0
7.132582417E0,-1.741655747E0,1.471642877E0,-6.537882918E-1,2.372032173E0
7.142603417E0,-9.244728613E-1,1.999008227E0,5.383955374E-1,2.267278923E0
7.152624417E0,-2.920064414E-1,2.286771782E0,1.008072258E0,2.516108627E0
7.162645417E0,6.656060994E-2,2.335998321E0,1.871400200E0,2.993903335E0
7.172666417E0,3.894497055E-1,1.842363366E0,2.005019457E0,2.750650262E0
7.182687417E0,6.797546071E-1,1.229306778E0,1.296682636E0,1.911713195E0
7.192708417E0,8.358729261E-1,6.441646519E-1,7.549977475E-1,1.297556645E0
7.202729417E0,9.034614766E-1,3.260074522E-1,1.663836908E-1,9.747856334E-1
7.212750417E0,8.104726213E-1,3.382347476E-1,-4.133352891E-1,9.706259195E-1
7.222771417E0,6.373938686E-1,6.166867583E-1,-6.962959416E-1,1.127564428E0
7.232792417E0,2.551520258E-1,9.754275450E-1,-7.146367568E-1,1.235826503E0
7.242813417E0,-1.148404849E-1,1.303919443E0,-5.837750472E-1,1.433243718E0
7.252834417E0,-4.717305547E-1,1.541105752E0,-4.711312151E-1,1.679137063E0
7.262855417E0,-7.228579420E-1,1.614180453E0,-3.586687928E-1,1.804645517E0
7.272876417E0,-8.040354216E-1,1.560364873E0,-3.448582542E-1,1.788893152E0
7.282897417E0,-8.155696392E-1,1.392290313E0,-3.502354999E-1,1.651148406E0
7.292918417E0,-7.517350012E-1,1.255266077E0,-4.605761138E-1,1.533925941E0
7.302939417E0,-8.809227991E-1,1.037251252E0,-5.933950326E-1,1.484598533E0
7.312960417E0,-9.428471518E-1,8.944769374E-1,-6.670094311E-1,1.460805026E0
7.322981417E0,-9.501117325E-1,7.816939415E-1,-7.672711994E-1,1.449987178E0
7.333002417E0,-8.622397757E-1,6.900927767E-1,-8.897035629E-1,1.418188246E0
7.343023417E0,-7.299459368E-1,5.528827451E-1,-8.862651077E-1,1.274349340E0
7.353044417E0,-5.660169071E-1,5.097180875E-1,-7.112262221E-1,1.042127827E0
7.363065417E0,-3.652825785E-1,5.826083815E-1,-5.743633689E-1,8.959671690E-1
7.373086417E0,-2.802324879E-1,7.883990899E-1,-4.659244157E-1,9.576998138E-1
7.383107417E0,-4.784443277E-1,8.208431699E-1,-1.893709959E-1,9.687898938E-1
7.393128417E0,-6.814467913E-1,8.018733405E-1,1.288046591E-1,1.060170375E0
7.403149417E0,-9.664184475E-1,6.969533879E-1,3.087796180E-1,1.230875092E0
7.413170417E0,-1.080391206E0,6.187134764E-1,5.096542798E-1,1.345287704E0
7.423191417E0,-9.023715556E-1,5.421096888E-1,7.495294315E-1,1.292266113E0
7.433212417E0,-4.267876858E-1,5.995968088E-1,1.265661549E0,1.464091260E0
7.443233417E0,2.960369271E-1,7.510321659E-1,1.837929130E0,2.007403961E0
7.453254417E0,1.284777705E0,1.087662657E0,2.267155982E0,2.823766997E0
7.463275417E0,2.249837260E0,1.686398828E0,2.659897231E0,3.870498932E0
7.473296417E0,2.882347534E0,2.294701630E0,3.392432899E0,5.008211642E0
7.483317417E0,3.000324465E0,2.213362913E0,3.915819804E0,5.406899945E0
7.493338417E0,2.680874702E0,1.355445692E0,4.618687577E0,5.509682126E0
7.503359417E0,2.188269002E0,3.186551267E-1,4.715686453E0,5.208431726E0
7.513380417E0,1.569554064E0,-4.895992072E-1,4.071651317E0,4.391076382E0
7.523401417E0,1.402796152E0,-8.636675195E-1,3.107600407E0,3.517234555E0
7.533422417E0,1.176865586E0,-5.669533387E-1,2.230167372E0,2.584588014E0
7.543443417E0,9.236244303E-1,3.123145522E-1,2.330660398E0,2.526380882E0
7.553464417E0,7.234356469E-1,-1.087677129E-1,1.806686141E0,1.949180433E0
7.563485417E0,7.097759664E-2,-1.308851277E0,1.231605465E0,1.798605433E0
7.573506417E0,-6.244703525E-1,-3.344220852E0,-3.301560882E-1,3.418008100E0
7.583527417E0,-1.161135991E0,-4.738906331E0,-1.128268134E0,5.007839753E0
7.593548417E0,-2.502887796E0,-7.534211043E0,-1.962669974E0,8.178071704E0
7.603569417E0,-2.426266467E0,-6.556798661E0,-1.585139818E0,7.168754835E0
7.613590417E0,-1.191954911E0,-3.236356388E0,-2.765656990E-1,3.459949099E0
7.623611417E0,1.660790509E-1,1.072626834E0,4.035011494E-1,1.157982622E0
7.633632417E0,4.892821419E-1,2.665310875E0,1.382146710E0,3.041974458E0
7.643653417E0,7.497487020E-1,1.354455173E0,6.050008786E-1,1.662136576E0
7.653674417E0,1.094016972E0,1.368042933E0,-3.623823595E-1,1.788780472E0
7.663695417E0,4.563085234E-1,2.895603172E0,-5.462779130E-1,2.981803943E0
7.673716417E0,9.864603639E-2,3.761345429E0,-2.654928267E-1,3.771993759E0
7.683737417E0,-4.257673466E-1,3.723216321E0,4.620224956E-1,3.775855187E0
7.693758417E0,-1.304830146E0,2.659867995E0,9.396802267E-1,3.108131012E0
7.703779417E0,-2.149575638E0,1.407325990E0,1.392198073E0,2.922234990E0
7.713800417E0,-2.798628854E0,8.353997402E-1,1.625513672E0,3.342530611E0
7.723821417E0,-3.068337523E0,7.086674805E-1,2.134914914E0,3.804571782E0
7.733842417E0,-2.631923566E0,1.000596446E0,3.190316874E0,4.255154129E0
7.743863417E0,-1.957457766E0,9.480181369E-1,4.870485055E0,5.334041992E0
7.753884417E0,-1.332604421E0,3.554545784E-1,6.595290881E0,6.737955499E0
7.763905417E0,-8.889978039E-1,-6.735470568E-1,7.849284166E0,7.928129959E0
7.773926417E0,-7.584060895E-1,-1.304703847E0,8.167290251E0,8.305544050E0
7.783947292E0,-1.737622338E0,-1.046180462E0,7.611856804E0,7.877448125E0
7.793968292E0,-3.238524243E0,-2.439224482E-2,6.568157462E0,7.323204674E0
7.803989292E0,-3.212932150E0,-3.097230662E-1,5.260337634E0,6.171710735E0
7.814010292E0,-2.992221394E0,-6.796651447E-1,3.606005375E0,4.734829283E0
7.824031292E0,-1.816016543E0,-8.391422506E-1,1.757094736E0,2.662603559E0
7.834052292E0,2.759757149E-1,8.587535195E-2,-1.382293475E-1,3.203818406E-1
7.844073292E0,1.613619851E0,8.563854703E-1,-2.065636518E0,2.757538635E0
7.854094292E0,2.731023932E0,1.480456385E0,-3.765884038E0,4.881815790E0
7.864115292E0,2.587992266E0,1.759365794E0,-5.106558786E0,5.989158088E0
7.874136292E0,1.398240586E0,1.977455536E0,-4.914862499E0,5.479167867E0
7.884157292E0,7.772756392E-1,2.599285286E0,-3.797843750E0,4.667339559E0
7.894178292E0,1.004627663E-1,2.865984978E0,-2.648037323E0,3.903340150E0
7.904199292E0,-1.671502608E-1,3.095736991E0,-1.597524220E0,3.487636788E0
7.914220292E0,7.615822971E-2,3.465805223E0,-3.395232546E-1,3.483228669E0
7.924241292E0,9.162230247E-1,2.796256639E0,1.264088502E0,3.202567027E0
7.934262292E0,1.880533551E0,1.262457860E0,2.310365882E0,3.235428378E0
7.944283292E0,2.988137698E0,-2.283812799E-2,3.404813794E0,4.530148502E0
7.954304292E0,4.380389566E0,-5.347216588E-1,4.484498071E0,6.291618468E0
7.964325292E0,4.881805850E0,-1.446047494E-1,5.842646053E0,7.615080551E0
7.974346292E0,5.921598668E0,1.123428613E0,7.913707033E0,9.947571645E0
7.984367292E0,7.498651201E0,3.584990482E0,7.411192058E0,1.113587420E1
7.994388292E0,8.722444201E0,1.937601645E0,3.116141435E0,9.462857413E0
8.004408292E0,8.161926600E0,-7.644940643E-1,1.329301913E0,8.304730013E0
8.014430292E0,3.646120782E0,-2.545857230E0,-8.340673059E-1,4.524516998E0
8.024451292E0,1.451911594E0,-1.883551884E0,-3.479617808E0,4.214683270E0
8.034471292E0,2.655494862E0,-7.057216533E-2,-5.090124602E0,5.741602725E0
8.044492292E0,3.167389356E0,-1.248099875E-1,-6.419613626E0,7.159565069E0
8.054513292E0,3.878178645E0,3.348696019E-1,-5.699169999E0,6.901662549E0
8.064534292E0,4.704888400E0,-3.819787911E-1,-4.257008053E0,6.356414100E0
8.074555292E0,6.372886187E0,-1.195926413E0,-1.978394891E0,6.779230390E0
8.084576292E0,8.351940644E0,-1.899910347E0,3.802993977E-1,8.573750607E0
8.094597292E0,6.810098289E0,-1.889846704E0,3.253320038E0,7.780298872E0
8.104618292E0,2.400773776E0,-2.171017231E0,5.814801612E0,6.654994240E0
8.114639292E0,2.267349671E0,-2.218480542E0,6.559677245E0,7.286418599E0
8.124660292E0,1.512964711E0,-2.639883966E0,6.241957088E0,6.944067818E0
8.134681292E0,3.736575454E-1,-2.553736353E0,6.694567248E0,7.174846337E0
8.144702292E0,-1.496497198E0,-2.634137907E0,6.539419566E0,7.207093356E0
8.154723292E0,-3.076251145E0,-2.401557595E0,4.473896484E0,5.936880472E0
8.164744292E0,-5.231719022E0,-7.477570673E-1,3.000573556E0,6.077291027E0
8.174765292E0,-6.971659196E0,6.388103566E-1,1.847024620E0,7.240415082E0
8.184786292E0,-9.393525633E0,2.433997071E0,-2.343630692E0,9.982748639E0
8.194807292E0,-1.217037829E1,4.589805256E0,-6.637256348E0,1.460265701E1
8.204828292E0,-1.374917563E1,6.496447209E0,-7.176194800E0,1.681491685E1
8.214849292E0,-1.424627199E1,7.807314606E0,-4.973739282E0,1.698965890E1
8.224870292E0,-1.050160633E1,1.161416073E1,-1.440192604E0,1.572407770E1
8.234891292E0,-7.672344496E0,1.077736687E1,5.887842107E-1,1.324247611E1
8.244912292E0,-1.000282480E1,7.640404081E0,3.299580284E0,1.301228299E1
8.254933292E0,-9.733660507E0,7.043949493E0,4.104762930E0,1.269686772E1
8.264954292E0,-8.454717738E0,6.359873208E0,2.673235899E0,1.091221469E1
8.274975292E0,-7.842123665E0,5.453527300E0,1.940963209E0,9.747163781E0
8.284996292E0,-7.523048708E0,4.638144187E0,1.569652444E0,8.976215916E0
8.295017292E0,-6.817279254E0,4.686196021E0,8.320014846E-1,8.314322344E0
8.305038292E0,-6.424950380E0,4.282387600E0,-1.743674791E-1,7.723291718E0
8.315059292E0,-5.669039882E0,4.124180071E0,-6.794673626E-1,7.043333752E0
8.325080292E0,-4.964748604E0,3.673797408E0,-8.711121945E-1,6.237335373E0
8.335101292E0,-4.598338097E0,2.964478402E0,-6.394349854E-1,5.508332103E0
8.345122292E0,-4.163664857E0,2.289189752E0,-1.178556016E-1,4.752934325E0
8.355143292E0,-3.673369977E0,1.739946460E0,-2.814349678E-1,4.074342439E0
8.365164292E0,-3.083511633E0,1.338345363E0,-1.454195224E0,3.662498607E0
8.375185292E0,-2.015294915E0,4.298607630E-1,-2.325509293E0,3.107118817E0
8.385206292E0,-6.018907446E-1,-8.005439030E-1,-2.694761839E0,2.874871193E0
8.395227292E0,6.893475491E-1,-1.791331645E0,-1.316450318E0,2.327468699E0
8.405248292E0,2.494059085E0,-2.831321222E0,1.002450891E0,3.904051533E0
8.415269292E0,4.318781548E0,-3.982455843E0,3.834709275E0,7.015470320E0
8.425290292E0,7.470606201E0,-5.596018683E0,6.235297694E0,1.122516456E1
8.435311292E0,1.093635032E1,-6.369988307E0,7.845798640E0,1.489083831E1
8.445332292E0,1.221272382E1,-5.634160656E0,9.235918028E0,1.631553160E1
8.455353292E0,1.147223711E1,-3.505382980E0,8.423029922E0,1.465767264E1
8.465374292E0,8.965408875E0,-1.244457206E0,6.846997143E0,1.134938765E1
8.475395292E0,6.702187924E0,2.493500530E-1,4.282201366E0,7.957307771E0
8.485416292E0,4.475759407E0,1.427278882E0,2.323322289E0,5.240932525E0
8.495437292E0,3.239722338E0,2.119192774E0,5.530062675E-1,3.910574737E0
8.505458292E0,2.488839276E0,2.108997715E0,-7.855149508E-1,3.355477021E0
8.515479292E0,1.807831026E0,1.652673258E0,-1.406856458E0,2.824681754E0
8.525500292E0,1.546141813E0,1.247804006E0,-1.880318373E0,2.735537704E0
8.535521292E0,2.376732949E0,8.150279678E-1,-2.551720233E0,3.581118016E0
8.545542292E0,4.305935215E0,9.322718044E-1,-2.438892360E0,5.035712932E0
8.555563292E0,5.176789693E0,4.542639714E-1,-2.419229343E0,5.732205326E0
8.565584292E0,5.438052644E0,1.433914156E-1,-2.352997931E0,5.927020915E0
8.575605292E0,5.275331649E0,-2.798404321E-2,-1.810790302E0,5.577532486E0
8.585626292E0,3.739869191E0,-4.064860068E-1,-9.075241220E-1,3.869812976E0
8.595647292E0,2.222710272E0,-6.347252724E-1,-5.169395451E-1,2.368658612E0
8.605668292E0,1.163419914E0,-7.377714117E-1,-3.507768790E-1,1.421582558E0
8.615689292E0,5.492570329E-1,-7.576740181E-1,-6.177734634E-1,1.121337263E0
8.625710292E0,2.273403293E-1,-6.443323939E-1,-8.338514706E-1,1.078033457E0
8.635731292E0,6.523387671E-2,-3.879789115E-1,-9.508425613E-1,1.029021220E0
8.645752292E0,7.217803001E-2,-6.677578747E-2,-9.891956183E-1,9.940707445E-1
8.655773292E0,1.640956753E-1,3.914379781E-1,-9.699852490E-1,1.058783483E0
8.665794292E0,1.633928400E-1,9.693445404E-1,-8.206965510E-1,1.280573655E0
8.675815292E0,-6.102622032E-2,1.554099873E0,-3.027091849E-1,1.584482081E0
8.685836292E0,-5.357482105E-1,1.918884561E0,1.523820944E-1,1.998090190E0
8.695857292E0,-9.823000699E-1,1.931033468E0,5.711022305E-1,2.240527045E0
8.705878292E0,-1.677905309E0,2.102873341E0,9.151441403E-1,2.841642362E0
8.715899292E0,-2.201053355E0,1.968793324E0,9.514624393E-1,3.102589853E0
8.725920292E0,-2.590346940E0,1.814207122E0,8.571363258E-1,3.276572513E0
8.735941292E0,-2.748061548E0,1.995851461E0,8.774343503E-1,3.507870632E0
8.745962292E0,-2.968213311E0,2.152845693E0,1.100453002E0,3.828319690E0
8.755983292E0,-3.404645979E0,2.089014271E0,1.305210800E0,4.202281535E0
8.766004292E0,-3.753714813E0,1.839277644E0,1.437391788E0,4.420340745E0
8.776025292E0,-4.117894607E0,1.581069717E0,1.558478561E0,4.678214709E0
8.786045917E0,-4.614109792E0,1.214344411E0,1.533932827E0,5.011745349E0
8.796066917E0,-4.752039762E0,7.015176514E-1,1.555926690E0,5.049249130E0
8.806087917E0,-4.879421940E0,2.823263028E-1,1.649008369E0,5.158264748E0
8.816108917E0,-4.949537072E0,-1.837962240E-1,1.942727022E0,5.320327674E0
8.826129917E0,-4.857406003E0,-6.844046784E-1,2.295611164E0,5.415960992E0
8.836150917E0,-4.601036587E0,-1.253858360E0,2.492436483E0,5.380886366E0
8.846170917E0,-4.177899903E0,-1.800989199E0,2.306554813E0,5.100843538E0
8.856191917E0,-3.717539844E0,-2.324927349E0,1.962232018E0,4.803721907E0
8.866212917E0,-3.197423580E0,-2.748040498E0,1.539115798E0,4.488220312E0
8.876233917E0,-2.577079023E0,-2.984410098E0,9.628212404E-1,4.058948714E0
8.886254917E0,-1.950691368E0,-3.015697672E0,8.011185381E-1,3.679866869E0
8.896275917E0,-1.272454113E0,-2.946259063E0,1.118464766E0,3.398609328E0
8.906296917E0,-5.333075827E-1,-2.898526487E0,1.566751932E0,3.337751397E0
8.916317917E0,1.989059043E-1,-2.873522623E0,1.961821543E0,3.485030788E0
8.926338917E0,1.029746717E0,-2.899339250E0,2.184384259E0,3.773338174E0
8.936359917E0,2.171890367E0,-3.191763475E0,1.869012197E0,4.289250335E0
8.946380917E0,2.790780137E0,-2.859619114E0,1.861754633E0,4.408174856E0
8.956401917E0,3.005806814E0,-2.667067964E0,1.840533772E0,4.419919761E0
8.966422917E0,2.532875242E0,-2.229821217E0,2.074897338E0,3.961408665E0
8.976443917E0,1.919081905E0,-1.529038707E0,1.889721866E0,3.097076598E0
8.986464917E0,1.981027892E0,-7.613093783E-1,9.858207516E-1,2.340065391E0
8.996485917E0,2.682786157E0,-1.293100047E-1,9.506754041E-2,2.687582645E0
9.006506917E0,3.484723597E0,3.762238884E-1,5.478128437E-1,3.547526163E0
9.016527917E0,4.933491728E0,1.150585568E0,2.777427800E-1,5.073492764E0
9.026548917E0,6.447652194E0,2.666225672E0,-1.488738527E0,7.134235808E0
9.036569917E0,7.519957286E0,4.547244542E0,-3.869916530E0,9.602262465E0
9.046590917E0,8.510141156E0,6.467529219E0,-4.988639742E0,1.179567561E1
9.056611917E0,8.766418771E0,7.762134340E0,-4.286372770E0,1.246891411E1
9.066632917E0,7.871839800E0,6.670215349E0,-2.851193569E0,1.070452892E1
9.076653917E0,6.229369787E0,4.348262917E0,-1.805514944E0,7.808477607E0
9.086674917E0,5.693712208E0,2.959973415E0,-1.162399575E0,6.521577577E0
9.096695917E0,5.068943063E0,2.208181111E0,-1.086379924E0,5.634755446E0
9.106716917E0,4.446906322E0,1.935951414E0,-1.135774790E0,4.981251658E0
9.116737917E0,3.721607167E0,1.686778167E0,-8.802199638E-1,4.179756892E0
9.126758917E0,2.826227127E0,1.093325539E0,-3.067484415E-1,3.045819285E0
9.136779917E0,1.731665195E0,2.395267672E-1,4.036924995E-2,1.748618625E0
9.146800917E0,4.534030420E-1,-1.018371470E0,2.976326323E-1,1.153793722E0
9.156821917E0,-4.562173069E-1,-1.139037024E0,4.617078424E-1,1.310997218E0
9.166842917E0,-1.487517044E0,-1.280852469E0,3.667595851E-1,1.996948321E0
9.176863917E0,-2.812983769E0,-1.596045021E0,1.302490675E-1,3.236850662E0
9.186884917E0,-3.711945228E0,-1.113149354E0,-2.668716002E-1,3.884438095E0
9.196905917E0,-4.497347912E0,-6.090716005E-1,-2.526511717E-1,4.545430571E0
9.206926917E0,-5.225670077E0,-3.311360085E-1,2.057939243E-1,5.240193694E0
9.216947917E0,-6.042553001E0,-1.753293643E-1,4.482088141E-1,6.061689393E0
9.226968917E0,-6.682575193E0,-8.573058768E-2,5.147127061E-1,6.702916538E0
9.236989917E0,-6.977597628E0,1.278366525E-1,2.784373927E-1,6.984320887E0
9.247010917E0,-7.080838407E0,6.240301303E-1,-1.540893352E-1,7.109952860E0
9.257031917E0,-6.874133486E0,1.347920617E0,-5.930870305E-1,7.030103371E0
9.267052917E0,-6.666569610E0,1.967574180E0,-6.953393371E-1,6.985556192E0
9.277073917E0,-6.627387418E0,2.259663506E0,-5.066239603E-1,7.020328410E0
9.287094917E0,-6.610302438E0,2.172591009E0,-8.258008048E-2,6.958668658E0
9.297115917E0,-6.759413454E0,1.879087535E0,3.085306728E-1,7.022523149E0
9.307136917E0,-7.063113742E0,1.644998641E0,6.198035435E-1,7.278581778E0
9.317157917E0,-7.394954340E0,1.580487773E0,1.027396574E0,7.631437283E0
9.327178917E0,-7.006518542E0,1.499847506E0,9.812117569E-1,7.232124247E0
9.337199917E0,-6.201259882E0,1.317453993E0,9.093320811E-1,6.404544791E0
9.347220917E0,-5.284426993E0,9.507354111E-1,8.825320990E-1,5.441316879E0
9.357241917E0,-4.054939390E0,5.455295791E-1,2.700912233E-1,4.100376232E0
9.367262917E0,-2.534099064E0,-1.505334241E-1,-3.987111104E-1,2.569686543E0
9.377283917E0,-8.855847842E-1,-1.070914112E0,-8.548242637E-1,1.631515236E0
9.387304917E0,5.571180296E-1,-1.867296917E0,-6.101019895E-1,2.041911534E0
9.397325917E0,1.773423085E0,-2.411059467E0,1.620661068E-1,2.997415990E0
9.407346917E0,2.616703264E0,-2.433364110E0,1.046159412E0,3.723284354E0
9.417367917E0,2.797716689E0,-1.913425308E0,1.748591130E0,3.813920033E0
9.427388917E0,2.699173563E0,-9.326479997E-1,2.041720237E0,3.510554335E0
9.437409917E0,2.455575635E0,3.690886773E-2,1.997284906E0,3.165495374E0
9.447430917E0,1.845052062E0,6.933860017E-1,1.954639993E0,2.775899631E0
9.457451917E0,1.599842057E0,1.248253657E0,2.215147483E0,3.004082251E0
9.467472917E0,2.320358189E0,1.725875282E0,2.497114840E0,3.820770883E0
9.477493917E0,3.014567698E0,1.915946043E0,2.824590492E0,4.553765375E0
9.487514917E0,5.679387115E0,2.097990478E0,2.458512692E0,6.534622154E0
9.497535917E0,7.833796645E0,1.753936654E0,1.116328778E0,8.104989427E0
9.507556917E0,9.308764980E0,8.040098400E-1,-1.056978954E0,9.403017696E0
9.517577917E0,1.114770729E1,-5.715048113E-1,-3.512745793E0,1.170202455E1
9.527597917E0,1.107563918E1,-2.066547368E0,-2.870762445E0,1.162676560E1
9.537618917E0,6.877264085E0,-3.150168137E0,-2.304964809E0,7.907792572E0
9.547640917E0,4.533437512E0,-3.591766820E0,-2.111734212E0,6.157293719E0
9.557660917E0,3.528846102E0,-3.842982500E0,-2.375595666E0,5.732776297E0
9.567681917E0,2.878579588E0,-2.488026805E0,-3.775023821E0,5.359785693E0
9.577702917E0,2.333427885E0,-1.632232269E0,-3.608224393E0,4.596558620E0
9.587723917E0,2.361629006E0,-1.200665654E0,-9.317561531E-1,2.808390839E0
9.597744917E0,2.474294912E0,-2.310454175E-1,1.392543278E-1,2.488957425E0
9.607765917E0,2.393912069E0,4.253242739E-1,4.339628041E-2,2.431789252E0
9.617786917E0,2.144370446E0,9.655135909E-1,-9.968212646E-2,2.353821920E0
9.627807917E0,1.548502918E0,1.373030169E0,-9.977513373E-2,2.071962406E0
9.637828917E0,6.010908455E-1,1.553380373E0,9.334495068E-2,1.668236814E0
9.647849917E0,-4.501736248E-1,1.667694609E0,4.640689480E-1,1.788636796E0
9.657870917E0,-1.375784354E0,1.868952848E0,7.760757905E-1,2.447051485E0
9.667891917E0,-2.216077775E0,1.890503346E0,1.191188926E0,3.147051742E0
9.677912917E0,-3.070953568E0,1.877699113E0,1.513789169E0,3.904877389E0
9.687933917E0,-3.652903553E0,1.863310285E0,1.782473990E0,4.471335719E0
9.697954917E0,-4.252905647E0,1.823659292E0,1.867144012E0,4.989906453E0
9.707975917E0,-4.567244359E0,1.729505379E0,1.726103323E0,5.179801403E0
9.717996917E0,-4.697911502E0,1.636890015E0,1.765307735E0,5.278834417E0
9.728017917E0,-4.889617730E0,1.439554527E0,1.955627003E0,5.459409836E0
9.738038917E0,-5.014000871E0,1.047814759E0,2.341532711E0,5.632130675E0
9.748059917E0,-5.614968925E0,4.560636713E-1,2.953594687E0,6.360785460E0
9.758080917E0,-6.379779469E0,-3.186032327E-1,3.600067527E0,7.332365260E0
9.768101917E0,-6.753217160E0,-1.204563993E0,3.893943908E0,7.887947488E0
9.778122917E0,-6.730969089E0,-1.918329076E0,3.761895068E0,7.945928883E0
9.788144292E0,-6.088468262E0,-2.460991619E0,3.121833115E0,7.271297513E0
9.798165292E0,-5.264310232E0,-2.896816761E0,2.263963548E0,6.421062258E0
9.808186292E0,-4.349828508E0,-3.274194305E0,1.086163577E0,5.551676118E0
9.818207292E0,-3.172413869E0,-3.382613670E0,-3.272229787E-1,4.649017087E0
9.828228292E0,-2.058483034E0,-2.834068244E0,-1.655669518E0,3.874343398E0
9.838249292E0,-1.094587076E0,-1.864223035E0,-2.490418024E0,3.297822058E0
9.848270292E0,-4.539398164E-1,-7.101595438E-1,-2.374761414E0,2.519896765E0
9.858291292E0,-1.815244710E-1,6.509556082E-1,-1.295732464E0,1.461375022E0
9.868312292E0,-1.209771377E-1,1.828580601E0,-7.575769544E-1,1.982994031E0
9.878333292E0,-8.702703416E-2,2.700138061E0,-4.177402890E-1,2.733647052E0
9.888354292E0,1.160192835E-1,2.996260943E0,-2.611179399E-1,3.009854264E0
9.898375292E0,6.251954073E-1,2.849435019E0,-1.952783648E-1,2.923744664E0
9.908396292E0,9.222772318E-1,2.457078955E0,-2.621132091E-1,2.637524524E0
9.918417292E0,9.824544364E-1,2.028509184E0,-7.234767236E-2,2.255061066E0
9.928438292E0,7.793812215E-1,1.412924406E0,2.486376063E-1,1.632669938E0
9.938459292E0,6.054265559E-1,5.143501787E-1,5.438553751E-1,9.627440417E-1
9.948480292E0,8.580648637E-1,-5.594573544E-1,7.629224789E-1,1.277230813E0
9.958501292E0,1.594398884E0,-1.227402925E0,9.056734782E-1,2.206551651E0
9.968522292E0,2.798075123E0,-2.133307514E0,-3.253334144E-2,3.518704841E0
9.978543292E0,3.864582115E0,-2.761217199E0,-1.127364228E0,4.881625287E0
9.988564292E0,5.566193790E0,-2.682658687E0,-1.592861651E0,6.380938738E0
9.998585292E0,7.379295496E0,-2.394405574E0,-2.019552273E0,8.016593507E0
1.000860629E1,9.452047491E0,-1.734611460E0,-2.281910407E0,9.877104525E0
1.001862729E1,9.733706700E0,-7.553955044E-1,-1.721657100E0,9.913615468E0
1.002864829E1,8.442315794E0,-2.204796450E-1,-9.544585526E-1,8.498958663E0
1.003866929E1,7.521526093E0,-1.668524913E-1,-7.600748849E-1,7.561673648E0
1.004869029E1,6.502182158E0,-1.759509051E-1,-1.013161089E0,6.582995286E0
1.005871129E1,5.490978132E0,-7.168510973E-2,-1.303847229E0,5.644111728E0
1.006873229E1,4.477707115E0,1.269031446E-1,-1.328988503E0,4.672491397E0
1.007875329E1,3.343377099E0,4.245726143E-1,-1.291142399E0,3.609083128E0
1.008877429E1,2.151999893E0,6.620284805E-1,-1.093546856E0,2.503044142E0
1.009879529E1,8.653382152E-1,7.531424260E-1,-6.542706871E-1,1.320645249E0
1.010881629E1,-3.575180608E-1,7.380924238E-1,-2.858750510E-1,8.685183560E-1
1.011883729E1,-1.358948466E0,6.390014143E-1,1.613126200E-2,1.501773604E0
1.012885829E1,-2.299398844E0,5.955590871E-1,1.894719700E-1,2.382818772E0
1.013887829E1,-3.394880544E0,4.890663797E-1,2.113429320E-1,3.436432113E0
1.014889929E1,-4.220294555E0,5.179440236E-1,9.041840097E-2,4.252919895E0
1.015892029E1,-4.866502517E0,6.436305088E-1,-4.388572890E-2,4.909076587E0
1.016894129E1,-5.415548465E0,7.643161628E-1,-4.001309970E-2,5.469364261E0
1.017896229E1,-5.722917881E0,9.348702340E-1,8.034598729E-2,5.799329867E0
1.018898329E1,-6.043993170E0,1.149582770E0,3.946361858E-1,6.164992434E0
1.019900429E1,-6.308976120E0,1.333211508E0,7.671377367E-1,6.493776475E0
1.020902529E1,-6.455848821E0,1.546303488E0,1.028946818E0,6.717720598E0
1.021904629E1,-6.727632083E0,1.760648381E0,1.207406763E0,7.058239671E0
1.022906729E1,-6.675207701E0,1.949934592E0,1.218577284E0,7.060139755E0
1.023908829E1,-6.604152921E0,2.142905719E0,1.131377757E0,7.034692343E0
1.024910929E1,-6.549383807E0,2.305572335E0,1.019715818E0,7.017828182E0
1.025913029E1,-6.363351132E0,2.434592171E0,8.284779525E-1,6.863370338E0
1.026915129E1,-5.960014874E0,2.598714305E0,7.986314249E-1,6.550794264E0
1.027917229E1,-5.452856625E0,2.695905262E0,8.847340143E-1,6.146893917E0
1.028919329E1,-4.790009242E0,2.602073531E0,1.225804442E0,5.587268718E0
1.029921429E1,-3.931744403E0,2.423805228E0,1.329047559E0,4.806226508E0
1.030923529E1,-2.930995198E0,2.119056973E0,1.259210755E0,3.829718923E0
1.031925629E1,-1.850429746E0,1.628803900E0,9.763236308E-1,2.651471332E0
1.032927729E1,-7.303856474E-1,1.087836173E0,7.004964352E-1,1.485781272E0
1.033929829E1,5.166862875E-1,5.025018194E-1,5.599375570E-1,9.126899068E-1
1.034931929E1,1.908997797E0,9.615980029E-2,5.462679362E-1,1.987945662E0
1.035934029E1,3.231554362E0,-8.504073501E-2,5.429315150E-1,3.277949077E0
1.036936129E1,4.389820540E0,-2.494161996E-1,8.857362270E-1,4.485227026E0
1.037938229E1,5.077824399E0,-5.051842296E-1,1.626746850E0,5.355914212E0
1.038940329E1,4.875509568E0,-8.257560736E-1,2.342940136E0,5.471913296E0
1.039942429E1,3.993623148E0,-1.115291189E0,2.650289086E0,4.921070262E0
1.040944529E1,3.001198039E0,-9.063166720E-1,2.132062642E0,3.791344180E0
1.041946629E1,3.226839167E0,-3.354316655E-1,8.188358939E-1,3.345967369E0
1.042948729E1,3.955100521E0,-2.690964657E-1,7.821720976E-1,4.040671508E0
1.043950829E1,4.183870495E0,-6.839084691E-1,5.704514354E-1,4.277606568E0
1.044952929E1,4.873436730E0,-1.226408752E0,-1.361646371E0,5.206586677E0
1.045955029E1,5.850381335E0,-1.747776613E0,-3.166309960E0,6.878023235E0
1.046957129E1,6.705882779E0,-2.006595135E0,-3.483072343E0,7.818380960E0
1.047959229E1,8.052135771E0,-2.241961645E0,-3.000840189E0,8.880783993E0
1.048961329E1,8.554232086E0,-2.241304710E0,-2.039987707E0,9.075234610E0
1.049963429E1,7.747024550E0,-1.937352407E0,-1.011847805E0,8.049444683E0
1.050965529E1,6.572054046E0,-1.309840333E0,-8.743201232E-1,6.758107114E0
1.051967629E1,5.191203080E0,-6.387439907E-1,-1.438824940E0,5.424647501E0
1.052969729E1,3.867251953E0,-2.448147333E-1,-1.781254261E0,4.264790577E0
1.053971829E1,2.787075341E0,-7.277532309E-2,-1.700126483E0,3.265503829E0
1.054973929E1,2.003388814E0,-7.842607230E-2,-1.461502197E0,2.481069540E0
1.055976029E1,1.556507172E0,-1.119426048E-1,-1.217857491E0,1.979500592E0
1.056978129E1,1.369758798E0,-1.955519414E-1,-8.920090469E-1,1.646256319E0
1.057980229E1,1.150102295E0,-2.461949685E-1,-2.533798078E-1,1.203141130E0
1.058982329E1,8.185061109E-1,-4.145427391E-1,1.551453424E-1,9.305202918E-1
1.059984429E1,3.928451836E-1,-5.695281601E-1,2.553245187E-1,7.374823884E-1
1.060986529E1,-1.918179095E-1,-5.359192416E-1,3.413749947E-1,6.637321982E-1
1.061988629E1,-9.223637706E-1,-3.811463669E-1,3.662496348E-1,1.063092787E0
1.062990729E1,-1.710113527E0,-1.262899178E-1,2.597321498E-1,1.734329325E0
1.063992829E1,-2.494302914E0,2.475564927E-1,1.958653522E-1,2.514198576E0
1.064994929E1,-3.770156599E0,5.027444789E-1,1.856830108E-1,3.808058688E0
1.065997029E1,-4.653861503E0,7.509178528E-1,1.077074665E-1,4.715284234E0
1.066999129E1,-5.481009799E0,1.096545016E0,-1.341179509E-2,5.589638563E0
1.068001229E1,-6.038417850E0,1.312336217E0,-2.258490700E-2,6.179419597E0
1.069003229E1,-6.558620653E0,1.425169353E0,-3.345210347E-3,6.711678162E0
1.070005329E1,-6.953982478E0,1.498948058E0,8.866600871E-2,7.114251841E0
1.071007429E1,-7.261102803E0,1.617575492E0,2.533423126E-1,7.443409616E0
1.072009529E1,-7.466558758E0,1.645108569E0,4.278957331E-1,7.657609069E0
1.073011629E1,-7.594305802E0,1.615361736E0,5.198578173E-1,7.781588932E0
1.074013729E1,-7.432760682E0,1.466380529E0,5.480349648E-1,7.595824217E0
1.075015829E1,-6.845054698E0,1.175299702E0,5.280526900E-1,6.965266890E0
1.076017929E1,-6.203081290E0,7.687761265E-1,6.513119960E-1,6.284380760E0
1.077020029E1,-5.218034198E0,3.294639972E-1,7.845454824E-1,5.286959337E0
1.078022129E1,-3.943287976E0,-1.603973114E-1,8.918313646E-1,4.046061115E0
1.079024258E1,-2.522971228E0,-6.544987285E-1,8.431275666E-1,2.739455511E0
1.080026358E1,-1.052848481E0,-1.128284580E0,8.461037993E-1,1.759945356E0
1.081028458E1,4.004746306E-1,-1.480514126E0,8.957408130E-1,1.776134458E0
1.082030558E1,1.821474334E0,-1.786394256E0,8.427264476E-1,2.686849652E0
1.083032658E1,2.709063544E0,-2.122448942E0,1.257746612E0,3.664115355E0
1.084034758E1,3.310461953E0,-2.306312884E0,1.632043258E0,4.352218131E0
1.085036858E1,3.473648971E0,-2.301790940E0,1.845640876E0,4.557506879E0
1.086038958E1,3.313137054E0,-1.895253916E0,1.887606343E0,4.258159491E0
1.087041058E1,2.772898766E0,-1.264698074E0,1.945982605E0,3.615975261E0
1.088043158E1,2.121737044E0,-7.635168484E-1,1.845267824E0,2.913715738E0
1.089045258E1,1.874754748E0,-5.090337440E-1,1.439321369E0,2.417740003E0
1.090047358E1,2.442929862E0,-6.139506269E-1,8.247819275E-1,2.650491824E0
1.091049458E1,3.474459980E0,-6.364837494E-1,3.730564517E-1,3.551922695E0
1.092051558E1,4.139824589E0,-5.207767072E-1,-9.059208155E-2,4.173435387E0
1.093053658E1,5.752686056E0,-5.377728090E-1,-1.155684047E0,5.892215379E0
1.094055758E1,7.994246582E0,-5.963733119E-1,-2.379907987E0,8.362272512E0
1.095057858E1,9.180286449E0,-1.041363965E0,-3.721695460E0,9.960578060E0
1.096059958E1,9.873207232E0,-1.333598447E0,-4.105940559E0,1.077578089E1
1.097062058E1,8.441646287E0,-1.908663628E0,-3.210016143E0,9.230850044E0
1.098064158E1,6.130685159E0,-2.012407852E0,-2.430550137E0,6.895118552E0
1.099066258E1,4.322905004E0,-1.763954689E0,-2.540025802E0,5.315145802E0
1.100068358E1,3.034124295E0,-1.581516006E0,-2.570749996E0,4.279703104E0
1.101070458E1,1.933049149E0,-1.140284528E0,-2.319344282E0,3.227427104E0
1.102072558E1,1.310133571E0,-5.077137351E-1,-2.362228346E0,2.748517049E0
1.103074658E1,1.406601520E0,7.775744319E-2,-2.177787284E0,2.593709989E0
1.104076758E1,1.606557584E0,3.455017403E-1,-1.695144070E0,2.360913413E0
1.105078858E1,1.671885601E0,3.791127053E-1,-8.702422750E-1,1.922563269E0
1.106080958E1,1.438771146E0,2.573958948E-1,-2.430371797E-1,1.481682195E0
1.107083058E1,8.361261106E-1,1.354007569E-1,1.875784954E-2,8.472261178E-1
1.108085158E1,-5.971059680E-2,3.456873894E-2,-9.883137485E-2,1.205321274E-1
1.109087258E1,-9.236624372E-1,-6.367939442E-2,-1.630993098E-1,9.401110296E-1
1.110089358E1,-1.864729697E0,-6.814695954E-2,-1.481666905E-1,1.871847808E0
1.111091458E1,-2.742417816E0,9.939097166E-3,-7.115065595E-2,2.743358649E0
1.112093558E1,-3.532389514E0,1.483517548E-1,8.642767629E-2,3.536559581E0
1.113095658E1,-4.292492466E0,3.669189218E-1,2.409830528E-1,4.314880519E0
1.114097758E1,-5.066432853E0,6.346869001E-1,2.018201566E-1,5.110019637E0
1.115099858E1,-5.583367063E0,9.304788288E-1,4.087104338E-1,5.675105534E0
1.116101958E1,-6.006786168E0,1.255120627E0,5.648211515E-1,6.162453309E0
1.117104058E1,-6.332728094E0,1.608345662E0,7.055063295E-1,6.571754718E0
1.118106158E1,-6.528778803E0,1.947661633E0,8.661924934E-1,6.867942045E0
1.119108258E1,-6.758799496E0,2.338814340E0,9.698507631E-1,7.217481115E0
1.120110358E1,-6.807503879E0,2.740395556E0,1.027429465E0,7.409958716E0
1.121112458E1,-6.564387762E0,3.032666877E0,1.070222898E0,7.309831197E0
1.122114458E1,-6.185686993E0,3.288510628E0,1.036158262E0,7.081712340E0
1.123116558E1,-5.738745124E0,3.545050198E0,9.814808750E-1,6.816441976E0
1.124118658E1,-5.227672164E0,3.722094240E0,9.526891851E-1,6.487692846E0
1.125120758E1,-4.639897183E0,3.810815505E0,1.017531371E0,6.089854741E0
1.126122858E1,-3.942764066E0,3.792745270E0,1.085702816E0,5.577549262E0
1.127124958E1,-3.084730777E0,3.651477709E0,1.050635821E0,4.894148451E0
1.128127058E1,-2.082551928E0,3.393906983E0,9.844372272E-1,4.101797630E0
1.129129158E1,-9.746542507E-1,3.103282823E0,9.551942054E-1,3.390090140E0
1.130131258E1,1.687670159E-1,2.788419031E0,9.300628725E-1,2.944279189E0
1.131133358E1,1.301798365E0,2.417701465E0,1.004881432E0,2.923994879E0
1.132135458E1,2.510781537E0,2.186588513E0,7.728861344E-1,3.417973995E0
1.133137558E1,3.342012944E0,1.802508890E0,7.562472975E-1,3.871691980E0
1.134139658E1,3.939044067E0,1.509569818E0,7.379314792E-1,4.282453977E0
1.135141758E1,4.283182529E0,1.215375056E0,8.526316309E-1,4.533185393E0
1.136143858E1,4.206281703E0,9.546655440E-1,1.368601635E0,4.525180936E0
1.137145958E1,3.647489616E0,1.015021089E0,1.814792136E0,4.198561516E0
1.138148058E1,2.972019264E0,1.486278019E0,1.805106808E0,3.781577904E0
1.139150158E1,2.763123391E0,2.031261030E0,1.041359872E0,3.584034407E0
1.140152258E1,3.276504833E0,2.214558961E0,4.573060584E-1,3.981065704E0
1.141154358E1,4.202196254E0,1.954763661E0,1.774898922E-1,4.638001400E0
1.142156458E1,4.924691083E0,1.523432104E0,-3.801233965E-1,5.168938135E0
1.143158558E1,5.449801455E0,9.229496616E-1,-1.796797915E0,5.812112758E0
1.144160658E1,6.218165937E0,1.667921188E-1,-2.546837223E0,6.721591112E0
1.145162758E1,6.812844726E0,-5.779142368E-1,-2.757527021E0,7.372434699E0
1.146164858E1,7.032012987E0,-1.314399992E0,-2.226112182E0,7.492157862E0
1.147166958E1,6.589217963E0,-1.967941824E0,-1.319806620E0,7.002319466E0
1.148169058E1,5.699779864E0,-2.243872807E0,-5.677400815E-1,6.151811479E0
1.149171158E1,4.591090474E0,-2.082819731E0,-3.646762222E-1,5.054625457E0
1.150173258E1,3.573387852E0,-1.717915175E0,-7.172393525E-1,4.029238833E0
1.151175358E1,2.894477583E0,-1.335935872E0,-1.044444863E0,3.354637119E0
1.152177458E1,2.558469674E0,-1.064753704E0,-1.063263541E0,2.968163891E0
1.153179558E1,2.455285614E0,-8.638802120E-1,-7.791531801E-1,2.716946106E0
1.154181658E1,2.388187060E0,-6.333493495E-1,-2.589480382E-1,2.484275129E0
1.155183758E1,2.185704998E0,-3.868798542E-1,3.441092259E-1,2.246195343E0
1.156185858E1,1.760635225E0,-1.358293578E-1,9.621569967E-1,2.010977895E0
1.157187958E1,1.167526998E0,1.470525035E-1,1.441390699E0,1.860739336E0
1.158190058E1,4.540111524E-1,4.321326256E-1,1.839714723E0,1.943557304E0
1.159192158E1,-3.132365119E-1,7.397160494E-1,2.165682378E0,2.309865171E0
1.160194258E1,-1.129554010E0,9.330942884E-1,2.403483961E0,2.814834340E0
1.161196358E1,-1.969758554E0,1.002587862E0,2.541707461E0,3.368294523E0
1.162198458E1,-2.766773223E0,9.961249343E-1,2.685006344E0,3.982029385E0
1.163200558E1,-3.445376514E0,9.641447577E-1,2.791840822E0,4.538124018E0
1.164202658E1,-4.045687925E0,9.540211809E-1,2.873262130E0,5.053056745E0
1.165204758E1,-4.561159746E0,9.764850140E-1,2.925264927E0,5.505894669E0
1.166206858E1,-5.084294928E0,9.497503746E-1,2.804483671E0,5.883639125E0
1.167208958E1,-5.414791251E0,9.938018355E-1,2.638552555E0,6.104880504E0
1.168211058E1,-5.742090316E0,9.917596954E-1,2.480207616E0,6.332978629E0
1.169213158E1,-6.021217681E0,9.989225346E-1,2.231930162E0,6.498801492E0
1.170215258E1,-6.220263333E0,8.198901469E-1,2.051616064E0,6.600986613E0
1.171217358E1,-6.486808074E0,5.144298470E-1,1.874450108E0,6.771770837E0
1.172219458E1,-6.563511849E0,5.363943279E-2,1.652262930E0,6.768495975E0
1.173221558E1,-6.506489802E0,-4.880121267E-1,1.434459994E0,6.680586864E0
1.174223658E1,-6.347436765E0,-1.037475274E0,1.428196456E0,6.588327068E0
1.175225758E1,-6.081563870E0,-1.576731814E0,1.633885131E0,6.491616358E0
1.176227858E1,-5.668969715E0,-2.099751221E0,1.849966646E0,6.322068444E0
1.177229958E1,-5.108477842E0,-2.520921194E0,1.819655850E0,5.980195393E0
1.178232046E1,-4.370899535E0,-2.822913510E0,1.519315957E0,5.420509608E0
1.179234146E1,-3.459330894E0,-3.053958928E0,1.009673810E0,4.723671937E0
1.180236146E1,-2.421944790E0,-3.270749418E0,5.746000350E-1,4.110204803E0
1.181238246E1,-1.285895108E0,-3.595362273E0,4.528183204E-1,3.845152862E0
1.182240446E1,-8.602248251E-2,-3.902858866E0,6.180220431E-1,3.952424375E0
1.183242546E1,1.034385313E0,-4.116248323E0,9.957703006E-1,4.359473790E0
1.184244546E1,2.098712463E0,-4.187147859E0,1.353959037E0,4.875449340E0
1.185246646E1,3.032117531E0,-4.131948389E0,1.494603285E0,5.338592810E0
1.186248746E1,3.584424471E0,-4.000369957E0,1.521928493E0,5.582770363E0
1.187250846E1,3.435343861E0,-3.778526888E0,1.354055516E0,5.283211072E0
1.188252946E1,2.967344999E0,-3.439503570E0,7.087433481E-1,4.597568737E0
1.189255046E1,2.744305882E0,-3.067633226E0,1.713497311E-1,4.119581182E0
1.190257146E1,2.600390702E0,-2.633342101E0,7.124656856E-2,3.701567033E0
1.191259246E1,2.344652200E0,-2.208726363E0,-6.130750794E-2,3.221742494E0
1.192261346E1,2.173940985E0,-1.942489186E0,-6.851463246E-1,2.994780314E0
1.193263446E1,2.395951577E0,-1.808342949E0,-1.259190289E0,3.255187916E0
1.194265546E1,2.978999670E0,-1.575595115E0,-1.110901977E0,3.548385858E0
1.195267646E1,3.594215634E0,-1.586175067E0,-8.905689508E-1,4.028330972E0
1.196269746E1,4.107070241E0,-1.879761426E0,-1.014563836E0,4.629348633E0
1.197271846E1,4.554980409E0,-2.163870764E0,-8.848930585E-1,5.119884660E0
1.198273946E1,4.501067911E0,-2.478155243E0,-5.054473543E-1,5.162978092E0
1.199276046E1,4.047138035E0,-2.784920642E0,-3.172500773E-1,4.922982517E0
1.200278146E1,3.470610173E0,-3.010212399E0,-1.692406404E-1,4.597298778E0
1.201280246E1,2.771445733E0,-3.047179374E0,-2.068727356E-1,4.124198094E0
1.202282346E1,2.251829991E0,-2.858546150E0,-4.505297202E-1,3.666742618E0
1.203284446E1,1.935163502E0,-2.416477059E0,-3.294566882E-1,3.113319910E0
1.204286546E1,1.552899440E0,-1.756173507E0,1.732108998E-1,2.350668856E0
1.205288646E1,8.767894024E-1,-1.146161710E0,6.279149473E-1,1.573760942E0
1.206290746E1,-3.023010492E-3,-6.837918171E-1,7.415579224E-1,1.008706370E0
1.207292846E1,-9.100863719E-1,-3.046984076E-1,7.324234021E-1,1.207287192E0
1.208294946E1,-1.793343964E0,-4.248002172E-4,6.851977801E-1,1.919786122E0
1.209297046E1,-2.565023233E0,2.405683391E-1,6.298842895E-1,2.652163557E0
1.210299146E1,-3.228180519E0,4.440222077E-1,6.319518650E-1,3.319287324E0
1.211301246E1,-3.808648235E0,6.591498962E-1,7.434348786E-1,3.936111708E0
1.212303346E1,-4.308491033E0,9.136565356E-1,7.893635881E-1,4.474478530E0
1.213305446E1,-4.725900369E0,1.147732565E0,8.424738479E-1,4.935705271E0
1.214307546E1,-5.082332602E0,1.341896816E0,7.989566032E-1,5.316871580E0
1.215309646E1,-5.368742673E0,1.545456958E0,7.206061792E-1,5.633037224E0
1.216311746E1,-5.571553348E0,1.733716544E0,6.084062604E-1,5.866697363E0
1.217313846E1,-5.662001588E0,1.943554841E0,4.671468858E-1,6.004489455E0
1.218315946E1,-5.590290751E0,2.160147696E0,3.054597151E-1,6.000907797E0
1.219318046E1,-5.396236281E0,2.360944005E0,1.272096848E-1,5.891485798E0
1.220320146E1,-5.102276285E0,2.550419227E0,-3.406003118E-2,5.704298521E0
1.221322246E1,-4.693371139E0,2.652739362E0,-2.101629639E-1,5.395268969E0
1.222324346E1,-4.133185076E0,2.627674102E0,-2.525061242E-1,4.904248097E0
1.223326446E1,-3.464122687E0,2.415411111E0,-9.730249241E-2,4.224195142E0
1.224328546E1,-2.676554779E0,2.032940642E0,-6.136068106E-3,3.361075838E0
1.225330646E1,-1.798731589E0,1.551477397E0,-4.144506454E-2,2.375759907E0
1.226332746E1,-9.142185992E-1,1.008305562E0,-1.391322307E-1,1.368149674E0
1.227334846E1,-9.682112038E-2,5.147394571E-1,-2.045273809E-1,5.622832805E-1
1.228336946E1,5.302658612E-1,1.336334360E-1,2.276909430E-2,5.473191120E-1
1.229339046E1,9.467197627E-1,-1.379825950E-1,3.120168559E-1,1.006316066E0
1.230341146E1,1.249443566E0,-3.570207551E-1,4.250329363E-1,1.367196416E0
1.231343246E1,1.569955183E0,-3.506502137E-1,1.157246570E-1,1.612794794E0
1.232345346E1,1.966223327E0,-8.972786307E-2,-4.644314754E-1,2.022320908E0
1.233347446E1,2.336725715E0,2.412710282E-1,-6.945544946E-1,2.449674411E0
1.234349546E1,2.599421818E0,4.868530624E-1,-3.980515444E-1,2.674409229E0
1.235351646E1,2.480746145E0,6.075027560E-1,2.717014003E-1,2.568459204E0
1.236353746E1,1.959822965E0,6.093902372E-1,9.906551564E-1,2.278960323E0
1.237355846E1,1.336836051E0,5.605028366E-1,1.272793837E0,1.929066667E0
1.238357946E1,1.091376954E0,5.565843250E-1,1.006398200E0,1.585473779E0
1.239360046E1,1.451492933E0,3.370719557E-1,7.000315815E-1,1.646357632E0
1.240362146E1,2.058244468E0,-1.142395373E-1,7.385805202E-1,2.189731067E0
1.241364146E1,2.650475612E0,-5.278851673E-1,6.326038295E-1,2.775584862E0
1.242366246E1,3.268687105E0,-9.401897384E-1,1.449817121E-1,3.404304897E0
1.243368346E1,4.017669237E0,-1.564014266E0,2.357363462E-2,4.311422322E0
1.244370446E1,4.925950574E0,-2.273484569E0,-9.594228387E-2,5.426133620E0
1.245372546E1,6.419442303E0,-3.071745573E0,-1.549547231E-1,7.118207029E0
1.246374646E1,6.777824582E0,-3.682052507E0,1.267769543E-1,7.714433818E0
1.247376746E1,6.640937170E0,-4.076541051E0,4.044418933E-1,7.802807616E0
1.248378846E1,6.073919220E0,-3.971570374E0,6.101785515E-1,7.282731891E0
1.249380946E1,5.201233394E0,-3.371394910E0,3.031289784E-1,6.205724747E0
1.250383046E1,4.430531779E0,-2.715642831E0,-4.028743644E-1,5.212162275E0
1.251385146E1,3.676692950E0,-2.071633276E0,-7.901161247E-1,4.293485643E0
1.252387246E1,2.669585482E0,-1.433925997E0,-5.680359507E-1,3.083098321E0
1.253389346E1,1.451081289E0,-6.625871819E-1,-1.953408935E-1,1.607114416E0
1.254391446E1,1.902134335E-1,2.018914926E-1,2.506286015E-1,3.738395658E-1
1.255393546E1,-1.034306375E0,9.969906145E-1,6.155182654E-1,1.562895613E0
1.256395646E1,-2.164740976E0,1.713215767E0,8.061515290E-1,2.875950634E0
1.257397746E1,-3.177655898E0,2.268525546E0,8.351139575E-1,3.992633276E0
1.258399846E1,-4.039862929E0,2.733669504E0,8.409325218E-1,4.949808981E0
1.259401946E1,-4.760214754E0,3.052015313E0,8.834663379E-1,5.723194453E0
1.260404046E1,-5.262807498E0,3.231156459E0,9.228987908E-1,6.244137811E0
1.261406146E1,-5.799854960E0,3.376830774E0,8.977312052E-1,6.771057890E0
1.262408246E1,-6.108478603E0,3.395756457E0,8.399338174E-1,7.039187565E0
1.263410346E1,-6.244382513E0,3.309069731E0,8.182429862E-1,7.114195460E0
1.264412446E1,-6.416144473E0,3.070770257E0,8.838814902E-1,7.167829962E0
1.265414546E1,-6.423806080E0,2.636842829E0,1.007864681E0,7.016695509E0
1.266416646E1,-6.148786969E0,2.057990991E0,1.195147491E0,6.593275789E0
1.267418746E1,-5.604035801E0,1.527100647E0,1.331395801E0,5.959015726E0
1.268420846E1,-4.824883205E0,1.079340461E0,1.389559225E0,5.135693587E0
1.269422946E1,-3.877555332E0,6.824653763E-1,1.403248872E0,4.179749005E0
1.270425046E1,-2.773399288E0,3.472333932E-1,1.412040600E0,3.131481007E0
1.271427146E1,-1.563648376E0,-6.065989226E-2,1.376293062E0,2.083952605E0
1.272429246E1,-3.458645600E-1,-5.910590699E-1,1.497333934E0,1.646506006E0
1.273431346E1,7.791286218E-1,-1.180187974E0,1.212174656E0,1.862592940E0
1.274433446E1,1.740655873E0,-1.738564032E0,8.300532655E-1,2.596435285E0
1.275435546E1,2.442273220E0,-2.143855599E0,2.592843262E-1,3.260068047E0
1.276437646E1,2.609439268E0,-2.445008255E0,1.725946033E-1,3.580087647E0
1.277439746E1,2.200362214E0,-2.499416597E0,7.258441881E-1,3.408155950E0
1.278441879E1,1.505749832E0,-2.069791842E0,1.171055866E0,2.814727814E0
1.279443979E1,7.758360547E-1,-1.613894670E0,1.146863596E0,2.126469773E0
1.280446079E1,2.092741871E-1,-1.081991296E0,8.064141420E-1,1.365578492E0
1.281448179E1,-1.644763291E-1,-4.916040713E-1,4.586883402E-1,6.921864049E-1
1.282450279E1,-1.220360684E-1,-1.006788209E-1,3.645161547E-2,1.623506922E-1
1.283452379E1,8.574076366E-1,-4.875320703E-2,-1.862606426E-1,8.787592148E-1
1.284454479E1,2.548825276E0,-5.762960199E-1,-1.022791307E-2,2.613184265E0
1.285456579E1,5.353437586E0,-1.118263329E0,-8.311442828E-1,5.531781601E0
1.286458679E1,8.895914133E0,-8.589530557E-1,-3.278370094E0,9.519600784E0
1.287460779E1,1.041002490E1,-1.112745458E0,-5.808942118E0,1.197291232E1
1.288462879E1,1.159055786E1,-5.099314378E-1,-5.523452983E0,1.284949783E1
1.289464979E1,8.379748247E0,-1.306838080E-2,-2.646714098E0,8.787801033E0
1.290467079E1,4.903852192E0,5.808622567E-1,-1.168112304E0,5.074411654E0
1.291469179E1,3.151637542E0,8.166800255E-1,-2.055075277E0,3.850080500E0
1.292471279E1,2.350906382E0,8.527876054E-1,-2.870469500E0,3.807046449E0
1.293473379E1,1.975267215E0,8.896082532E-1,-2.822367965E0,3.557926973E0
1.294475479E1,1.811724102E0,9.505800945E-1,-2.025500060E0,2.878992399E0
1.295477579E1,1.799313387E0,9.098209083E-1,-1.195949728E0,2.344269290E0
1.296479579E1,1.871004344E0,6.120320092E-1,-6.734799600E-1,2.080580614E0
1.297481779E1,1.851338403E0,1.701704939E-1,-2.640006173E-1,1.877793441E0
1.298483779E1,1.553430367E0,-2.215121171E-1,7.911871154E-2,1.571137580E0
1.299485879E1,9.371543026E-1,-3.816835798E-1,2.652811940E-1,1.046094955E0
1.300487979E1,9.692695498E-2,-2.360066338E-1,2.772995611E-1,3.768142943E-1
1.301490079E1,-7.664717388E-1,1.220420618E-1,2.838788481E-1,8.264141768E-1
1.302492179E1,-1.546817166E0,4.978059205E-1,5.327117149E-1,1.710039722E0
1.303494279E1,-2.399422485E0,8.337158883E-1,6.752984440E-1,2.628371821E0
1.304496379E1,-3.165870250E0,1.112744873E0,6.692652869E-1,3.421819927E0
1.305498479E1,-3.915678594E0,1.366300609E0,5.825242181E-1,4.187917223E0
1.306500579E1,-4.793621652E0,1.598729185E0,5.773646716E-1,5.086068571E0
1.307502679E1,-5.446175011E0,1.806792560E0,5.155046383E-1,5.761168861E0
1.308504779E1,-5.855248557E0,1.969756215E0,5.397143769E-1,6.201223010E0
1.309506879E1,-6.261928253E0,2.143867001E0,5.930305318E-1,6.645268721E0
1.310508979E1,-6.731667831E0,2.323531034E0,7.061729121E-1,7.156313886E0
1.311511079E1,-6.932255394E0,2.485159623E0,6.923992109E-1,7.396728998E0
1.312513179E1,-6.767438173E0,2.665304736E0,8.046623162E-1,7.317755817E0
1.313515279E1,-6.483820147E0,2.844052364E0,7.812733805E-1,7.123127518E0
1.314517379E1,-6.006134788E0,3.038853523E0,7.805027906E-1,6.776243091E0
1.315519479E1,-5.360558910E0,3.128380827E0,7.311171341E-1,6.249551239E0
1.316521579E1,-4.595547221E0,3.024414409E0,5.955153061E-1,5.533604183E0
1.317523679E1,-3.779843681E0,2.871691568E0,1.696932149E-1,4.750013316E0
1.318525779E1,-2.922465865E0,2.811096287E0,-3.164899758E-1,4.067337578E0
1.319527879E1,-2.156288241E0,2.651574596E0,-6.008750832E-1,3.470083239E0
1.320529979E1,-1.533900082E0,2.422487119E0,-7.626908561E-1,2.966983425E0
1.321532079E1,-9.169831628E-1,2.170792260E0,-6.810836792E-1,2.452972102E0
1.322534179E1,-4.082485038E-1,1.811110729E0,-3.404435333E-1,1.887509129E0
1.323536279E1,-4.923530996E-2,1.481696433E0,-8.056293726E-3,1.482536117E0
1.324538379E1,3.216366220E-1,1.295470508E0,1.584485807E-2,1.334895132E0
1.325540479E1,8.188709772E-1,1.188095456E0,-1.296970538E-1,1.448772520E0
1.326542579E1,1.347962717E0,1.088644550E0,-9.718145505E-3,1.732698729E0
1.327544679E1,1.715490042E0,1.024206187E0,4.028310585E-1,2.038179889E0
1.328546779E1,1.819586853E0,1.047712287E0,6.786664402E-1,2.206623096E0
1.329548879E1,2.099542183E0,1.048955112E0,5.059069455E-1,2.400901090E0
1.330550979E1,2.877999544E0,8.243407550E-1,-1.486286205E-1,2.997417142E0
1.331553079E1,4.411262864E0,7.575214058E-2,-1.030139065E0,4.530581082E0
1.332555179E1,6.581110214E0,-1.097022733E0,-1.899754518E0,6.937113071E0
1.333557279E1,7.910032643E0,-2.450756653E0,-2.588569386E0,8.676146383E0
1.334559379E1,9.461121785E0,-3.879562097E0,-2.931469408E0,1.063754391E1
1.335561479E1,1.061714380E1,-4.903549598E0,-1.523603135E0,1.179363844E1
1.336563579E1,1.011349271E1,-5.545364839E0,4.441807769E-1,1.154257781E1
1.337565679E1,8.365140148E0,-5.902469501E0,7.002526063E-1,1.026182584E1
1.338567779E1,6.744621753E0,-5.426388034E0,-1.196618650E0,8.738850375E0
1.339569879E1,5.540077202E0,-4.419934870E0,-2.699874060E0,7.584035838E0
1.340571979E1,4.464463171E0,-3.268475728E0,-2.641590183E0,6.131261183E0
1.341574079E1,3.462032892E0,-2.245579025E0,-1.913221241E0,4.548484629E0
1.342576179E1,2.678566806E0,-1.495344127E0,-1.082923635E0,3.253228825E0
1.343578279E1,2.056637653E0,-8.424779409E-1,-3.638506319E-1,2.252091206E0
1.344580379E1,1.437568958E0,-3.315043831E-1,2.340225273E-1,1.493742350E0
1.345582479E1,8.153860366E-1,1.385237548E-1,6.480112427E-1,1.050695860E0
1.346584579E1,8.118449628E-2,6.329105160E-1,9.584504467E-1,1.151431241E0
1.347586679E1,-7.195326304E-1,1.224991387E0,1.162332332E0,1.835578261E0
1.348588779E1,-1.539021074E0,1.712197767E0,1.230950577E0,2.610640990E0
1.349590879E1,-2.348231866E0,2.080297534E0,1.152158176E0,3.342050148E0
1.350592879E1,-3.058153428E0,2.349658586E0,1.101748161E0,4.010866100E0
1.351594979E1,-3.732467201E0,2.548090574E0,9.528470600E-1,4.618657218E0
1.352597079E1,-4.460167222E0,2.626305562E0,7.399516922E-1,5.228584996E0
1.353599179E1,-4.933718600E0,2.689327437E0,5.571624684E-1,5.646635396E0
1.354601279E1,-5.278948152E0,2.694227988E0,4.746489000E-1,5.945708505E0
1.355603379E1,-5.727544198E0,2.528245416E0,4.285903823E-1,6.275386613E0
1.356605479E1,-5.887870758E0,2.180210662E0,2.811914313E-1,6.284855545E0
1.357607579E1,-5.673400151E0,1.722084239E0,1.239937345E-1,5.930296607E0
1.358609679E1,-5.506980792E0,1.178629691E0,1.852416191E-3,5.631696798E0
1.359611779E1,-5.310851730E0,5.947232276E-1,-9.675387740E-2,5.344923117E0
1.360613879E1,-5.015422913E0,7.763932943E-3,-9.262457371E-2,5.016284142E0
1.361615979E1,-4.720729092E0,-6.433404869E-1,-1.570222620E-1,4.766951450E0
1.362618079E1,-4.351726515E0,-1.188711753E0,-2.751944904E-1,4.519545475E0
1.363620179E1,-3.867022158E0,-1.594360000E0,-6.944854975E-2,4.183379887E0
1.364622279E1,-3.269198152E0,-1.696231360E0,1.838352176E-1,3.687635119E0
1.365624379E1,-2.608759237E0,-1.515197763E0,4.983043957E-1,3.057737119E0
1.366626479E1,-1.838375711E0,-1.126182798E0,5.989420303E-1,2.237553240E0
1.367628579E1,-9.966046983E-1,-4.880261600E-1,4.802271803E-1,1.209135477E0
1.368630679E1,-1.445174432E-1,1.659182525E-1,3.249438071E-1,3.924316956E-1
1.369632779E1,5.590347469E-1,6.075429556E-1,3.520211299E-1,8.975227947E-1
1.370634879E1,1.101041817E0,7.356072110E-1,5.421012104E-1,1.430833594E0
1.371636979E1,1.504830065E0,7.296857357E-1,6.994825280E-1,1.812796349E0
1.372639079E1,1.809731956E0,7.154933739E-1,1.033866080E0,2.203619656E0
1.373641179E1,1.956661960E0,8.907867596E-1,1.220631995E0,2.472239783E0
1.374643279E1,1.788710631E0,1.033213823E0,1.310709522E0,2.446421054E0
1.375645379E1,1.194375658E0,9.575055367E-1,1.204712366E0,1.947994340E0
1.376647479E1,3.815167880E-1,6.428121909E-1,7.811576056E-1,1.081189057E0
1.377649579E1,-2.207277131E-1,2.491416728E-1,2.657384098E-1,4.259215877E-1
1.378651654E1,-3.577613050E-1,-6.947340041E-2,-4.304942358E-1,5.640434307E-1
1.379653754E1,1.324096137E-1,-1.042789516E-1,-4.577194566E-1,4.877637814E-1
1.380655854E1,1.102847437E0,2.818100667E-1,-5.570332450E-1,1.267270855E0
1.381657954E1,2.479914086E0,8.592112103E-1,-9.505648917E-1,2.791378045E0
1.382660054E1,4.081403303E0,1.284564574E0,-1.025835514E0,4.400033815E0
1.383662154E1,5.439248400E0,1.586722951E0,-1.227971420E0,5.797501763E0
1.384664254E1,6.269098109E0,1.575866134E0,-1.197847735E0,6.574175566E0
1.385666354E1,6.857383552E0,1.071066943E0,-6.562008530E-1,6.971477113E0
1.386668454E1,7.449625806E0,3.802318624E-1,-2.378472094E-1,7.463114110E0
1.387670554E1,7.226852152E0,-3.661833420E-1,-3.117524886E-1,7.242835901E0
1.388672654E1,6.429775502E0,-5.364969465E-1,-7.456550664E-1,6.495063007E0
1.389674754E1,5.311257527E0,-4.909044519E-1,-1.071418068E0,5.440439355E0
1.390676854E1,4.214681228E0,-5.284421146E-1,-9.384260720E-1,4.350107173E0
1.391678954E1,3.409615527E0,-5.893060747E-1,-6.309443897E-1,3.517221989E0
1.392681054E1,2.962760782E0,-5.400435752E-1,-2.184800434E-1,3.019492018E0
1.393683154E1,2.546584039E0,-3.487390512E-1,1.807140470E-1,2.576696870E0
1.394685254E1,1.919172537E0,-9.292716712E-2,4.306310606E-1,1.969086538E0
1.395687354E1,1.121124079E0,1.050946382E-1,5.390477943E-1,1.248413637E0
1.396689454E1,2.539474994E-1,2.703653115E-1,5.967808628E-1,7.026621751E-1
1.397691554E1,-5.844414836E-1,4.694431239E-1,5.528214955E-1,9.314291708E-1
1.398693654E1,-1.364586352E0,7.173153663E-1,4.361484933E-1,1.602143175E0
1.399695754E1,-2.129071791E0,1.025624430E0,4.841026783E-1,2.412303373E0
1.400697854E1,-2.826738174E0,1.416476590E0,6.206773368E-1,3.222125849E0
1.401699954E1,-3.379667258E0,1.794402310E0,8.032647586E-1,3.909893183E0
1.402701954E1,-3.883149948E0,2.220920147E0,8.316658545E-1,4.550055814E0
1.403704154E1,-4.231444611E0,2.572767286E0,5.987256467E-1,4.988258955E0
1.404706154E1,-4.518630608E0,2.848566707E0,3.659632309E-1,5.354090393E0
1.405708254E1,-4.689425438E0,3.034187737E0,2.401381302E-1,5.590587848E0
1.406710354E1,-4.753833103E0,3.098589848E0,2.519811904E-1,5.680112916E0
1.407712454E1,-4.717111419E0,3.130441970E0,3.762963939E-1,5.673835215E0
1.408714554E1,-4.521498082E0,3.140357386E0,5.246284875E-1,5.530011254E0
1.409716654E1,-4.176603575E0,3.076901063E0,5.921626588E-1,5.221301963E0
1.410718754E1,-3.792326317E0,2.985495341E0,5.544633937E-1,4.858225086E0
1.411720854E1,-3.434543377E0,2.868715920E0,5.794216490E-1,4.512355115E0
1.412722954E1,-3.118589079E0,2.680710687E0,6.287650593E-1,4.160186671E0
1.413725054E1,-2.791949580E0,2.479255397E0,6.181652268E-1,3.784682025E0
1.414727154E1,-2.385054706E0,2.267228048E0,5.743428306E-1,3.340460846E0
1.415729254E1,-1.925551849E0,2.119878214E0,4.719031207E-1,2.902468970E0
1.416731354E1,-1.564957568E0,1.990126160E0,2.447023936E-1,2.543535646E0
1.417733454E1,-1.221295654E0,1.788168009E0,9.654454708E-2,2.167585927E0
1.418735554E1,-8.831190133E-1,1.433399309E0,2.010401380E-1,1.695567724E0
1.419737654E1,-4.354702163E-1,9.283843562E-1,4.383003052E-1,1.115185626E0
1.420739754E1,2.067283094E-1,5.227288002E-1,4.687619599E-1,7.319287994E-1
1.421741854E1,1.039213359E0,3.571754140E-1,3.991531964E-1,1.169128716E0
1.422743954E1,1.905355566E0,3.359944600E-1,4.553986967E-1,1.987626747E0
1.423746054E1,2.551943012E0,5.292633560E-1,8.187014079E-1,2.731813469E0
1.424748154E1,2.789604846E0,8.638120919E-1,1.222393177E0,3.165803469E0
1.425750254E1,2.638155529E0,1.210319261E0,1.311385460E0,3.185038325E0
1.426752354E1,2.376841707E0,1.422925776E0,1.023567964E0,2.953266944E0
1.427754454E1,2.461502958E0,1.204549521E0,5.927498289E-1,2.803798980E0
1.428756554E1,2.857831328E0,6.250196984E-1,6.295100677E-1,2.992345643E0
1.429758654E1,3.228355935E0,7.714904040E-2,5.537126112E-1,3.276405298E0
1.430760754E1,3.635775889E0,-3.413350144E-1,-1.958606744E-1,3.657012074E0
1.431762854E1,4.327356489E0,-1.052563429E0,-6.892007840E-1,4.506539879E0
1.432764954E1,5.177629353E0,-1.725127423E0,-4.636982346E-1,5.477127568E0
1.433767054E1,5.920924484E0,-2.208095741E0,-8.098626654E-2,6.319777869E0
1.434769154E1,6.309878930E0,-2.547175485E0,1.293199450E-1,6.805835636E0
1.435771254E1,6.240773612E0,-2.521756176E0,2.214188540E-1,6.734651869E0
1.436773354E1,5.917846509E0,-2.160208799E0,-1.039366154E-1,6.300651727E0
1.437775454E1,5.465852062E0,-2.121681495E0,-7.945050448E-1,5.916782013E0
1.438777554E1,4.980374118E0,-2.327735913E0,-1.456095276E0,5.687063767E0
1.439779654E1,4.464264366E0,-2.670652892E0,-1.756208882E0,5.490565803E0
1.440781754E1,3.833979542E0,-2.932262290E0,-1.588076874E0,5.081294070E0
1.441783854E1,3.135030865E0,-2.528853819E0,-1.044283479E0,4.161015279E0
1.442785954E1,2.490755408E0,-1.539643802E0,-4.686063874E-1,2.965460755E0
1.443788054E1,1.786411505E0,-4.414159575E-1,4.808750153E-3,1.840145983E0
1.444790154E1,8.741944081E-1,4.593037596E-1,3.208659589E-1,1.038330762E0
1.445792254E1,-1.975709850E-1,1.020267795E0,4.749143636E-1,1.142595432E0
1.446794354E1,-1.286547073E0,1.393824769E0,5.247361493E-1,1.968069837E0
1.447796454E1,-2.312881354E0,1.591603037E0,4.496625781E-1,2.843381230E0
1.448798554E1,-3.245163757E0,1.680490363E0,2.864726730E-1,3.665678963E0
1.449800654E1,-3.982860178E0,1.741763336E0,1.221904349E-1,4.348775140E0
1.450802754E1,-4.561868429E0,1.773067867E0,4.635570243E-2,4.894544113E0
1.451804854E1,-4.984917989E0,1.761891207E0,-1.416539155E-2,5.287141822E0
1.452806954E1,-5.252597090E0,1.728162712E0,-3.265786886E-2,5.529682548E0
1.453809054E1,-5.358949172E0,1.637877610E0,-5.089526139E-2,5.603888794E0
1.454811154E1,-5.226819640E0,1.534179871E0,-4.424346887E-2,5.447504833E0
1.455813254E1,-4.946633930E0,1.430292976E0,-1.003205328E-1,5.150241687E0
1.456815354E1,-4.647361738E0,1.220653338E0,-6.015849352E-2,4.805370406E0
1.457817354E1,-4.335226257E0,8.600052622E-1,1.118104577E-1,4.421119465E0
1.458819454E1,-3.997533181E0,4.777879778E-1,3.626280887E-1,4.042283020E0
1.459821554E1,-3.600977939E0,2.751687992E-1,5.405680704E-1,3.651708343E0
1.460823654E1,-3.146896035E0,1.713058770E-1,4.824690393E-1,3.188271747E0
1.461825754E1,-2.661533282E0,4.882571250E-2,3.886083642E-1,2.690196986E0
1.462827854E1,-2.156009914E0,-1.258177552E-1,3.831879953E-1,2.193408739E0
1.463829954E1,-1.646495236E0,-3.041212875E-1,3.912606613E-1,1.719453758E0
1.464832054E1,-1.182161409E0,-4.378745914E-1,4.416119854E-1,1.335762292E0
1.465834154E1,-8.012258345E-1,-5.216488194E-1,5.537161195E-1,1.104844727E0
1.466836254E1,-5.577349108E-1,-5.409411228E-1,6.169490790E-1,9.921248385E-1
1.467838354E1,-4.388785583E-1,-4.748915595E-1,5.051701963E-1,8.205688938E-1
1.468840454E1,-3.871073109E-1,-3.778847900E-1,2.338383400E-1,5.893465483E-1
1.469842554E1,-3.170190758E-1,-3.177283430E-1,-5.208480433E-2,4.518464575E-1
1.470844654E1,-3.104234165E-1,-3.031863177E-1,-2.719528306E-1,5.120966538E-1
1.471846754E1,-5.184843063E-1,-2.979305479E-1,-2.714404683E-1,6.567103738E-1
1.472848854E1,-8.759123200E-1,-1.978332326E-1,-2.147109282E-1,9.232882340E-1
1.473850954E1,-1.226716608E0,-5.195251107E-4,1.012986258E-2,1.226758542E0
1.474853054E1,-1.452255410E0,1.065579039E-1,2.184975851E-1,1.472461055E0
1.475855154E1,-1.486873266E0,8.582689315E-2,2.612173426E-1,1.512082294E0
1.476857254E1,-1.422421746E0,-7.240344018E-2,3.423334996E-1,1.464826989E0
1.477859354E1,-1.334824609E0,-3.635161346E-1,4.609734321E-1,1.458217138E0
1.478861442E1,-1.372473661E0,-6.796905801E-1,5.399878804E-1,1.623961251E0
1.479863542E1,-1.586360132E0,-1.034052022E0,5.073594669E-1,1.960412120E0
1.480865642E1,-1.659961374E0,-1.372399401E0,3.387455750E-1,2.180298246E0
1.481867742E1,-1.207011491E0,-1.633368529E0,2.074930521E-1,2.041524641E0
1.482869842E1,-3.089803237E-1,-1.593683769E0,-6.726519942E-2,1.624752721E0
1.483871942E1,8.335679537E-1,-1.200876008E0,-2.571429662E-1,1.484271277E0
1.484874042E1,2.184564791E0,-9.290728658E-1,-3.236597586E-1,2.395883001E0
1.485876142E1,3.687506790E0,-1.016912078E0,-4.780238764E-1,3.854908991E0
1.486878242E1,5.101942994E0,-1.343755353E0,-7.485769200E-1,5.328777362E0
1.487880342E1,6.103820127E0,-1.748575050E0,-9.840115499E-1,6.425139187E0
1.488882442E1,6.547926096E0,-2.166503912E0,-9.768744385E-1,6.965871017E0
1.489884542E1,6.278124456E0,-2.396195991E0,-9.687199116E-1,6.789331350E0
1.490886642E1,5.630425454E0,-2.127811424E0,-1.044064794E0,6.108956011E0
1.491888742E1,5.026462457E0,-1.619519691E0,-9.552175212E-1,5.366619921E0
1.492890842E1,4.490070468E0,-1.254238282E0,-9.501409686E-1,4.757795113E0
1.493892942E1,4.006600458E0,-1.060302804E0,-1.012914337E0,4.266507321E0
1.494895042E1,3.515250156E0,-9.414990762E-1,-8.139768577E-1,3.729069923E0
1.495897142E1,2.987284005E0,-8.648663449E-1,-6.271290815E-1,3.172562120E0
1.496899242E1,2.529708974E0,-9.025756234E-1,-4.898984750E-1,2.730214418E0
1.497901342E1,2.067629834E0,-8.741490921E-1,-2.024107071E-1,2.253929870E0
1.498903442E1,1.382209859E0,-7.519110024E-1,6.076426506E-3,1.573502836E0
1.499905542E1,4.470406866E-1,-5.246639362E-1,5.930363059E-2,6.918341868E-1
1.500907642E1,-5.778364688E-1,-2.232925943E-1,1.582595694E-1,6.393752096E-1
1.501909742E1,-1.572580583E0,6.431966454E-2,3.032295871E-1,1.602839634E0
1.502911842E1,-2.518037932E0,3.644268385E-1,3.408506091E-1,2.567002354E0
1.503913942E1,-3.371049047E0,6.303719473E-1,2.588328846E-1,3.439234643E0
1.504916042E1,-4.123624878E0,9.090142849E-1,2.550017889E-1,4.230320912E0
1.505918142E1,-4.721500340E0,1.233820390E0,3.167237914E-1,4.890316163E0
1.506920242E1,-5.159410599E0,1.544242637E0,3.773208261E-1,5.398756714E0
1.507922242E1,-5.448909169E0,1.789839436E0,4.149453930E-1,5.750331818E0
1.508924442E1,-5.660812265E0,1.985312732E0,4.262784298E-1,6.013981663E0
1.509926442E1,-5.749185328E0,2.122012740E0,4.325981370E-1,6.143550370E0
1.510928542E1,-5.657202194E0,2.178744765E0,5.719968545E-1,6.089174477E0
1.511930642E1,-5.466433859E0,2.210220035E0,6.771216059E-1,5.935104499E0
1.512932742E1,-5.015659726E0,2.111883024E0,8.685792538E-1,5.511018264E0
1.513934842E1,-4.378515533E0,1.930903805E0,1.000705351E0,4.888885249E0
1.514936942E1,-3.636482817E0,1.706721850E0,1.077512110E0,4.159079116E0
1.515939042E1,-2.785998868E0,1.460395904E0,1.086191570E0,3.327815803E0
1.516941142E1,-1.865616134E0,1.309280170E0,1.074063349E0,2.519593261E0
1.517943242E1,-8.939819705E-1,1.175339170E0,1.207934182E0,1.907807882E0
1.518945342E1,1.243346089E-1,9.756725433E-1,1.308473547E0,1.636917539E0
1.519947442E1,1.152291493E0,7.637428433E-1,1.229653080E0,1.850169049E0
1.520949542E1,2.147097588E0,3.772646928E-1,1.025498714E0,2.409150122E0
1.521951642E1,2.970593128E0,-1.786891562E-1,8.723998976E-1,3.101198950E0
1.522953742E1,3.408787562E0,-8.020122850E-1,9.689877141E-1,3.633454766E0
1.523955842E1,3.346742756E0,-1.283968450E0,1.203097365E0,3.781098429E0
1.524957942E1,2.883743849E0,-1.542444326E0,1.270796428E0,3.508566181E0
1.525960042E1,2.361785127E0,-1.539675962E0,1.251293625E0,3.084536722E0
1.526962142E1,1.886598283E0,-1.399065043E0,1.441470805E0,2.755807352E0
1.527964242E1,1.460435665E0,-1.154342988E0,1.556747493E0,2.426693805E0
1.528966342E1,1.117250299E0,-8.214770812E-1,1.497400593E0,2.040902095E0
1.529968442E1,9.093133700E-1,-4.648384416E-1,1.453176931E0,1.776133096E0
1.530970542E1,1.004125972E0,-1.875994357E-1,1.261910999E0,1.623539924E0
1.531972642E1,1.628396934E0,-1.618348494E-1,1.021547166E0,1.929099714E0
1.532974742E1,2.567177932E0,-4.566105321E-1,7.086170483E-1,2.702042530E0
1.533976842E1,3.340971555E0,-4.716232583E-1,2.591743437E-1,3.384034688E0
1.534978942E1,3.668310381E0,-1.187370694E-1,-4.158224022E-1,3.693711929E0
1.535981042E1,3.728539626E0,-8.543688387E-2,-1.093580185E0,3.886544072E0
1.536983142E1,3.533816235E0,-3.855285627E-1,-1.059193879E0,3.709229183E0
1.537985242E1,2.937093844E0,-8.539264968E-1,-1.258208542E0,3.307385591E0
1.538987342E1,2.169598843E0,-1.239380215E0,-1.814743019E0,3.088124784E0
1.539989442E1,1.527458205E0,-1.114028191E0,-1.597982057E0,2.475426030E0
1.540991542E1,1.148553953E0,-7.174010280E-1,-1.210329201E0,1.816242603E0
1.541993642E1,1.242583612E0,-3.181850106E-1,-1.081255424E0,1.677608127E0
1.542995742E1,1.599533908E0,-1.523287386E-2,-9.592029834E-1,1.865157132E0
1.543997842E1,1.864328578E0,1.437964815E-1,-7.759968531E-1,2.024492428E0
1.544999942E1,1.950575593E0,3.642055213E-2,-5.487880496E-1,2.026632657E0
1.546002042E1,1.899046420E0,-1.955276754E-1,-2.535036957E-1,1.925843322E0
1.547004142E1,1.690274509E0,-2.327115816E-1,-1.479345560E-2,1.706282932E0
1.548006242E1,1.284256133E0,3.139954805E-2,1.121542374E-1,1.289526394E0
1.549008342E1,7.796864462E-1,4.260255012E-1,3.208928561E-1,9.446591487E-1
1.550010442E1,1.796709037E-1,8.165113333E-1,5.092363135E-1,9.789249277E-1
1.551012542E1,-4.715411049E-1,1.117977985E0,5.645802462E-1,1.338273755E0
1.552014642E1,-1.145032175E0,1.217827963E0,4.523558056E-1,1.731712852E0
1.553016742E1,-1.845865409E0,1.175833260E0,2.516232677E-1,2.202979172E0
1.554018842E1,-2.498861988E0,1.061601763E0,1.694382763E-1,2.720297570E0
1.555020942E1,-3.094904932E0,9.256136531E-1,1.455009449E-1,3.233630730E0
1.556023042E1,-3.584791676E0,7.740777969E-1,2.283115518E-1,3.674514113E0
1.557025042E1,-3.986167363E0,6.445815584E-1,4.126532114E-1,4.058977495E0
1.558027142E1,-4.259356880E0,5.289335731E-1,5.924704051E-1,4.332771969E0
1.559029242E1,-4.406216133E0,4.278182575E-1,7.215393218E-1,4.485352613E0
1.560031342E1,-4.492457886E0,2.345341587E-1,1.049510890E0,4.619378447E0
1.561033442E1,-4.427847322E0,4.171988368E-4,1.489943054E0,4.671805046E0
1.562035542E1,-4.210779381E0,-3.015675160E-1,1.709531729E0,4.554569650E0
1.563037642E1,-3.868040743E0,-5.096631968E-1,1.729844956E0,4.267769832E0
1.564039742E1,-3.540070417E0,-6.712854999E-1,1.715507584E0,3.990700321E0
1.565041842E1,-3.289123709E0,-7.790248337E-1,1.790563613E0,3.825092484E0
1.566043942E1,-3.080244209E0,-7.469771218E-1,1.909064455E0,3.700054905E0
1.567046042E1,-2.899092790E0,-5.638089985E-1,1.744578770E0,3.430185808E0
1.568048142E1,-2.618880767E0,-4.283439222E-1,1.276863499E0,2.944893102E0
1.569050242E1,-2.295610433E0,-3.775859973E-1,8.636080241E-1,2.481575561E0
1.570052342E1,-2.012376570E0,-3.771763998E-1,4.833097959E-1,2.103689581E0
1.571054442E1,-1.722334793E0,-3.169000849E-1,6.733507365E-3,1.751259016E0
1.572056542E1,-1.350254826E0,-2.425273025E-1,-2.819622405E-1,1.400539286E0
1.573058642E1,-1.015750821E0,-1.921599716E-1,-3.532162642E-1,1.092445383E0
1.574060742E1,-7.387208533E-1,-2.186025426E-1,-1.186879528E-1,7.794757218E-1
1.575062842E1,-5.130697846E-1,-3.662388906E-1,1.727934817E-1,6.536276587E-1
1.576064942E1,-3.163828987E-1,-6.152358449E-1,3.454921655E-1,7.732904498E-1
1.577067042E1,-2.109336269E-1,-9.200497350E-1,5.731288024E-1,1.104292142E0
1.578069142E1,-2.552414882E-1,-1.219965413E0,1.030976313E0,1.617521556E0
1.579071246E1,-4.933494651E-1,-1.439573092E0,1.571148015E0,2.187297526E0
1.580073346E1,-8.389216644E-1,-1.474125751E0,1.966026860E0,2.596555007E0
1.581075446E1,-9.624920422E-1,-1.339780416E0,1.890090240E0,2.508753398E0
1.582077546E1,-6.104943377E-1,-1.312033039E0,1.172825160E0,1.862700429E0
1.583079646E1,1.873032743E-1,-1.155982255E0,5.909020722E-1,1.311694610E0
1.584081746E1,1.088296056E0,-5.956172669E-1,2.134420641E-1,1.258850964E0
1.585083846E1,2.059627919E0,1.353975409E-1,-5.050626075E-1,2.124967740E0
1.586085946E1,3.321337189E0,4.837404433E-1,-1.373657722E0,3.626599106E0
1.587088046E1,5.192248562E0,1.724127549E-1,-2.252950902E0,5.662592962E0
1.588090146E1,7.480496766E0,-5.039899358E-1,-3.342106499E0,8.208624341E0
1.589092246E1,8.099033949E0,-1.617860836E0,-3.717087269E0,9.056962093E0
1.590094346E1,8.849013616E0,-2.743384653E0,-3.207076748E0,9.803904457E0
1.591096446E1,8.403803692E0,-3.147295985E0,-2.222363532E0,9.244906067E0
1.592098546E1,7.096186178E0,-2.756983815E0,-1.254154667E0,7.715550658E0
1.593100646E1,6.027422746E0,-1.951231943E0,-9.978489858E-1,6.413488415E0
1.594102746E1,5.186172135E0,-1.223167640E0,-1.318469946E0,5.489160546E0
1.595104846E1,4.620573889E0,-8.289486533E-1,-1.473164468E0,4.920068341E0
1.596106946E1,4.128619570E0,-7.619117877E-1,-1.221445928E0,4.372406577E0
1.597109046E1,3.510768265E0,-9.057769740E-1,-5.707046199E-1,3.670371848E0
1.598111146E1,2.690376427E0,-9.922730809E-1,7.033617536E-2,2.868392993E0
1.599113246E1,1.678925064E0,-9.230274296E-1,4.555238271E-1,1.969332618E0
1.600115346E1,6.428487360E-1,-6.873232430E-1,6.198288327E-1,1.126878662E0
1.601117446E1,-3.690207034E-1,-3.446401531E-1,6.962536955E-1,8.600711152E-1
1.602119446E1,-1.315643987E0,3.089581043E-2,7.775440264E-1,1.528544525E0
1.603121546E1,-2.205863859E0,4.121816334E-1,9.398294038E-1,2.432901225E0
1.604123646E1,-2.998082643E0,7.181219897E-1,8.152562284E-1,3.188862092E0
1.605125746E1,-3.647355130E0,9.485271370E-1,7.371046829E-1,3.840081573E0
1.606127846E1,-4.444200815E0,1.148913849E0,7.202296185E-1,4.646466896E0
1.607129946E1,-5.031648937E0,1.307308781E0,6.957286155E-1,5.245053439E0
1.608132046E1,-5.509757634E0,1.483977724E0,4.867339253E-1,5.726825385E0
1.609134146E1,-5.917255940E0,1.639701356E0,4.655319214E-1,6.157861510E0
1.610136246E1,-6.163899098E0,1.850325665E0,4.275086109E-1,6.449815561E0
1.611138346E1,-6.244476653E0,2.058179856E0,3.175868404E-1,6.582587211E0
1.612140446E1,-6.312831774E0,2.206187210E0,2.032924855E-1,6.690323972E0
1.613142546E1,-6.399149541E0,2.321899515E0,1.119133687E-1,6.808293237E0
1.614144646E1,-6.447911811E0,2.359949394E0,6.508418798E-2,6.866524872E0
1.615146746E1,-6.219048282E0,2.330532929E0,3.937869508E-2,6.641498020E0
1.616148846E1,-5.841813410E0,2.243250664E0,8.021678209E-2,6.258225962E0
1.617150946E1,-5.365487528E0,2.140579989E0,1.221109859E-1,5.778014382E0
1.618153046E1,-4.711243739E0,2.043465046E0,8.699019670E-2,5.136062135E0
1.619155146E1,-3.944311239E0,1.914981837E0,1.067444666E-1,4.385902526E0
1.620157246E1,-3.036417573E0,1.789409373E0,3.294485386E-1,3.539823996E0
1.621159346E1,-2.023975106E0,1.654927798E0,8.265764380E-1,2.741986480E0
1.622161446E1,-9.254820907E-1,1.525768652E0,1.160643071E0,2.128750670E0
1.623163546E1,9.781397760E-2,1.268788202E0,1.350787507E0,1.855806554E0
1.624165646E1,1.443413250E0,1.114688926E0,1.398704270E0,2.298335669E0
1.625167746E1,2.510503210E0,7.318068132E-1,1.560321311E0,3.045122357E0
1.626169846E1,3.190934924E0,1.686269751E-1,1.547541636E0,3.550406437E0
1.627171946E1,3.594223820E0,-3.967268577E-1,1.871180345E0,4.071504998E0
1.628174046E1,3.647091420E0,-7.238984540E-1,2.247969074E0,4.344959120E0
1.629176146E1,3.231228088E0,-7.008460987E-1,2.490352535E0,4.139308633E0
1.630178246E1,2.568257913E0,-3.174701884E-1,2.314844849E0,3.472066057E0
1.631180346E1,1.844179072E0,2.443981192E-1,1.856661124E0,2.628291730E0
1.632182446E1,1.092762160E0,8.014070982E-1,1.612068585E0,2.105979011E0
1.633184546E1,6.029198545E-1,1.418909909E0,1.416061730E0,2.093334303E0
1.634186646E1,8.214624631E-1,1.864091473E0,1.164985213E0,2.346663194E0
1.635188746E1,1.375583795E0,1.553804589E0,1.486417767E0,2.552641231E0
1.636190846E1,1.833469897E0,8.256774285E-1,1.079464422E0,2.282235421E0
1.637192946E1,2.814042115E0,1.231783220E-1,-6.833909905E-1,2.898452892E0
1.638195046E1,4.513467516E0,-7.157521132E-1,-1.676314867E0,4.867619710E0
1.639197146E1,5.897725655E0,-1.698155971E0,-2.266101290E0,6.542332662E0
1.640199246E1,8.213423613E0,-2.841472865E0,-2.168289067E0,8.957442323E0
1.641201346E1,9.118343970E0,-3.540737000E0,-1.475186582E0,9.892279349E0
1.642203446E1,8.761460332E0,-3.919410579E0,-6.298844357E-1,9.618821177E0
1.643205546E1,7.617753721E0,-3.418928680E0,-5.070869136E-1,8.365188714E0
