"Time (s)","Linear Acceleration x (m/s^2)","Linear Acceleration y (m/s^2)","Linear Acceleration z (m/s^2)","Absolute acceleration (m/s^2)"
5.184999987E-3,3.949943277E-1,1.294971156E-1,-7.205418599E-1,8.318476986E-1
1.520800000E-2,2.308904297E-1,1.123776376E-1,-9.010880917E-1,9.369625782E-1
2.523199999E-2,4.667915578E-1,2.373232806E-1,-6.972132236E-1,8.719650091E-1
3.525600000E-2,5.915558274E-1,2.149202585E-1,-4.876267952E-1,7.961839648E-1
4.527999999E-2,5.338445033E-1,3.263360292E-1,-3.201017278E-1,7.028159601E-1
5.530400001E-2,6.062415116E-1,3.938906658E-1,-5.270914078E-1,8.947088795E-1
6.532800000E-2,7.082484544E-1,1.510014206E-1,-7.447200966E-1,1.038761438E0
7.535100001E-2,8.598856866E-1,6.136892563E-1,-1.088088480E0,1.516560067E0
8.537500000E-2,6.827132982E-1,3.758636999E-1,-2.027457708E0,2.172085571E0
9.539899998E-2,5.055289961E-1,2.290073705E-1,-2.487591480E0,2.548747793E0
1.054230000E-1,9.535004132E-1,7.282239318E-2,-2.627970849E0,2.796550897E0
1.154470000E-1,1.307926686E0,-9.929624677E-2,-2.489407625E0,2.813837644E0
1.254700000E-1,1.690155518E0,-5.431010842E-2,-2.243086649E0,2.809094690E0
1.354940000E-1,1.753593861E0,-3.329141468E-1,-2.002069682E0,2.682201758E0
1.455180000E-1,2.098133588E0,-1.007902104E0,-1.367219353E0,2.699503651E0
1.555420000E-1,2.667212098E0,-1.260083159E0,-1.486606632E0,3.303305802E0
1.655660000E-1,3.163224970E0,-1.408929296E0,-1.400163150E0,3.735174804E0
1.755900000E-1,3.220569783E0,-1.165347156E0,-1.721589857E0,3.833272148E0
1.856130000E-1,2.422211715E0,8.253397518E-1,-1.593414212E0,3.014508940E0
1.956370000E-1,-4.171669402E0,6.089576894E-1,-2.112244674E0,4.715424968E0
2.056610000E-1,-3.812514998E0,-2.074043645E0,-3.592279036E0,5.633950330E0
2.156850000E-1,-5.616236016E-1,-3.965606214E0,-4.566680687E0,6.074209925E0
2.257090000E-1,9.867401531E-1,-5.068143749E0,-4.564520726E0,6.891631639E0
2.357330000E-1,2.651861987E0,-4.720887551E0,-5.078659966E0,7.423741531E0
2.457560000E-1,4.410234632E0,-3.264756022E0,-5.232359292E0,7.581977654E0
2.557800000E-1,4.539935815E0,-2.650698391E0,-4.521772317E0,6.934237092E0
2.658040000E-1,3.024865814E0,-3.164171634E0,-3.638505369E0,5.692145170E0
2.758280000E-1,1.562311411E0,-4.691318766E0,-3.278836702E0,5.932963748E0
2.858520000E-1,8.559636667E-1,-5.666197550E0,-4.327557634E0,7.180962578E0
2.958750000E-1,1.795032348E0,-5.482413130E0,-4.073620659E0,7.062108760E0
3.058990000E-1,2.170125092E0,-5.529193195E0,-3.208387109E0,6.750938316E0
3.159230000E-1,2.065940573E0,-6.144878690E0,-2.704710876E0,7.024464783E0
3.259470000E-1,1.462286893E0,-6.645457653E0,-2.660655030E0,7.306125893E0
3.359710000E-1,9.660167438E-1,-7.154011048E0,-2.343238344E0,7.589718596E0
3.459950000E-1,9.572564453E-1,-8.082843593E0,-1.236594894E0,8.232731466E0
3.560180000E-1,1.039464789E0,-9.007449186E0,2.750641340E-1,9.071399460E0
3.660420000E-1,1.006989938E0,-9.522079593E0,1.893744165E0,9.760650361E0
3.760660000E-1,1.077007422E0,-9.363090291E0,4.368855933E0,1.038818112E1
3.860900000E-1,1.326584128E0,-8.671942384E0,7.828441765E0,1.175784464E1
3.961140000E-1,2.265545220E0,-8.012790442E0,1.020734754E1,1.317298180E1
4.061370000E-1,3.679596092E0,-7.581002802E0,1.088986496E1,1.376953847E1
4.161610000E-1,4.655679402E0,-7.012040652E0,9.955868150E0,1.303700025E1
4.261850000E-1,5.370169394E0,-6.052775103E0,8.558228073E0,1.177786371E1
4.362090000E-1,5.810217395E0,-4.756216136E0,8.333165234E0,1.121703441E1
4.462330000E-1,6.295060916E0,-3.688792008E0,9.011954466E0,1.159527066E1
4.562570000E-1,7.191663024E0,-2.444972002E0,1.030902126E1,1.280522646E1
4.662800000E-1,8.087954060E0,-1.288213090E0,1.130440097E1,1.395936872E1
4.763040000E-1,8.177856170E0,-3.789260329E-1,1.162162879E1,1.421559609E1
4.863280000E-1,7.986986679E0,8.492098403E-1,1.168928342E1,1.418282272E1
4.963520000E-1,8.438080071E0,1.522298914E0,1.117349351E1,1.408423042E1
5.063760000E-1,9.563860872E0,1.608095402E0,1.010472306E1,1.400567148E1
5.164000000E-1,1.057767860E1,1.570000207E0,8.793034712E0,1.384448066E1
5.264230000E-1,1.071187454E1,2.929995325E0,8.027571618E0,1.370295716E1
5.364470000E-1,9.927173524E0,6.087678888E0,7.173201025E0,1.367711305E1
5.464710000E-1,9.024961013E0,6.105885363E0,5.823057881E0,1.235474647E1
5.564950000E-1,7.566764832E0,4.788695957E0,5.129448881E0,1.031982484E1
5.665190000E-1,5.890618365E0,5.069656423E0,5.513795137E0,9.529047055E0
5.765420000E-1,4.922638711E0,6.271984879E0,6.060009863E0,1.001468351E1
5.865660000E-1,4.895395071E0,7.576496353E0,4.829076244E0,1.023172357E1
5.965900000E-1,6.023036749E0,8.814248410E0,1.825534641E0,1.083053662E1
6.066140000E-1,7.348143870E0,7.785265925E0,9.949885279E-1,1.075153877E1
6.166380000E-1,6.963507593E0,7.474731996E0,1.502147362E0,1.032562362E1
6.266620000E-1,4.429660836E0,6.991960144E0,-2.211934438E0,8.567499970E0
6.366850000E-1,2.821777981E0,5.936969243E0,-3.541046317E0,7.466528229E0
6.467090000E-1,4.564862203E0,7.730579256E0,-4.460656634E0,1.002483317E1
6.567330000E-1,3.917901413E0,5.519457580E0,-5.615521486E0,8.794796474E0
6.667570000E-1,3.247866632E0,5.559709228E0,-6.301730250E0,9.009484364E0
6.767810000E-1,4.038958072E0,4.497551395E0,-7.402039411E0,9.556743080E0
6.868050000E-1,2.107920658E0,2.557028920E0,-6.763293082E0,7.531524395E0
6.968280000E-1,1.453260546E0,2.409875552E0,-7.194958515E0,7.725729378E0
7.068520000E-1,1.385695969E0,1.541067014E0,-6.997800343E0,7.298236123E0
7.168760000E-1,6.648947856E-1,5.543955660E-1,-4.884494399E0,4.960617407E0
7.269000000E-1,-7.992246249E-1,5.427210152E-1,-3.001061214E0,3.152724935E0
7.369240000E-1,-2.231320005E0,1.343370314E0,-2.235004043E0,3.432007552E0
7.469470000E-1,-2.695278733E0,2.330873821E0,-1.808157885E0,3.995864757E0
7.569710000E-1,-2.538930326E0,2.825269353E0,-1.512706849E0,4.088593417E0
7.669950000E-1,-2.294406784E0,3.094534804E0,-1.762940197E0,4.236555945E0
7.770190000E-1,-1.668254187E0,2.416053720E0,-2.382499473E0,3.781096581E0
7.870430000E-1,-4.901849520E-1,1.178886968E0,-1.640444537E0,2.078728951E0
7.970670000E-1,-1.014181429E0,-2.334138322E-1,1.184876271E0,1.577015461E0
8.070900000E-1,-1.125362433E0,-7.908879572E-1,6.524709141E-1,1.522387159E0
8.171140000E-1,1.718855699E0,-2.571903067E0,-9.108219516E-1,3.224708813E0
8.271380000E-1,3.457984572E0,-1.607417709E0,1.744911477E0,4.193586181E0
8.371620000E-1,-3.385382912E-1,1.607223582E0,2.358619444E0,2.874171446E0
8.471860000E-1,-2.342668532E0,3.798415607E-1,1.505363331E0,2.810425986E0
8.572100000E-1,-3.370750254E-1,-9.083468252E-1,1.197910300E0,1.540682516E0
8.672330000E-1,2.480502316E0,9.737806767E-1,5.605257869E-2,2.665385983E0
8.772570000E-1,7.999259984E-1,2.754856013E0,-1.335757824E0,3.164389707E0
8.872810000E-1,1.215109885E-2,-1.465471287E0,-2.672515522E0,3.047965380E0
8.973050000E-1,2.330573274E0,-2.547684485E0,1.250848067E-1,3.455128685E0
9.073290000E-1,3.508769102E0,-1.644487887E0,1.688272423E0,4.226826800E0
9.173520000E-1,3.165804761E0,-5.051994324E-1,1.195702099E0,3.421585855E0
9.273760000E-1,3.228592747E0,-1.334311808E0,1.929605724E0,3.990936905E0
9.374000000E-1,3.065408653E0,-7.115383172E-1,3.575219200E0,4.762899255E0
9.474240833E-1,2.322830392E0,-3.340689719E-2,3.654498673E0,4.330359985E0
9.574480833E-1,2.501163452E0,2.856394082E-1,2.817764744E0,3.778519107E0
9.674720833E-1,2.856598735E0,2.570020849E-1,1.796329260E0,3.384228895E0
9.774950833E-1,1.920622646E0,3.275738847E-1,6.111603355E-1,2.041963015E0
9.875190833E-1,3.500137442E-1,1.331901001E0,2.399755776E-2,1.377332850E0
9.975430833E-1,-1.192626171E0,9.496878093E-1,-5.308482438E-1,1.614330814E0
1.007567083E0,-1.263344151E0,4.968729973E-2,-7.184070414E-1,1.454171912E0
1.017591083E0,-1.023498967E0,-7.759535837E-1,-3.578899437E-1,1.333318908E0
1.027615083E0,-1.388141275E0,-9.415022922E-1,1.326937884E-2,1.677360677E0
1.037638083E0,-1.759358777E0,1.594424611E-1,1.653308997E-1,1.774288452E0
1.047662083E0,-2.476648416E0,2.493527573E-1,1.485754108E-1,2.493599572E0
1.057686083E0,-3.393606436E0,5.053397655E-2,-6.586888433E-2,3.394621781E0
1.067710083E0,-3.925411284E0,3.884159178E-1,-2.088455862E-1,3.950105967E0
1.077734083E0,-4.013493741E0,4.139343363E-1,-1.386784136E-2,4.034806805E0
1.087757083E0,-3.614500210E0,5.433852589E-1,4.536883861E-1,3.683166091E0
1.097781083E0,-2.711445115E0,9.434739733E-1,7.939255857E-1,2.978656674E0
1.107805083E0,-2.508333893E0,1.163822787E0,6.565990484E-1,2.842066978E0
1.117829083E0,-2.800767181E0,1.538973711E0,7.439754537E-1,3.281194350E0
1.127853083E0,-2.289905890E0,1.224631491E0,4.716136104E-1,2.639282226E0
1.137877083E0,-1.745380424E0,9.041192883E-1,-3.966783258E-1,2.005277588E0
1.147900083E0,-1.970045067E0,2.288354623E-1,-6.281935671E-1,2.080401498E0
1.157924083E0,-2.736513298E0,-2.582071960E-1,-2.011757934E-1,2.756020262E0
1.167948083E0,-1.829539399E0,1.307716332E0,-7.272585565E-1,2.363523096E0
1.177972083E0,-1.320714692E0,1.956507009E0,-1.580020873E0,2.840540958E0
1.187996083E0,-7.138222396E-1,7.626991153E-1,-1.607328247E0,1.916965368E0
1.198020083E0,6.419611287E-1,-3.536887193E-1,-1.168673637E0,1.379495513E0
1.208043083E0,1.392341915E0,-6.753224176E-1,-7.328464481E-1,1.712232546E0
1.218067083E0,1.499203874E0,-3.433748156E-1,-3.773138094E-1,1.583630080E0
1.228091083E0,6.084986830E-1,-3.452020705E-2,-3.310670114E-1,6.935904108E-1
1.238115083E0,7.120511180E-1,9.622587383E-2,-6.942732435E-1,9.991454099E-1
1.248139083E0,2.767584817E0,-8.060807776E-1,-5.828919715E-1,2.940927573E0
1.258163083E0,4.536964552E0,-1.731864000E0,2.908510315E-1,4.864976319E0
1.268186083E0,4.487176681E0,-3.422107519E0,9.576183879E-1,5.723862980E0
1.278210083E0,2.242037659E0,-3.600528288E0,9.857797480E-1,4.354572140E0
1.288234083E0,9.653068918E-1,-2.502771437E0,1.072665864E-1,2.684620714E0
1.298258083E0,2.217006313E0,-1.956335101E0,-4.825449800E-1,2.995866098E0
1.308282083E0,2.749130419E0,-2.517583603E0,-4.615897286E-1,3.756196260E0
1.318305083E0,2.599786685E0,-2.673589656E0,-1.099089432E-1,3.730824631E0
1.328329083E0,2.229224655E0,-2.433452695E0,5.361534226E-1,3.343440604E0
1.338353083E0,2.058513440E0,-2.611695124E0,9.194401628E-1,3.450188287E0
1.348377083E0,2.199445955E0,-2.741025009E0,1.040193060E0,3.665076017E0
1.358401083E0,2.320192713E0,-2.774241872E0,1.479963611E0,3.907685309E0
1.368425083E0,2.275757382E0,-2.746044844E0,2.252170883E0,4.218069183E0
1.378448083E0,2.225461387E0,-2.166472337E0,2.350103559E0,3.894774385E0
1.388472083E0,2.070903690E0,-1.494373489E0,1.920409223E0,3.195272414E0
1.398496083E0,1.634785602E0,-1.076616243E0,1.640904713E0,2.554250336E0
1.408520083E0,1.008963373E0,-7.538435072E-1,1.556783745E0,2.002464170E0
1.418544083E0,4.753540742E-1,-3.018747872E-1,1.665426766E0,1.758048975E0
1.428568083E0,3.247578657E-1,-2.490030938E-1,8.506166804E-1,9.439380006E-1
1.438591083E0,1.895755023E-1,1.021163589E-1,1.470001709E-1,2.607214454E-1
1.448615083E0,-3.194597036E-1,5.518116814E-1,4.678550202E-1,7.908469851E-1
1.458639083E0,-5.185193896E-2,9.518390000E-2,6.796686530E-2,1.279378489E-1
1.468663083E0,-1.200880685E0,9.169808239E-1,1.037934573E0,1.833105679E0
1.478687083E0,-1.750784420E0,1.272033699E0,1.300428947E0,2.524763605E0
1.488711083E0,-1.282334154E0,4.243920815E-1,-4.254703081E-1,1.416161892E0
1.498734083E0,-1.367925112E0,2.531347364E-1,-5.959727776E-1,1.513433136E0
1.508758083E0,-1.233578900E0,8.219384265E-1,-5.155706388E-1,1.569430713E0
1.518782083E0,-9.949867737E-1,9.712728059E-1,-7.857827532E-1,1.597129950E0
1.528806083E0,-7.125592411E-1,1.106420671E0,-8.880523092E-1,1.587622208E0
1.538830083E0,-6.107785124E-1,1.088639288E0,-6.900889760E-1,1.426326991E0
1.548853083E0,-1.032920001E0,1.717198014E0,5.635178071E-1,2.081644798E0
1.558877083E0,-9.842384219E-1,1.551308997E0,4.961947203E-1,1.903022353E0
1.568901083E0,-5.888438523E-2,5.456352675E-1,-2.915434588E0,2.966638511E0
1.578925083E0,1.349283019E-1,2.343162915E0,2.551276429E0,3.466645282E0
1.588949083E0,-1.488714554E0,2.265515984E0,5.889478742E0,6.483424524E0
1.598973083E0,-2.745009594E0,2.463206837E0,2.937009645E-1,3.699827813E0
1.608996083E0,-2.729314790E0,2.690816723E0,-2.077361940E0,4.359482365E0
1.619020083E0,-3.116465078E0,2.999784182E0,-1.871235309E0,4.713022523E0
1.629044083E0,-4.312494914E0,2.954316818E0,-2.353045878E0,5.732575786E0
1.639068083E0,-4.395177174E0,1.936387909E0,-3.528558419E0,5.959690012E0
1.649092083E0,-2.914080665E0,1.299512689E0,-4.492535069E0,5.510305862E0
1.659116083E0,-1.497063208E0,7.556573135E-1,-5.013378727E0,5.286414899E0
1.669139083E0,-5.067179543E-1,9.022826779E-1,-4.447704467E0,4.566503273E0
1.679163083E0,2.072919810E-1,5.403306735E-1,-3.154285746E0,3.206937132E0
1.689187083E0,3.723389983E-1,2.815855336E-1,-1.549149036E0,1.617958429E0
1.699211083E0,-1.792580903E-1,3.117413789E-1,-3.429491383E-1,4.969207801E-1
1.709235083E0,-2.046139562E-1,-1.516691726E-1,-1.655416918E-1,3.037671159E-1
1.719259083E0,9.311942357E-1,-2.453257799E-1,-7.906955838E-2,9.662087962E-1
1.729282083E0,2.347550665E0,-6.643910480E-1,-1.370259905E-1,2.443600972E0
1.739306083E0,2.816841177E0,-1.049609123E0,3.191831303E-1,3.022937544E0
1.749330083E0,2.413980297E0,-1.042027039E0,7.795262325E-1,2.742404488E0
1.759354083E0,1.988550335E0,-1.206964713E0,9.315643644E-1,2.505775014E0
1.769378083E0,1.758846561E0,-1.305832944E0,7.045403695E-1,2.301112348E0
1.779401083E0,1.848896606E0,-1.243998054E0,3.962482631E-1,2.263396232E0
1.789425083E0,1.839793661E0,-1.013805453E0,2.027943027E-1,2.110395162E0
1.799449083E0,1.450799161E0,-1.007480519E0,-9.238600731E-4,1.766305765E0
1.809473083E0,1.012216764E0,-9.752980292E-1,-1.274119985E-1,1.411390393E0
1.819497083E0,8.904350495E-1,-9.612851769E-1,2.534651041E-2,1.310567135E0
1.829521083E0,1.093090481E0,-1.040085179E0,-5.442997634E-2,1.509829991E0
1.839544083E0,9.277125111E-1,-9.819270176E-1,-3.436174750E-1,1.393880963E0
1.849568083E0,5.037130702E-1,-9.402106422E-1,-4.745904279E-1,1.167458343E0
1.859592083E0,-4.007476956E-2,-9.323040372E-1,-7.381139123E-1,1.189793660E0
1.869616083E0,-3.894301173E-1,-9.439727408E-1,-1.075553219E0,1.483089707E0
1.879640083E0,-4.940490845E-1,-8.369581693E-1,-9.249581802E-1,1.341689647E0
1.889664083E0,-5.266823950E-1,-5.785170847E-1,-6.652190137E-1,1.026933639E0
1.899687083E0,-5.861436081E-1,-4.292166191E-1,-8.524760950E-1,1.120047645E0
1.909711083E0,-8.633109856E-1,-3.388426387E-1,-9.207283044E-1,1.306851484E0
1.919735083E0,-1.210266051E0,-2.762809396E-1,-4.285845351E-1,1.313301099E0
1.929759083E0,-1.344768676E0,-1.802100170E-1,-2.147565365E-2,1.356959707E0
1.939783083E0,-1.352858006E0,-1.271822029E-1,-3.379807591E-2,1.359243322E0
1.949810208E0,-1.525929158E0,-1.131956631E-1,1.626648617E-1,1.538743939E0
1.959833208E0,-1.790724704E0,-1.233247948E-1,3.151964986E-1,1.822430466E0
1.969857208E0,-1.834703075E0,-2.970976120E-1,-1.351993203E-2,1.858651434E0
1.979881208E0,-1.901803090E0,-4.201709765E-1,-3.706082225E-2,1.948017492E0
1.989905208E0,-1.984400566E0,-5.342139012E-1,3.623963928E-1,2.086758550E0
1.999929208E0,-1.697093240E0,-7.374777353E-1,5.375912529E-1,1.926915470E0
2.009952208E0,-1.396075362E0,-6.622375184E-1,7.632066536E-1,1.723388912E0
2.019976208E0,-1.425379853E0,-4.884202623E-1,1.049293959E0,1.836104542E0
2.030000208E0,-1.563372388E0,-4.248610282E-1,1.171342891E0,1.999170899E0
2.040024208E0,-1.503816742E0,-3.497821945E-1,1.058074138E0,1.871719332E0
2.050048208E0,-1.282964483E0,-2.047601366E-1,1.010925114E0,1.646175618E0
2.060072208E0,-9.484698343E-1,-6.067480266E-2,9.283922499E-1,1.328604015E0
2.070095208E0,-5.596112823E-1,4.271624923E-2,8.754071206E-1,1.039868786E0
2.080119208E0,-2.365581724E-1,5.666419744E-2,7.554058832E-1,7.936048441E-1
2.090143208E0,-1.875564587E-1,1.202357107E-1,7.003175104E-1,7.349004468E-1
2.100167208E0,-3.612632024E-1,3.370440352E-1,5.923808330E-1,7.713785286E-1
2.110191208E0,-4.309333616E-1,4.420606130E-1,6.073298246E-1,8.660084662E-1
2.120215208E0,-3.486387715E-1,5.449324322E-1,7.656829494E-1,1.002382526E0
2.130238208E0,-1.743344423E-1,6.098762870E-1,7.342956805E-1,9.703255792E-1
2.140262208E0,1.035208601E-1,5.511316502E-1,5.505966300E-1,7.858875958E-1
2.150286208E0,3.699825704E-3,7.199273175E-1,6.497139519E-1,9.697614400E-1
2.160310208E0,-2.498909935E-1,1.047830985E0,3.575934899E-1,1.135019113E0
2.170334208E0,-3.597917506E-1,5.991817296E-1,1.908770925E-1,7.245018380E-1
2.180358208E0,-2.558151001E-1,1.566866684E-1,4.267438316E-1,5.216343310E-1
2.190381208E0,6.342299402E-2,9.772568464E-2,5.008374095E-1,5.142090007E-1
2.200405208E0,3.030436456E-1,1.595137972E-1,5.880234879E-1,6.804790408E-1
2.210429208E0,4.697208667E-1,1.930241901E-1,7.874655819E-1,9.370155139E-1
2.220453208E0,5.661046153E-1,1.431907099E-1,7.993670046E-1,9.899321305E-1
2.230477208E0,5.946378583E-1,-3.245438576E-2,7.687188238E-1,9.724073733E-1
2.240501208E0,4.940201408E-1,-2.942856860E-1,9.462198257E-1,1.107245196E0
2.250524208E0,2.749340335E-1,-5.864424008E-1,1.088605959E0,1.266714785E0
2.260548208E0,2.021958402E-1,-2.210621738E-1,8.339567935E-1,8.861351906E-1
2.270572208E0,2.711067384E-1,1.277944064E-1,4.285588074E-1,5.229655106E-1
2.280596208E0,9.478760496E-1,-7.680791384E-1,3.524385846E-1,1.269892721E0
2.290620208E0,8.537034255E-1,-3.809361595E-1,3.924616063E-1,1.013877709E0
2.300644208E0,-8.024484873E-2,7.312989825E-1,-5.426941180E-1,9.141960092E-1
2.310667208E0,-1.819188657E-1,6.245890510E-1,-6.701762831E-1,9.339926160E-1
2.320691208E0,3.934380913E-1,7.826211637E-1,-1.568223238E-2,8.760909485E-1
2.330715208E0,9.818878412E-1,8.381357986E-1,4.280290496E-1,1.360067725E0
2.340739208E0,9.416151434E-1,4.010885882E-1,6.133916330E-1,1.193214327E0
2.350763208E0,8.940495059E-1,8.161485136E-1,6.951205051E-1,1.395928161E0
2.360787208E0,7.327926537E-1,9.958889991E-1,4.670159447E-1,1.321697342E0
2.370810208E0,4.588941622E-1,1.009378526E0,3.150491488E-1,1.152685918E0
2.380834208E0,2.523857081E-1,1.099135040E0,2.739356214E-1,1.160533113E0
2.390858208E0,2.449012721E-1,1.033604710E0,2.474910039E-1,1.090672786E0
2.400882208E0,4.662350491E-1,9.224047011E-1,3.075699753E-1,1.078334291E0
2.410906208E0,6.202609420E-1,7.030031365E-1,4.982096708E-1,1.061673171E0
2.420930208E0,6.160933390E-1,4.711902720E-1,6.157351971E-1,9.903136411E-1
2.430953208E0,4.970811582E-1,5.482542354E-1,4.131584108E-1,8.475684378E-1
2.440977208E0,3.387169236E-1,7.560011297E-1,4.896347290E-1,9.622936300E-1
2.451001208E0,2.868047583E-1,8.771051520E-1,8.776588833E-1,1.273520920E0
2.461025208E0,2.646698311E-1,1.001827431E0,9.980875522E-1,1.438710215E0
2.471049208E0,3.437735957E-1,9.641783792E-1,8.767057872E-1,1.347751190E0
2.481072208E0,4.398296079E-1,1.274068530E0,6.124660188E-1,1.480478074E0
2.491096208E0,3.196894991E-1,1.228494161E0,4.826858979E-1,1.358081351E0
2.501120208E0,3.995545712E-1,6.941750103E-1,6.198060286E-1,1.012759751E0
2.511144208E0,5.568385327E-1,7.086854607E-1,6.751125026E-1,1.126091082E0
2.521168208E0,5.239596391E-1,6.900316733E-1,6.886429596E-1,1.106754959E0
2.531192208E0,3.055810449E-1,7.795010895E-1,8.538940448E-1,1.195883256E0
2.541215208E0,4.828718394E-2,1.063620806E0,7.518987232E-1,1.303446417E0
2.551239208E0,1.058486366E-1,1.316001837E0,5.999564856E-1,1.450176732E0
2.561263208E0,-1.946187258E-2,1.567663659E0,7.493323803E-1,1.737655642E0
2.571287208E0,2.086605218E-1,1.487526984E0,8.408342886E-1,1.721417452E0
2.581311208E0,4.084595883E-1,1.532603170E0,7.316024530E-1,1.746697988E0
2.591335208E0,6.189590594E-1,1.264698951E0,1.006145015E0,1.730578385E0
2.601358208E0,9.064023337E-1,1.007217979E0,1.089821595E0,1.738897455E0
2.611382208E0,1.291818630E0,8.557353330E-1,1.275062556E0,2.006704476E0
2.621406208E0,1.295499744E0,8.783646423E-1,1.382827910E0,2.088553821E0
2.631430208E0,9.876055411E-1,1.110203235E0,1.445997720E0,2.073360878E0
2.641454208E0,5.155101201E-1,1.235635951E0,1.448802044E0,1.972707340E0
2.651478208E0,2.755111536E-1,1.042965517E0,1.528363354E0,1.870715907E0
2.661501208E0,-7.814832956E-2,1.021955302E0,1.380486685E0,1.719372934E0
2.671525208E0,-3.917830369E-1,1.026143955E0,4.391545469E-1,1.182929448E0
2.681549208E0,-1.746379128E-1,7.299664021E-2,1.046160436E0,1.063145600E0
2.691573208E0,-9.720852765E-1,2.491176993E-1,1.224691717E0,1.583312734E0
2.701597208E0,-1.825523238E0,3.813288000E-1,9.907089508E-1,2.111741218E0
2.711621208E0,-2.307258672E0,3.641093346E-1,8.564773446E-1,2.487884971E0
2.721644208E0,-2.597927855E0,3.805666155E-1,4.534843183E-1,2.664527747E0
2.731668208E0,-2.649124905E0,2.318912172E-1,-1.581706917E-1,2.663954630E0
2.741692208E0,-2.561604951E0,-3.721197277E-1,-1.189820677E-1,2.591225530E0
2.751716208E0,-2.291338457E0,-9.304776594E-1,9.748536408E-2,2.474979595E0
2.761740208E0,-2.171401539E0,-4.070492399E-1,5.974334121E-2,2.210032352E0
2.771764208E0,-2.404596101E0,-4.511278903E-1,-5.146134496E-2,2.447089506E0
2.781787208E0,-2.607804387E0,-7.840335587E-1,-1.907964009E-1,2.729790396E0
2.791811208E0,-2.058755515E0,-2.775813603E-1,-7.359627217E-1,2.203898094E0
2.801835208E0,-1.154942036E0,-1.836452562E-1,-1.148487294E0,1.639097237E0
2.811859208E0,1.058062443E-1,5.731057790E-1,-3.210458778E0,3.262926717E0
2.821883208E0,1.225910277E0,-1.082313770E-1,3.578501242E0,3.784209452E0
2.831907208E0,-2.804397717E-1,-1.215462179E0,-1.033080799E0,1.619645243E0
2.841930208E0,1.549006364E-1,-1.259068667E0,-5.116354626E0,5.271274303E0
2.851954208E0,1.122977062E0,-1.854720725E0,-2.605458484E0,3.389613600E0
2.861978208E0,3.164577430E-1,-1.871827924E0,-3.533203447E0,4.010911602E0
2.872002208E0,-2.183850262E-1,-1.566267052E0,-2.654754020E0,3.090081456E0
2.882026208E0,-3.861176696E-1,-1.578138362E0,-6.088711506E-1,1.735030726E0
2.892049208E0,-1.962492219E-1,-1.507111064E0,5.626255220E-1,1.620631048E0
2.902073208E0,-3.589284092E-2,-7.552433306E-1,1.773544707E0,1.927989008E0
2.912097208E0,-1.000289029E-1,-4.114749974E-1,2.625940695E0,2.659865032E0
2.922121208E0,5.099210590E-2,-3.046925604E-1,2.552987909E0,2.571611366E0
2.932145208E0,5.189231399E-1,-1.297514695E-1,2.160300601E0,2.225537093E0
2.942169208E0,6.715743524E-1,-2.048104227E-1,1.578903177E0,1.727974150E0
2.952190208E0,5.327830875E-1,-1.813768288E-1,1.057222783E0,1.197695865E0
2.962213208E0,-8.991380453E-2,1.085213989E-1,7.149706328E-1,7.287279273E-1
2.972237208E0,-1.058495429E0,4.584629300E-1,4.869473487E-1,1.252085681E0
2.982261208E0,-1.670704171E0,5.420211035E-1,1.649417675E-1,1.764155631E0
2.992285208E0,-2.162554702E0,6.794841734E-1,1.189884996E-1,2.269911858E0
3.002309208E0,-2.429757255E0,4.492705223E-1,-4.867099518E-1,2.518422303E0
3.012332208E0,-2.632946537E0,3.885653141E-1,-3.431935519E-1,2.683500006E0
3.022356208E0,-2.708880526E0,5.521636838E-1,3.296151477E-1,2.784163175E0
3.032380208E0,-3.278066916E0,5.576042256E-1,1.240745832E0,3.549097829E0
3.042404208E0,-4.173357494E0,6.744745713E-1,1.031761082E0,4.351592771E0
3.052428208E0,-4.144417577E0,1.282859818E0,-5.201034003E-1,4.369488976E0
3.062452208E0,-2.750022705E0,2.006024739E-1,-1.137821973E0,2.982868598E0
3.072476208E0,-1.653739936E0,-7.873644251E-1,-5.509860545E-1,1.912690290E0
3.082499208E0,-1.210456671E0,-1.428311062E-1,7.311492938E-1,1.421332250E0
3.092523208E0,-8.954285717E-1,-4.995741186E-1,1.753448412E0,2.031242959E0
3.102547208E0,-7.495627606E-1,-9.708927369E-1,3.453424621E0,3.664780847E0
3.112571208E0,-7.852874941E-1,-2.137800515E-1,3.484503742E0,3.578287955E0
3.122595208E0,-1.785388827E-2,1.295669314E0,2.476102578E0,2.794666655E0
3.132618208E0,7.185754412E-1,8.475275964E-1,1.191851415E0,1.629467240E0
3.142642208E0,1.245223630E0,6.316337764E-2,-7.227392435E-2,1.248917540E0
3.152666208E0,1.974030529E0,-1.610141927E-1,-1.044793941E0,2.239266952E0
3.162690208E0,2.504910933E0,5.244350177E-1,-1.586292596E0,3.010969125E0
3.172714208E0,3.229278626E0,9.561331952E-1,-1.846019776E0,3.840601534E0
3.182738208E0,3.287747859E0,1.498452507E0,-2.131984289E0,4.195235739E0
3.192762208E0,2.916680045E0,1.506761400E0,-2.705397339E0,4.254001313E0
3.202785208E0,2.938810587E0,3.170325243E-1,-3.662683898E0,4.706630496E0
3.212809208E0,2.802768098E0,-5.424871266E-1,-3.644647577E0,4.629606598E0
3.222833208E0,2.710496696E0,-1.019877201E-1,-3.067907461E0,4.095027475E0
3.232857208E0,2.074154157E0,1.779746264E-1,-2.100489724E0,2.957337910E0
3.242881208E0,1.019724004E0,-9.359345734E-2,-1.235305875E0,1.604548966E0
3.252905208E0,1.354647839E-1,-2.918403804E-2,-4.410829586E-1,4.623381794E-1
3.262928208E0,-5.057847387E-1,2.728398532E-1,-4.183361202E-1,7.108198765E-1
3.272952208E0,-1.340139728E0,1.394479072E-1,1.395663133E-1,1.354584425E0
3.282976208E0,-1.913358650E0,-3.796579581E-1,1.407958074E0,2.405707261E0
3.293000208E0,-2.264786836E0,-6.564552069E-1,1.962490464E0,3.067826865E0
3.303024208E0,-2.417876297E0,-7.640813971E-1,1.782357631E0,3.099474938E0
3.313048208E0,-2.397707496E0,-5.432601285E-1,1.269065067E0,2.766705432E0
3.323071208E0,-2.409221249E0,-2.244313395E-1,9.187548691E-1,2.588209219E0
3.333095208E0,-2.270080320E0,-9.961492002E-2,7.318942291E-1,2.387227881E0
3.343119208E0,-1.886649154E0,-1.715356725E-1,3.238594410E-1,1.921914268E0
3.353143208E0,-1.314923610E0,-6.442696095E-2,-4.116498291E-2,1.317144445E0
3.363167208E0,-2.757517666E-1,-6.013861299E-2,1.535168928E-1,3.212835600E-1
3.373190208E0,5.466339719E-1,-2.555905670E-1,4.587968060E-1,7.580433671E-1
3.383214208E0,7.678931969E-1,-1.772279370E-1,6.819360571E-1,1.042164329E0
3.393238208E0,5.093649888E-1,-3.753386199E-2,1.184452787E0,1.289879796E0
3.403262208E0,3.863489270E-2,1.552587783E-1,1.700712081E0,1.708221159E0
3.413286208E0,-1.278522938E-1,4.409701073E-1,1.712360612E0,1.772845089E0
3.423310208E0,-1.211852986E-1,5.363422877E-1,1.166707218E0,1.289788610E0
3.433333208E0,-4.619709671E-2,2.312246346E-1,5.829986832E-1,6.288771486E-1
3.443357208E0,2.430254853E-1,1.138133630E0,4.570607677E-1,1.250325594E0
3.453381208E0,7.952885717E-1,1.897010420E0,3.237730484E-1,2.082297153E0
3.463405208E0,1.078244693E0,1.956680086E0,1.047117917E-1,2.236553853E0
3.473429208E0,5.705400208E-1,2.190042463E0,-4.931104602E-1,2.316238293E0
3.483453208E0,-1.420814931E-2,2.698233331E0,-1.185221988E0,2.947103008E0
3.493477208E0,-6.892817679E-1,3.939767953E0,-1.531061259E0,4.282642812E0
3.503500208E0,-3.717864364E-1,4.224879942E0,-1.751321195E0,4.588568579E0
3.513524208E0,-9.075010255E-1,4.082275123E0,-1.420034328E0,4.416449454E0
3.523548208E0,-3.723822677E-1,3.303331273E0,-7.270259835E-1,3.402827183E0
3.533572208E0,-6.232702115E-1,2.812858053E0,-1.971945705E-1,2.887823035E0
3.543596208E0,-5.194578677E-1,2.848178744E0,1.885686117E-1,2.901295703E0
3.553619208E0,-7.516724360E-1,3.035080900E0,1.238375956E-1,3.129227264E0
3.563643208E0,-5.279249284E-1,3.463487095E0,-3.217680381E-1,3.518235674E0
3.573667208E0,-9.889622413E-1,3.154996183E0,-3.028315379E-1,3.320203935E0
3.583691208E0,-2.555841935E0,9.450264090E-1,1.483707583E-1,2.728995565E0
3.593715208E0,-2.107481240E0,2.088642973E-1,5.880193949E-2,2.118621990E0
3.603739208E0,-9.519050735E-1,1.303829688E-1,3.254631861E-1,1.014420659E0
3.613762208E0,-9.224349605E-1,3.597645611E-1,8.054954714E-1,1.276377589E0
3.623786208E0,-6.912990573E-1,3.816366559E-1,1.261672432E0,1.488407958E0
3.633810208E0,-1.452626708E-1,8.571252161E-1,1.468320050E0,1.706378812E0
3.643834208E0,3.691446644E-1,1.053148443E0,1.453047123E0,1.832139560E0
3.653858208E0,3.568209265E-1,1.081435518E0,1.126323423E0,1.601695479E0
3.663882208E0,1.604313715E-1,1.364020926E0,3.802175367E-1,1.425081291E0
3.673906208E0,-2.699216540E-1,1.849957291E0,-2.694788736E-1,1.888866999E0
3.683929208E0,-4.484402177E-1,2.154605412E0,-9.352592931E-1,2.391261813E0
3.693953208E0,-5.568147053E-1,1.307267266E0,-1.427672546E0,2.014258975E0
3.703977208E0,-8.267069770E-1,4.713206649E-1,-1.520581294E0,1.793810209E0
3.714001208E0,-1.176284665E0,-3.887036008E-1,-1.235320201E0,1.749500529E0
3.724025208E0,-9.481457524E-1,3.983363038E-1,-6.134249622E-1,1.197473325E0
3.734048208E0,-8.831175515E-1,6.681244951E-1,-9.976168513E-2,1.111863006E0
3.744072208E0,-2.788598540E-1,-4.725076497E-1,4.396411814E-1,7.030723046E-1
3.754096208E0,5.089951524E-1,-2.162158261E0,9.589018518E-1,2.419400168E0
3.764120208E0,-2.819232103E-1,-3.983409816E0,6.506233402E-1,4.046028323E0
3.774144208E0,-1.197654046E0,-5.309984588E0,7.134355925E-2,5.443840688E0
3.784168208E0,-1.077464382E0,-9.179564318E0,-3.544454952E-1,9.249376313E0
3.794192208E0,7.376993448E-2,-1.081305944E1,-1.254756200E-1,1.081403905E1
3.804215208E0,7.401450158E-1,-1.202598480E1,9.012189963E-1,1.208239715E1
3.814239208E0,1.079047369E-1,-1.089700908E1,1.938282261E0,1.106857663E1
3.824263208E0,-1.340806603E0,-4.197944743E0,2.507883657E0,5.070501242E0
3.834287208E0,-1.876263329E0,1.400912179E0,1.264513010E0,2.661186233E0
3.844311208E0,-7.449408290E-1,1.394336400E0,-1.578721914E0,2.234160629E0
3.854335208E0,-1.656921114E-1,2.960761034E-1,-2.380886811E0,2.404940112E0
3.864358208E0,-2.405632228E-1,3.139621514E-1,-9.412275461E-1,1.020956508E0
3.874382208E0,-7.836730778E-4,4.607407129E-1,-9.389341950E-2,4.702112216E-1
3.884406208E0,3.316321447E-2,4.542970812E-1,-7.957241893E-2,4.624039432E-1
3.894430208E0,-2.784663364E-2,3.887316674E-1,-2.324630749E-1,4.537916102E-1
3.904454208E0,1.661662475E-1,2.246471018E-1,-3.664917827E-2,2.818167923E-1
3.914478208E0,1.477861098E-1,2.264696789E-1,3.827657533E-1,4.686564537E-1
3.924501208E0,-4.931760952E-3,1.538800049E-1,5.665337279E-1,5.870807806E-1
3.934525208E0,-5.060005009E-2,9.401679575E-2,6.431767648E-1,6.519784305E-1
3.944549208E0,-2.253370732E-1,1.741885543E-1,5.762542123E-1,6.427965200E-1
3.954576625E0,-4.840525384E-1,2.922151870E-1,4.469069315E-1,7.207096370E-1
3.964600625E0,-5.883717627E-1,3.792112309E-1,2.741051906E-1,7.517420730E-1
3.974624625E0,-6.164277267E-1,5.214102530E-1,5.336695254E-2,8.091352333E-1
3.984647625E0,-5.066802397E-1,1.518574530E-1,3.187194461E-1,6.175497038E-1
3.994671625E0,-3.434360652E-1,-3.151912361E-1,3.344016784E-1,5.736883551E-1
4.004695625E0,-2.463233149E-1,-4.462168139E-1,1.181225270E-1,5.231993424E-1
4.014719625E0,-1.581527115E-1,-2.606425613E-1,-1.199573833E-1,3.276226469E-1
4.024743625E0,-1.176585504E-1,-2.318725061E-1,-3.559159237E-1,4.407771981E-1
4.034767625E0,-2.661084654E-1,-2.671709776E-1,-4.037607658E-1,5.524642999E-1
4.044790625E0,-3.494665910E-1,-1.089804053E-2,-2.411339110E-1,4.247248857E-1
4.054814625E0,-2.664399295E-1,1.283229947E-1,-1.823027354E-1,3.474065548E-1
4.064838625E0,-8.688604318E-2,2.006600690E-1,-8.792231597E-2,2.356777067E-1
4.074862625E0,-1.010866642E-2,1.932738662E-1,9.650171623E-2,2.162626961E-1
4.084886625E0,-2.369489857E-1,6.390655875E-2,1.286720735E-1,2.771017368E-1
4.094910625E0,-3.180125177E-1,1.464493632E-1,3.721928179E-2,3.520861433E-1
4.104933625E0,-2.912985628E-1,-5.643615603E-2,2.892050403E-1,4.143421868E-1
4.114957625E0,-2.035931055E-1,-5.106081069E-2,5.921820277E-1,6.282809188E-1
4.124981625E0,-6.865844473E-2,-4.764545202E-2,4.249293675E-1,4.330693230E-1
4.135005625E0,-2.987310317E-1,-3.004521596E-1,6.070380485E-1,7.402748962E-1
4.145029625E0,-5.201161911E-1,-3.369481409E-1,6.735705918E-1,9.152880662E-1
4.155053625E0,-4.774889658E-1,-2.204306746E-1,3.294977649E-1,6.206079050E-1
4.165076625E0,-4.745915242E-1,-2.116838247E-1,-4.159984034E-1,6.656589428E-1
4.175100625E0,-4.095310175E-1,-1.271675849E-1,-8.218573695E-1,9.270041988E-1
4.185124625E0,-1.862194929E-1,-5.148999631E-2,-3.288457272E-1,3.814032401E-1
4.195148625E0,-4.579849201E-1,-4.363163084E-1,1.528849550E-1,6.507656395E-1
4.205172625E0,1.568113603E-2,-3.176423889E-1,-7.476249933E-3,3.181170847E-1
4.215196625E0,1.554673778E-1,-1.452506840E-1,1.007726687E-1,2.354208944E-1
4.225219625E0,-5.585246504E-1,-3.772711247E-1,1.428999572E-1,6.889874342E-1
4.235243625E0,-1.353370076E0,3.521356988E-1,-4.423831455E0,4.639600721E0
4.245267625E0,-8.784008950E-2,7.238262409E-1,-4.509313070E0,4.567881858E0
4.255291625E0,1.093399141E0,-5.029014766E-2,4.489260044E0,4.620769040E0
4.265315625E0,1.405838019E0,-1.012041348E0,9.167109164E0,9.329335381E0
4.275339625E0,-4.545784054E-1,-1.173113428E0,2.964582775E0,3.220494942E0
4.285362625E0,-1.539360212E0,-1.138166374E0,-1.786314003E0,2.618390780E0
4.295386625E0,-1.172021460E0,-5.638879359E-1,-2.333557986E0,2.671534537E0
4.305410625E0,-1.173755525E0,-1.236142319E-1,-5.899812819E-1,1.319492487E0
4.315434625E0,-7.463488385E-1,1.323189819E-1,-2.742789991E-1,8.060855234E-1
4.325458625E0,-2.781324604E-1,1.344614017E-1,-3.689961451E-1,4.812438978E-1
4.335482625E0,8.344707638E-3,3.775494522E-1,-6.233646441E-1,7.288324241E-1
4.345506625E0,-2.351306916E0,1.732235883E0,-5.298246303E0,6.049851176E0
4.355529625E0,-1.274484851E0,2.199393330E0,-4.346500273E0,5.035246497E0
4.365553625E0,1.480014189E0,1.202716711E0,2.554092448E0,3.187531603E0
4.375577625E0,1.471754851E0,3.184452116E-2,4.015809238E0,4.277125232E0
4.385601625E0,1.720455498E-1,-1.999919661E0,3.092421620E0,3.686780411E0
4.395625625E0,-8.400704230E-1,-3.161945599E0,1.423696439E0,3.567986804E0
4.405649625E0,-7.895580080E-1,-2.761223046E0,-1.842960513E-1,2.877797698E0
4.415672625E0,-8.100220934E-2,-1.445490181E0,-8.414770438E-1,1.674540784E0
4.425696625E0,6.191936789E-1,4.960193038E-2,-9.697403969E-1,1.151632581E0
4.435720625E0,1.317646658E0,1.687580697E0,-4.543223704E-1,2.188727973E0
4.445744625E0,8.260817635E-1,3.611892936E0,-6.363086253E-3,3.705161555E0
4.455768625E0,-7.484631917E-1,5.075031184E0,-5.289340116E-1,5.157122246E0
4.465792625E0,-1.161647915E0,3.932540209E0,-9.906324984E-1,4.218489199E0
4.475815625E0,8.037945894E-1,3.220034178E0,-8.133705014E-1,3.417056836E0
4.485839625E0,3.095293041E-1,1.000041107E0,-4.390798487E-1,1.135201180E0
4.495863625E0,-5.436164432E-1,-1.251166740E0,-7.002450049E-1,1.533388443E0
4.505887625E0,-5.709919374E-1,-2.132655550E0,-3.805327016E-1,2.240325115E0
4.515911625E0,-4.379310901E-1,-2.494100600E0,3.769926511E-1,2.560165015E0
4.525935625E0,4.375264627E-1,-2.190448844E0,9.313462633E-1,2.420103594E0
4.535958625E0,9.106146678E-1,-1.654177308E0,1.044619694E0,2.157950867E0
4.545982625E0,7.727233625E-1,-1.326891691E0,8.155385028E-1,1.738633373E0
4.556006625E0,6.997773007E-1,-1.126817513E0,1.022477458E0,1.674773457E0
4.566030625E0,8.501820130E-1,-8.816455150E-1,1.040058866E0,1.606807616E0
4.576054625E0,1.192319704E0,-3.398834431E-1,9.107038379E-1,1.538352532E0
4.586078625E0,1.525241818E0,3.045802939E-1,1.005056410E0,1.851828865E0
4.596102625E0,1.831690443E0,4.999240744E-1,1.199089683E0,2.245624641E0
4.606125625E0,2.034269714E0,7.330607486E-1,1.333386632E0,2.540384074E0
4.616149625E0,2.194591889E0,9.534545857E-1,1.039918387E0,2.608972874E0
4.626173625E0,2.281150707E0,7.978794730E-1,7.550228906E-1,2.531860930E0
4.636197625E0,2.315163669E0,6.663615596E-1,5.704742396E-1,2.475774909E0
4.646221625E0,2.322371385E0,4.109241897E-1,3.635218357E-1,2.386297480E0
4.656245625E0,2.098740968E0,1.671672177E-1,2.712073106E-1,2.122784006E0
4.666268625E0,1.700497196E0,-1.786581659E-1,3.922829738E-1,1.754279164E0
4.676292625E0,1.423204542E0,-4.315853262E-1,5.247732791E-1,1.577074525E0
4.686316625E0,1.162264211E0,-5.958529097E-1,5.615565048E-1,1.421704785E0
4.696340625E0,8.499155261E-1,-7.422987646E-1,4.057704538E-1,1.199172014E0
4.706364625E0,5.626939344E-1,-7.862674874E-1,9.408579290E-2,9.714387073E-1
4.716388625E0,4.198631206E-1,-6.377809542E-1,-8.316202462E-2,7.680921221E-1
4.726411625E0,2.250103600E-1,-4.210094672E-1,-1.089570165E-1,4.896429976E-1
4.736435625E0,6.328302629E-2,-2.130754620E-1,-6.842879534E-2,2.325691165E-1
4.746459625E0,-2.426864929E-2,2.569325030E-2,4.343911126E-2,5.600059675E-2
4.756483625E0,-1.104389933E-1,1.907671648E-1,1.413535148E-1,2.618581650E-1
4.766507625E0,-2.553543395E-1,2.989465016E-1,8.125407815E-2,4.014686473E-1
4.776531625E0,-2.572866250E-1,4.296639311E-1,-2.259203330E-2,5.013161688E-1
4.786555625E0,-1.321665888E-1,5.557240534E-1,-6.276401281E-2,5.746621199E-1
4.796578625E0,6.688542277E-2,7.371754342E-1,-9.176634863E-2,7.458701920E-1
4.806602625E0,4.052271013E-1,1.026007422E0,6.446204424E-2,1.105013841E0
4.816626625E0,3.933915328E-1,1.043492936E0,2.376899010E-1,1.140232825E0
4.826650625E0,4.992783956E-1,9.669534677E-1,-2.358766794E-2,1.088500943E0
4.836674625E0,6.582301292E-1,1.062040889E0,-2.336887975E-1,1.271144447E0
4.846698625E0,6.813978209E-1,1.019243363E0,-6.289791405E-2,1.227646599E0
4.856721625E0,7.224153078E-1,1.026476954E0,1.074871726E-1,1.259798518E0
4.866745625E0,7.543035369E-1,1.080280108E0,5.092617854E-2,1.318549360E0
4.876769625E0,5.819969820E-1,1.096402636E0,2.942172736E-3,1.241300884E0
4.886793625E0,5.258821305E-1,1.202898560E0,6.226634167E-2,1.314303640E0
4.896817625E0,5.411900680E-1,1.312033331E0,3.099047685E-1,1.452707513E0
4.906841625E0,3.527394969E-1,1.090305160E0,4.577702542E-1,1.233995178E0
4.916864625E0,2.105092652E-2,5.133510357E-1,2.701309843E-1,5.804680664E-1
4.926888625E0,-2.594568191E-1,-4.421611851E-1,-4.484565899E-2,5.146216938E-1
4.936912625E0,-4.964946459E-1,-1.749551827E0,-5.532578440E-1,1.900929449E0
4.946936958E0,-6.200261032E-1,-3.003866124E0,-1.195369831E0,3.291892023E0
4.956960958E0,-5.640290365E-1,-3.494496633E0,-1.752073147E0,3.949607042E0
4.966984958E0,-4.957277470E-1,-3.244345731E0,-2.603071066E0,4.188974122E0
4.977008958E0,-3.381286937E-1,-2.683492500E0,-2.986784068E0,4.029434461E0
4.987031958E0,6.511762675E-2,-1.818658900E0,-2.574564720E0,3.152799390E0
4.997055958E0,7.904935625E-1,-5.034136927E-1,-1.998801527E0,2.207603444E0
5.007079958E0,1.599524699E0,8.442975944E-1,-1.370966833E0,2.269552323E0
5.017103958E0,2.224812492E0,1.866338266E0,-6.304030837E-1,2.971601789E0
5.027127958E0,2.647545865E0,2.579340726E0,1.333311349E-1,3.698685561E0
5.037151958E0,2.999865459E0,2.842398187E0,6.502273375E-1,4.183445448E0
5.047174958E0,3.055018736E0,2.485709261E0,8.967218296E-1,4.039306877E0
5.057198958E0,2.538181297E0,1.120639930E0,1.174855752E0,3.013052304E0
5.067222958E0,1.152299825E0,2.923724771E-2,1.796045963E0,2.134111244E0
5.077246958E0,-3.520803695E-1,-3.135551852E-1,2.485449645E0,2.529770222E0
5.087270958E0,-1.569860166E0,-5.129528403E-1,3.066443610E0,3.482909412E0
5.097294958E0,-2.557522133E0,-1.314858706E0,2.975851529E0,4.138292546E0
5.107318958E0,-3.812686906E0,-2.284788991E0,2.698632696E0,5.199948135E0
5.117341958E0,-5.031686359E0,-3.022567273E0,2.419097196E0,6.348685831E0
5.127365958E0,-6.081820562E0,-2.704937748E0,2.599687282E0,7.145880180E0
5.137389958E0,-6.885293482E0,-1.387355409E0,2.679630999E0,7.517475883E0
5.147413958E0,-7.356060416E0,8.385024190E-2,2.257598269E0,7.695154686E0
5.157437958E0,-6.519680536E0,1.124418985E0,8.649698406E-1,6.672235395E0
5.167461958E0,-4.264238428E0,1.786236089E0,-7.045457782E-1,4.676617740E0
5.177484958E0,-2.610471886E0,2.147765924E0,-1.201510577E0,3.587630081E0
5.187508958E0,-9.913122372E-1,1.990188140E0,-3.819712628E-1,2.255981124E0
5.197532958E0,1.333219986E-1,2.166364163E0,4.761064647E-1,2.222067913E0
5.207556958E0,3.613120632E-1,3.041061432E0,-2.529156120E-1,3.072876071E0
5.217580958E0,2.544083514E-1,3.811404027E0,-1.307139797E0,4.037343027E0
5.227604958E0,7.039385448E-1,3.747593363E0,-1.663552295E0,4.160215346E0
5.237628958E0,1.470865489E0,3.417470092E0,-1.218702268E0,3.915071179E0
5.247651958E0,2.211592230E0,3.655019660E0,-1.409993489E0,4.498709876E0
5.257675958E0,2.819444357E0,3.881498694E0,-2.281830008E0,5.312442638E0
5.267699958E0,2.658026414E0,3.934037097E0,-2.830278371E0,5.527406983E0
5.277723958E0,1.580622844E0,4.316640297E0,-3.710018863E0,5.907282962E0
5.287747958E0,8.345310632E-1,4.893276333E0,-3.899657515E0,6.312521216E0
5.297771958E0,5.571140096E-1,5.321138152E0,-3.421963385E0,6.350962184E0
5.307794958E0,2.820014168E-1,5.583772275E0,-2.581530215E0,6.158111388E0
5.317818958E0,-5.823731773E-2,5.285374242E0,-1.548834163E0,5.507945146E0
5.327842958E0,-5.647944005E-1,4.331503335E0,-1.729320461E0,4.698027577E0
5.337866958E0,-8.080916351E-1,3.153106948E0,-2.494821562E0,4.101125472E0
5.347890958E0,-4.659018309E-1,2.176498557E0,-2.274219564E0,3.182182445E0
5.357914958E0,-6.341853552E-2,1.291742908E0,-9.102594495E-1,1.581516335E0
5.367938958E0,2.245661178E-1,6.081753320E-1,8.439941239E-1,1.064252440E0
5.377961958E0,7.054167210E-1,2.611951232E-3,2.364558461E0,2.467540535E0
5.387985958E0,1.385500965E0,-1.236389072E0,3.274156006E0,3.764089320E0
5.398009958E0,1.574289724E0,-3.235398322E0,5.177790152E0,6.305212232E0
5.408033958E0,1.106690885E0,-4.747157337E0,8.271736726E0,9.601140347E0
5.418057958E0,7.556874997E-1,-5.225925016E0,9.722054368E0,1.106343966E1
5.428081958E0,1.242068326E0,-4.334813443E0,6.247937036E0,7.705196851E0
5.438105958E0,1.987558355E0,-2.707702897E0,3.794521362E-1,3.380240689E0
5.448128958E0,1.758943040E0,-6.632444090E-1,-2.808523805E0,3.379582774E0
5.458152958E0,-8.011167839E-2,1.680860492E0,-1.638676632E0,2.348823318E0
5.468176958E0,-2.920604696E0,3.339732530E0,1.006181560E0,4.549301759E0
5.478200958E0,-4.474002904E0,4.364888597E0,1.209809091E0,6.366521223E0
5.488224958E0,-4.924512743E0,4.495575036E0,4.605822533E-2,6.668068838E0
5.498248958E0,-4.295013493E0,3.967055739E0,-1.689789775E-1,5.849207300E0
5.508271958E0,-2.594939343E0,3.007874390E0,1.251936234E0,4.165136597E0
5.518295958E0,-6.369676065E-1,1.446074903E0,2.488926984E0,2.948154997E0
5.528319958E0,1.163700872E0,-1.092804260E0,2.095626595E0,2.634401582E0
5.538343958E0,2.708303406E0,-3.920487928E0,1.790424157E0,5.090260464E0
5.548367958E0,3.300027012E0,-5.736202755E0,2.725573157E0,7.157020983E0
5.558391958E0,2.449987159E0,-5.785595940E0,3.379518154E0,7.134192345E0
5.568415958E0,1.142875868E0,-4.398728773E0,2.637069993E0,5.254437954E0
5.578438958E0,7.583085872E-1,-2.824850693E0,1.687011763E0,3.376510334E0
5.588462958E0,1.173981739E0,-1.368914461E0,1.764666587E0,2.523134576E0
5.598486958E0,1.033319365E0,-8.422025371E-1,1.991090073E0,2.396141420E0
5.608510958E0,5.942567660E-1,-1.133961056E0,2.007112614E0,2.380653235E0
5.618534958E0,4.282796028E-1,-1.906123306E0,2.747965069E0,3.371652636E0
5.628558958E0,8.093829927E-1,-3.048203806E0,3.723034180E0,4.879306383E0
5.638582958E0,1.870741219E0,-4.025234950E0,4.013678513E0,5.984296476E0
5.648605958E0,3.157486512E0,-4.596530723E0,4.202323138E0,6.982645310E0
5.658629958E0,3.899327147E0,-4.925210316E0,4.327367014E0,7.628142247E0
5.668653958E0,4.084025779E0,-5.317605849E0,4.660849510E0,8.165764918E0
5.678677958E0,3.847219977E0,-5.969852815E0,5.653238951E0,9.077409037E0
5.688701958E0,3.327632886E0,-6.840466973E0,7.127499188E0,1.042431646E1
5.698725958E0,2.937170443E0,-8.092110261E0,8.460228739E0,1.206999126E1
5.708749958E0,2.801519133E0,-9.650977954E0,9.007213544E0,1.349517620E1
5.718772958E0,2.866885157E0,-1.091770589E1,9.089591457E0,1.449261899E1
5.728796958E0,3.074633805E0,-1.172203133E1,9.039898894E0,1.511883473E1
5.738820958E0,3.349680982E0,-1.216630278E1,8.798710604E0,1.538364698E1
5.748844958E0,3.326756973E0,-1.227966976E1,8.512384148E0,1.530745849E1
5.758868958E0,2.752510110E0,-1.236676287E1,8.376587827E0,1.518816511E1
5.768892958E0,1.942627181E0,-1.243601963E1,8.402090458E0,1.513352268E1
5.778915958E0,1.094528019E0,-1.292813300E1,8.064948775E0,1.527671474E1
5.788939958E0,4.871373832E-1,-1.343586310E1,7.356256882E0,1.532560718E1
5.798963958E0,2.341460498E-1,-1.315886413E1,6.185561863E0,1.454206674E1
5.808987958E0,5.547018139E-1,-1.205294632E1,4.494202695E0,1.287552200E1
5.819011958E0,9.962613206E-1,-1.045674649E1,2.628403543E0,1.082795405E1
5.829035958E0,1.289629871E0,-8.541024395E0,1.176272678E0,8.717560458E0
5.839059958E0,1.438456566E0,-6.554256876E0,-5.133738399E-2,6.710445292E0
5.849082958E0,1.563903607E0,-4.695108932E0,-1.403016592E0,5.143763013E0
5.859106958E0,1.579857735E0,-2.927582179E0,-2.583894537E0,4.212267662E0
5.869130958E0,1.647741570E0,-8.809871185E-1,-3.460864034E0,3.933035780E0
5.879154958E0,1.691725496E0,1.528386742E0,-4.166603082E0,4.749577079E0
5.889178958E0,1.635303081E0,4.111292515E0,-4.398514765E0,6.238900099E0
5.899202958E0,1.531541754E0,6.210566311E0,-4.392090429E0,7.759330666E0
5.909226958E0,1.510296188E0,7.435345151E0,-4.556249254E0,8.850127647E0
5.919249958E0,1.477002435E0,8.630880312E0,-4.770906388E0,9.971718955E0
5.929273958E0,9.541470422E-1,1.012301783E1,-5.841436265E0,1.172639178E1
5.939297958E0,1.537586752E-1,1.198297619E1,-7.307985193E0,1.403645282E1
5.949317833E0,-4.223423035E-1,1.346344559E1,-8.503492872E0,1.592959922E1
5.959341833E0,-9.320624010E-1,1.403699897E1,-9.156199429E0,1.678517407E1
5.969365833E0,-1.467390635E0,1.380137489E1,-9.464697942E0,1.679915746E1
5.979389833E0,-1.763798422E0,1.331374985E1,-8.636031709E0,1.596709002E1
5.989412833E0,-1.359159258E0,1.381213143E1,-5.077161909E0,1.477835788E1
5.999436833E0,-1.169532008E0,1.369214189E1,-1.029928565E-1,1.374238561E1
6.009460833E0,-2.500448630E0,1.402074137E1,3.889388927E0,1.476349479E1
6.019484833E0,-3.376085546E0,1.381929778E1,4.997929214E0,1.507813785E1
6.029508833E0,-3.611214659E0,1.368610990E1,4.078257501E0,1.473033129E1
6.039532833E0,-3.230191669E0,1.325029587E1,3.094040714E0,1.398490496E1
6.049556833E0,-2.587950751E0,1.256885200E1,2.008505713E0,1.298874994E1
6.059579833E0,-1.921186172E0,1.222039303E1,1.012745352E0,1.241187396E1
6.069603833E0,-1.187448023E0,1.203455098E1,9.091671165E-1,1.212711981E1
6.079627833E0,-2.804630144E-1,1.167549568E1,1.084021742E0,1.172906484E1
6.089651833E0,5.110744223E-2,1.058145123E1,1.120622388E0,1.064074793E1
6.099675833E0,-5.114661857E-1,9.086225799E0,6.426394057E-1,9.123271471E0
6.109699833E0,-1.007650820E0,8.651697569E0,3.015917820E-1,8.715399510E0
6.119723833E0,-1.240957063E0,8.582710365E0,-2.493106574E-1,8.675543063E0
6.129746833E0,-1.411510257E0,8.457406873E0,-9.832650067E-1,8.630579487E0
6.139770833E0,-1.598917173E0,8.071638574E0,-2.225023577E0,8.524002306E0
6.149794833E0,-1.575813362E0,7.644023507E0,-3.999806578E0,8.769990638E0
6.159818833E0,-1.555116266E0,7.346229492E0,-4.958055296E0,8.998210192E0
6.169842833E0,-1.867026921E0,7.244772699E0,-4.247966504E0,8.603356345E0
6.179866833E0,-2.343779942E0,7.209076617E0,-2.948638587E0,8.133791219E0
6.189889833E0,-2.633613997E0,7.189534637E0,-2.452052103E0,8.039769306E0
6.199913833E0,-2.454576346E0,7.270273576E0,-2.006483015E0,7.931443563E0
6.209937833E0,-1.771444680E0,8.779469756E0,-1.296211351E0,9.049711008E0
6.219961833E0,-1.241303218E0,1.073815193E1,-4.048109257E-1,1.081723682E1
6.229985833E0,-1.562487997E0,1.140371359E1,-3.324234923E-1,1.151505787E1
6.240009833E0,-1.818919978E0,1.160177399E1,-6.440596213E-1,1.176114120E1
6.250033833E0,-1.882138758E0,1.165700211E1,-1.336244313E0,1.188333679E1
6.260056833E0,-2.002770617E0,1.154469347E1,-2.216789382E0,1.192498187E1
6.270080833E0,-2.089496081E0,1.152765468E1,-3.048017280E0,1.210550394E1
6.280104833E0,-2.152361397E0,1.152874928E1,-3.736570192E0,1.230880483E1
6.290128833E0,-2.378014366E0,1.148703290E1,-4.159518596E0,1.244622321E1
6.300152833E0,-2.646039914E0,1.140878079E1,-4.282774978E0,1.247012301E1
6.310176833E0,-3.270481031E0,9.620420989E0,-4.856204985E0,1.126193913E1
6.320200833E0,-2.601628265E0,6.674382074E0,-4.197929248E0,8.302918504E0
6.330223833E0,-1.946548616E0,4.842013793E0,1.249746451E0,5.366191879E0
6.340247833E0,-1.866672288E0,2.594725335E-1,1.240951771E1,1.255180948E1
6.350271833E0,3.167172425E0,-3.582363796E1,2.632409938E1,4.456817503E1
6.360295833E0,6.810501747E0,-7.115375688E1,2.912440112E1,7.718465387E1
6.370319833E0,-7.769166201E-1,-5.982945900E1,5.700131282E0,6.010540126E1
6.380343833E0,-2.482773959E0,-2.291865759E1,-1.475869624E1,2.737239754E1
6.390367833E0,-1.858028056E0,-4.435980799E0,-1.280484913E1,1.367824386E1
6.400391833E0,1.646204776E0,-1.016315662E0,-8.534745070E0,8.751271971E0
6.410414833E0,5.667737707E0,-6.940358466E-1,-2.911767215E-1,5.717492488E0
6.420438833E0,5.876309059E0,-2.406848449E-1,3.007633485E0,6.605663973E0
6.430462833E0,4.427535666E0,-9.023124987E-1,2.342303081E0,5.089560260E0
6.440486833E0,4.375732259E0,-2.377358016E0,7.997649077E-1,5.043658181E0
6.450510833E0,4.307123661E0,-3.187929456E0,1.239405066E0,5.500030306E0
6.460534833E0,3.411522012E0,-3.134075430E0,5.972233801E0,7.558338959E0
6.470558833E0,2.540486270E0,-2.765523089E0,7.943024973E0,8.786002171E0
6.480581833E0,1.921761684E0,-2.647795833E0,5.410586518E0,6.322850403E0
6.490605833E0,1.425403242E0,-2.454465249E0,1.880978524E0,3.405033666E0
6.500629833E0,1.060997453E0,-1.324866216E0,2.996931911E-1,1.723601489E0
6.510653833E0,1.049566293E0,6.819712865E-1,3.882393318E-1,1.310497622E0
6.520677833E0,7.166666177E-1,1.991754025E0,1.018805991E0,2.349183003E0
6.530701833E0,2.790288386E-1,2.127255646E0,1.259080069E0,2.487640709E0
6.540725833E0,3.568818837E-2,1.476583920E0,1.695268031E0,2.248445556E0
6.550748833E0,-7.149197620E-1,-2.550929689E-1,2.903593976E0,3.001173215E0
6.560772833E0,-1.648130702E0,-2.310914351E0,4.507077387E0,5.326387755E0
6.570796833E0,-1.690939045E0,-3.264571835E0,4.664789657E0,5.939441612E0
6.580820833E0,-5.444927216E-3,-3.272909964E0,2.453120390E0,4.090204020E0
6.590844833E0,1.829376846E0,-3.648802316E0,-7.890349746E-2,4.082475198E0
6.600868833E0,3.662686237E0,-3.719161277E0,-1.777498887E0,5.514248214E0
6.610892833E0,4.436890334E0,-2.210921116E0,-2.187421156E0,5.418392689E0
6.620915833E0,3.115167874E0,-7.395207524E-2,-1.093497447E0,3.302344085E0
6.630939833E0,1.293592383E0,2.053835083E0,6.577307770E-1,2.514802094E0
6.640963833E0,2.014634764E-1,3.274471756E0,1.499802044E0,3.607237029E0
6.650987833E0,-4.929939544E-1,3.371577635E0,1.933625684E0,3.917842146E0
6.661011833E0,-6.309528682E-1,1.933576568E0,3.561599865E0,4.101440413E0
6.671035833E0,-1.300935608E0,-3.568029463E-1,5.637950821E0,5.797088171E0
6.681059833E0,-2.254066258E0,-3.195053703E0,6.751895689E0,7.802389266E0
6.691082833E0,-1.374804653E0,-5.451836286E0,6.868293872E0,8.876151611E0
6.701106833E0,1.107069712E0,-6.194309882E0,6.610417628E0,9.126483413E0
6.711130833E0,2.843472320E0,-6.375605142E0,5.925446135E0,9.156669027E0
6.721154833E0,4.074759989E0,-6.167621436E0,5.437324666E0,9.176476593E0
6.731178833E0,4.343451535E0,-6.477721501E0,5.208746481E0,9.378565295E0
6.741202833E0,3.841975317E0,-7.669649515E0,4.925520219E0,9.891665554E0
6.751226833E0,3.673322030E0,-9.330889674E0,5.535315229E0,1.145419188E1
6.761249833E0,3.707841067E0,-1.103405612E1,6.677520860E0,1.341967827E1
6.771273833E0,3.645684580E0,-1.274736048E1,7.377903859E0,1.517299181E1
6.781297833E0,3.279174379E0,-1.426593618E1,7.350039538E0,1.637965204E1
6.791321833E0,2.905622376E0,-1.471273011E1,6.935374884E0,1.652290814E1
6.801345833E0,2.882780812E0,-1.428319950E1,6.795538722E0,1.607792149E1
6.811369833E0,2.808956791E0,-1.356627239E1,6.824433907E0,1.544366805E1
6.821393833E0,2.599604251E0,-1.337775581E1,6.646960972E0,1.516259816E1
6.831417833E0,2.742511371E0,-1.381589704E1,6.003526930E0,1.531152230E1
6.841440833E0,2.954655080E0,-1.398927634E1,4.751763481E0,1.506682101E1
6.851464833E0,3.416179027E0,-1.284513762E1,3.263515243E0,1.368643019E1
6.861488833E0,3.715725453E0,-1.056237995E1,2.091238844E0,1.139051209E1
6.871512833E0,3.781714205E0,-7.650453690E0,3.940681288E-1,8.543189901E0
6.881536833E0,3.452254886E0,-4.471557598E0,-1.761228425E0,5.917331891E0
6.891560833E0,2.704324375E0,-1.381808156E0,-3.248103737E0,4.446677635E0
6.901584833E0,2.387670020E0,1.723887228E0,-3.792397068E0,4.801565455E0
6.911607833E0,2.254648641E0,4.508528373E0,-2.478435325E0,5.617197722E0
6.921631833E0,1.857086509E0,6.709651895E0,-2.213545346E0,7.305339270E0
6.931655833E0,1.129684111E0,8.709959811E0,-3.470974454E0,9.443900135E0
6.941679833E0,5.874210785E-1,1.037315470E1,-5.183425114E0,1.161099900E1
6.951704208E0,3.661465046E-1,1.197791601E1,-6.746474150E0,1.375207071E1
6.961728208E0,2.904208227E-1,1.355685135E1,-8.222407275E0,1.585813811E1
6.971752208E0,-1.209786726E-1,1.422322577E1,-9.858833606E0,1.730639730E1
6.981775208E0,-6.047201026E-1,1.446461521E1,-1.046172013E1,1.786164516E1
6.991799208E0,-1.104333799E0,1.434748379E1,-8.944277623E0,1.694313862E1
7.001823208E0,-2.286023485E0,1.372769179E1,-4.813423832E0,1.472564003E1
7.011847208E0,-3.675469712E0,1.320745449E1,-5.436326692E-1,1.372011181E1
7.021871208E0,-3.464490477E0,1.285292845E1,3.116979926E0,1.367172366E1
7.031895208E0,-3.015552076E0,1.306497422E1,5.273002118E0,1.440804140E1
7.041919208E0,-3.444190406E0,1.284622871E1,4.263777959E0,1.396666897E1
7.051942208E0,-2.424324168E0,1.300726454E1,3.478336684E0,1.368082982E1
7.061966208E0,-1.528984182E0,1.294140968E1,3.050497668E0,1.338369954E1
7.071990208E0,-1.004199427E0,1.281614712E1,2.044656708E0,1.301701443E1
7.082014208E0,-7.468224630E-2,1.252356882E1,2.185768148E0,1.271310096E1
7.092038208E0,7.133335586E-1,1.165298507E1,2.205408361E0,1.188127653E1
7.102062208E0,7.682813059E-1,1.022978798E1,1.648716009E0,1.039023979E1
7.112086208E0,2.819140740E-1,9.077902873E0,9.133239752E-1,9.128086152E0
7.122109208E0,-9.225166753E-2,8.836938531E0,-4.576067515E-3,8.837421225E0
7.132133208E0,-1.748141333E-1,8.827846110E0,-1.764031287E0,9.004067598E0
7.142157208E0,-1.052863538E-1,8.724080252E0,-4.696193005E0,9.908324288E0
7.152181208E0,6.936442293E-2,8.092424256E0,-7.788926867E0,1.123207565E1
7.162205208E0,1.543724866E-1,6.963392403E0,-6.630684078E0,9.616581303E0
7.172229208E0,-3.543295741E-1,6.630595785E0,-3.423516698E0,7.470663725E0
7.182253208E0,-8.994121335E-1,6.333497003E0,-2.223620684E0,6.772489603E0
7.192277208E0,-1.742948567E0,6.262574371E0,-1.998501127E0,6.800861284E0
7.202300208E0,-2.374668005E0,7.009577805E0,-1.684657089E0,7.590210711E0
7.212324208E0,-1.950253996E0,9.232666976E0,-6.503151919E-1,9.458781105E0
7.222348208E0,-1.535874102E0,1.125022301E1,3.655900689E-1,1.136046140E1
7.232372208E0,-1.582404198E0,1.152512167E1,7.471279800E-1,1.165721376E1
7.242396208E0,-1.807182716E0,1.143876765E1,4.872034568E-1,1.159088788E1
7.252420208E0,-1.863155480E0,1.144995805E1,-7.146117965E-2,1.160077559E1
7.262444208E0,-1.660802496E0,1.155764154E1,-6.321243578E-1,1.169345647E1
7.272467208E0,-1.378287840E0,1.173455022E1,-1.021022086E0,1.185925092E1
7.282491208E0,-1.314876979E0,1.183849734E1,-1.236497830E0,1.197530157E1
7.292515208E0,-1.519277073E0,1.191991163E1,-1.346915481E0,1.209159533E1
7.302539208E0,-1.917994761E0,1.196632917E1,-1.302908751E0,1.218890106E1
7.312563208E0,-2.383082587E0,1.200474538E1,-1.290026751E0,1.230679338E1
7.322587208E0,-2.617239161E0,1.209611748E1,-9.338558882E-1,1.241120807E1
7.332611208E0,-2.434604889E0,1.211540393E1,-4.765445673E-1,1.236678649E1
7.342634208E0,-2.060477081E0,1.022473482E1,5.967317462E-1,1.044733730E1
7.352658208E0,-2.655708286E0,6.961471592E0,2.689291184E0,7.921310517E0
7.362682208E0,-2.607015013E0,4.509315993E0,4.942071932E0,7.180148535E0
7.372706208E0,-2.974425977E-1,2.332625647E0,1.144106210E1,1.168021902E1
7.382730208E0,8.833005109E0,-3.621820339E1,2.027594299E1,4.243694263E1
7.392754208E0,1.225121721E1,-7.141865913E1,1.559487849E1,7.412096485E1
7.402778208E0,1.179670729E1,-5.913191892E1,-5.381949195E0,6.053686079E1
7.412802208E0,6.915626498E0,-2.710431909E1,-7.702424912E0,2.901374420E1
7.422825208E0,2.034219721E0,-7.799534301E0,-5.055412021E0,9.514619061E0
7.432849208E0,1.946040785E0,-3.668291670E-1,2.258929388E0,3.004063973E0
7.442873208E0,1.277228219E0,-7.647222519E-2,5.704738888E0,5.846469507E0
7.452897208E0,1.173667744E-1,-1.465171325E0,5.869369583E0,6.050619908E0
7.462921208E0,7.504107530E-1,-4.130684221E0,5.760326028E0,7.127904628E0
7.472945208E0,2.574786037E0,-6.208758937E0,2.992649702E0,7.357592195E0
7.482969208E0,5.215090710E0,-7.819687899E0,2.988401115E0,9.862820650E0
7.492993208E0,4.394812893E0,-1.089301427E1,4.598670512E0,1.261427408E1
7.503016208E0,1.882710908E0,-1.096323933E1,5.810800363E0,1.255000469E1
7.513040208E0,6.484587009E-1,-7.664784631E0,5.274807154E0,9.327004484E0
7.523064208E0,-4.036663333E-1,-5.303033418E0,2.796820018E0,6.008936025E0
7.533088208E0,-9.710188906E-1,-4.329286655E0,9.370335576E-1,4.534714160E0
7.543112208E0,-1.805200656E0,-4.139925161E0,-7.433454162E-1,4.577148911E0
7.553136208E0,-3.008686568E0,-4.119226602E0,-1.449787008E0,5.303027912E0
7.563160208E0,-3.915419854E0,-4.053925483E0,-6.316650590E-1,5.671316003E0
7.573183208E0,-3.936780610E0,-4.118506225E0,4.574513617E-1,5.715732398E0
7.583207208E0,-3.021493725E0,-3.726363292E0,1.525166681E0,5.034018387E0
7.593231208E0,-1.031411711E0,-2.791675930E0,2.754692876E0,4.055317183E0
7.603255208E0,6.688998359E-1,-1.908417168E0,3.878023109E0,4.373619361E0
7.613279208E0,1.911323819E0,-1.482316530E0,4.268368901E0,4.906056880E0
7.623303208E0,3.017512355E0,-1.091743575E0,3.953000494E0,5.091512325E0
7.633327208E0,3.368641164E0,-8.547225952E-1,3.139957729E0,4.683762221E0
7.643351208E0,3.743379859E0,-8.846188241E-1,2.309720349E0,4.486674863E0
7.653374208E0,4.210594025E0,-6.213438463E-1,9.997037226E-1,4.372022158E0
7.663398208E0,4.589664922E0,4.230606705E-1,-1.689517295E0,4.909019568E0
7.673422208E0,4.326660086E0,1.771486487E0,-4.322787475E0,6.367467584E0
7.683446208E0,2.676195467E0,3.106935579E0,-4.246666083E0,5.903324799E0
7.693470208E0,1.215579197E0,5.074996685E0,-3.510460702E0,6.289400486E0
7.703494208E0,5.537740801E-1,6.977894667E0,-3.194952546E0,7.694504629E0
7.713518208E0,-3.678581308E-1,8.559810914E0,-2.936254184E0,9.056890809E0
7.723541208E0,-1.219524094E0,1.045936604E1,-2.734473789E0,1.087947259E1
7.733565208E0,-1.667865932E0,1.232179077E1,-2.875421507E0,1.276230204E1
7.743589208E0,-1.707913951E0,1.398024824E1,-2.826248762E0,1.436495711E1
7.753613208E0,-1.489614733E0,1.548527945E1,-2.226717954E0,1.571531433E1
7.763637208E0,-1.771351417E0,1.654349216E1,-1.645138974E0,1.671918960E1
7.773661208E0,-2.829257739E0,1.708731830E1,-1.683847396E0,1.740162315E1
7.783685208E0,-4.226855716E0,1.700429953E1,-1.816586646E0,1.761568900E1
7.793709208E0,-5.391890046E0,1.641646959E1,-1.014846257E0,1.730903998E1
7.803732208E0,-5.430493948E0,1.482791207E1,-4.005145378E-1,1.579612778E1
7.813756208E0,-3.838002719E0,1.250618388E1,-1.142099942E0,1.313161424E1
7.823780208E0,-1.878449165E0,9.837818713E0,-1.343996551E0,1.010532409E1
7.833804208E0,-8.223011000E-1,7.390946658E0,7.958604294E-1,7.479015004E0
7.843828208E0,2.011348629E-1,5.684730300E0,3.999745182E0,6.953745418E0
7.853852208E0,2.872667468E0,-2.153738270E0,7.062269404E0,7.922528388E0
7.863876208E0,7.392768066E0,-2.196874467E1,8.548597709E0,2.470541003E1
7.873900208E0,8.899153490E0,-3.775575213E1,1.182969845E1,4.055408139E1
7.883923208E0,1.041305726E1,-3.156353673E1,1.070763765E1,3.491907954E1
7.893947208E0,1.178356275E1,-1.075110000E1,-1.306815276E0,1.600457024E1
7.903971208E0,9.680268996E0,9.221901083E-1,-8.193831348E0,1.271601017E1
7.913995208E0,6.000534909E0,4.130114703E0,-2.527702210E0,7.710612499E0
7.924019208E0,1.831024884E0,3.521738226E0,-1.902172342E-1,3.973848872E0
7.934043208E0,-1.503827267E0,2.351433801E0,2.318622735E-1,2.800803007E0
7.944067208E0,-3.635373015E0,1.432811079E0,9.720803064E-1,4.026639377E0
7.954090000E0,-4.702511214E0,-1.395971282E0,1.003579842E0,5.006947178E0
7.964114000E0,-4.894183236E0,-5.979810623E0,2.946420153E0,8.269979223E0
7.974138000E0,-4.899130857E0,-1.068312963E1,5.288748670E0,1.288804114E1
7.984162000E0,-4.779864907E0,-1.428456073E1,7.217456846E0,1.670291792E1
7.994186000E0,-4.798254108E0,-1.659340750E1,8.346783400E0,1.918419162E1
8.004210000E0,-4.330794360E0,-1.646113647E1,9.094465696E0,1.929855176E1
8.014234000E0,-1.594395668E0,-1.385906118E1,9.499767203E0,1.687783314E1
8.024258000E0,5.371815093E-1,-1.307614474E1,1.016673746E1,1.657216569E1
8.034281000E0,1.990720822E0,-1.482067322E1,1.088357452E1,1.849506741E1
8.044305000E0,3.731945629E0,-1.804835731E1,1.129283518E1,2.161478073E1
8.054329000E0,5.238885369E0,-2.170746534E1,1.091405606E1,2.485511197E1
8.064353000E0,6.009282929E0,-2.406219990E1,9.486799248E0,2.655372488E1
8.074377000E0,6.703279014E0,-2.369640043E1,8.183291157E0,2.595032942E1
8.084401000E0,7.301668446E0,-1.974138586E1,6.135691545E0,2.192449289E1
8.094425000E0,7.002619618E0,-1.411310633E1,2.896988962E0,1.601901985E1
8.104449000E0,5.314010396E0,-9.471545032E0,2.878110641E-1,1.086423983E1
8.114472000E0,2.928428271E0,-6.115267221E0,-7.069628710E-1,6.817036146E0
8.124496000E0,2.134066775E0,-2.262833281E0,-2.198399888E0,3.808886652E0
8.134520000E0,1.920741345E0,1.094423938E0,-2.741110379E0,3.521462363E0
8.144544000E0,1.601363648E0,3.648203561E0,-2.188867173E0,4.545865622E0
8.154568000E0,1.465659567E0,5.841844400E0,-1.699701536E0,6.258137844E0
8.164592000E0,1.488241222E0,7.986779103E0,-2.822889537E0,8.600709721E0
8.174616000E0,1.649776840E0,9.764519772E0,-4.860784525E0,1.103153825E1
8.184639000E0,1.807176868E0,1.146642966E1,-6.877612579E0,1.349245908E1
8.194663000E0,1.900872214E0,1.344285403E1,-8.327442564E0,1.592701916E1
8.204687000E0,1.938081555E0,1.513126094E1,-1.002911505E1,1.825635140E1
8.214711000E0,2.015829935E0,1.620077282E1,-1.202576495E1,2.027677570E1
8.224735000E0,2.470255655E0,1.584094218E1,-1.249796737E1,2.032822670E1
8.234759000E0,2.072217267E0,1.407029653E1,-7.960964230E0,1.629859749E1
8.244783000E0,1.523441021E0,1.350451643E1,-1.451217529E0,1.366743827E1
8.254807000E0,6.348819778E-1,1.342295128E1,3.512909516E0,1.388953669E1
8.264830000E0,-4.493224163E-1,1.324986551E1,5.070561572E0,1.419406289E1
8.274854000E0,-9.642369244E-1,1.268462453E1,5.040221540E0,1.368332144E1
8.284878000E0,-5.262026310E-1,1.230484671E1,4.091573365E0,1.297794723E1
8.294902000E0,-3.145556073E-1,1.206869287E1,2.941031944E0,1.242585859E1
8.304926000E0,-2.516060732E-1,1.198064082E1,2.305065966E0,1.220296641E1
8.314950000E0,2.011673515E-1,1.182656435E1,2.421738383E0,1.207364524E1
8.324974000E0,7.967057906E-1,1.105991485E1,2.697189310E0,1.141189234E1
8.334998000E0,1.390203588E0,1.034168498E1,2.340943311E0,1.069406984E1
8.345021000E0,1.144947317E0,1.015862269E1,1.505086173E0,1.033314104E1
8.355045000E0,5.790013804E-1,9.917499890E0,5.634400392E-1,9.950352323E0
8.365069000E0,-2.952804070E-1,9.022881158E0,-5.052731073E-1,9.041840290E0
8.375093000E0,-5.287330136E-1,8.202383485E0,-3.018839673E0,8.756257558E0
8.385117000E0,4.456511324E-1,6.184402944E0,-8.553131055E0,1.056416090E1
8.395141000E0,5.019627427E-1,6.687650576E0,-7.239702578E0,9.868633656E0
8.405165000E0,-3.148023232E-1,7.429307901E0,-3.636737171E0,8.277655081E0
8.415189000E0,-9.371591265E-1,7.451300449E0,-1.664701127E0,7.692293250E0
8.425212000E0,-1.167717763E0,7.673206961E0,-1.416741176E0,7.889792481E0
8.435236000E0,-1.141021935E0,8.241948670E0,-2.115968181E0,8.585392844E0
8.445260000E0,-4.005020760E-1,1.020676399E1,-2.017861258E0,1.041202176E1
8.455284000E0,9.391688146E-3,1.159934388E1,-7.348102355E-1,1.162259923E1
8.465308000E0,-4.111724771E-1,1.182713503E1,-2.912995130E-1,1.183786473E1
8.475332000E0,-1.137401266E0,1.185940699E1,-5.942922878E-1,1.192863777E1
8.485356000E0,-1.567727833E0,1.177291731E1,-7.015033257E-1,1.189754006E1
8.495380000E0,-1.746828779E0,1.171353299E1,-9.211656761E-1,1.187883884E1
8.505403000E0,-1.863161619E0,1.168753159E1,-1.058684002E0,1.188236415E1
8.515427000E0,-1.858930428E0,1.169995575E1,-1.085939044E0,1.189637973E1
8.525451000E0,-1.749371148E0,1.154834681E1,-1.360606152E0,1.175907575E1
8.535475000E0,-2.076992103E0,1.153176878E1,-2.404423608E0,1.196147317E1
8.545499000E0,-2.254870397E0,1.161697441E1,-3.384056178E0,1.230814247E1
8.555523000E0,-1.604183176E0,1.063268921E1,-3.906693177E0,1.144070518E1
8.565547000E0,-9.652301471E-1,8.120846402E0,-3.803362352E0,9.019167406E0
8.575571000E0,-2.998945911E-1,7.369744070E0,-4.024643796E0,8.402429536E0
8.585594000E0,1.604842449E0,5.953454298E0,1.296670796E0,6.300832685E0
8.595618000E0,5.013432521E0,1.655756056E-2,1.556905718E1,1.635635416E1
8.605642000E0,8.726112159E0,-5.272656080E1,2.762254846E1,6.016012326E1
8.615666000E0,4.462943772E0,-7.084001867E1,2.795221214E1,7.628599004E1
8.625690000E0,3.583726606E0,-5.136169905E1,3.630715416E0,5.161442938E1
8.635714000E0,3.269978170E0,-1.992240396E1,1.209161512E0,2.022515781E1
8.645738000E0,-4.778958589E-1,-1.014544073E1,9.801789925E-1,1.020387686E1
8.655761000E0,-5.127899223E-1,-6.118881969E0,-1.823196924E0,6.405288212E0
8.665785000E0,1.825263330E0,-7.138566213E0,2.730584513E0,7.857913564E0
8.675809000E0,8.131778356E-1,-9.739608294E0,8.001441581E0,1.263108449E1
8.685833000E0,7.652974717E-1,-1.119844708E1,9.837398883E0,1.492532459E1
8.695857000E0,3.990567393E0,-1.072857419E1,7.036519436E0,1.343650022E1
8.705881000E0,4.766885258E0,-1.072658848E1,3.964512200E0,1.238952188E1
8.715905000E0,4.712071997E0,-9.944503502E0,2.642739161E0,1.131728071E1
8.725929000E0,4.436715794E0,-8.118338531E0,1.529873105E0,9.377226630E0
8.735952000E0,3.864228066E0,-6.557169374E0,-9.950855917E-1,7.675866341E0
8.745976000E0,2.629916802E0,-6.319227458E0,-3.319021107E0,7.606904703E0
8.756000000E0,9.813944093E-1,-5.614784737E0,-4.110353160E0,7.027371182E0
8.766024000E0,-6.795568250E-2,-3.443197841E0,-4.131578845E0,5.378677635E0
8.776048000E0,-1.033244667E0,-9.372332400E-1,-3.435422214E0,3.707846609E0
8.786072000E0,-2.016576625E0,1.264190828E0,-2.169686551E0,3.220605450E0
8.796096000E0,-2.848920464E0,3.239097855E0,-1.628316535E0,4.610804427E0
8.806120000E0,-3.402509699E0,5.298991238E0,-1.575174700E0,6.491344678E0
8.816143000E0,-3.504977767E0,7.151141819E0,-1.409880638E0,8.087735275E0
8.826167000E0,-3.173573956E0,8.615805606E0,-1.182327470E0,9.257514577E0
8.836191000E0,-3.007029175E0,9.702448654E0,-4.447456545E-1,1.016747427E1
8.846215000E0,-3.240581586E0,1.060206968E1,-1.594921625E-1,1.108741125E1
8.856239000E0,-3.815081341E0,1.144489553E1,-7.718751508E-1,1.208868357E1
8.866263000E0,-3.707324466E0,1.245287014E1,-2.492826492E0,1.322998161E1
8.876287000E0,-2.287435149E0,1.325179743E1,-3.504192486E0,1.389682913E1
8.886311000E0,-8.275975811E-1,1.308544649E1,-3.004309343E0,1.345138291E1
8.896334000E0,-1.757380664E-2,1.225088041E1,-9.833041830E-1,1.229029157E1
8.906358000E0,4.886808289E-1,1.195352026E1,5.106811970E-1,1.197439981E1
8.916382000E0,7.060550176E-1,1.179284111E1,1.025173755E0,1.185835555E1
8.926406000E0,9.015982613E-1,1.141745572E1,1.333956297E0,1.153042124E1
8.936430000E0,1.203047956E0,1.094346521E1,1.559578714E0,1.111930938E1
8.946454000E0,1.510088612E0,1.048366239E1,1.418949085E0,1.068648498E1
8.956478125E0,1.351036891E0,1.026257917E1,6.888885427E-1,1.037402522E1
8.966502125E0,3.662672496E-1,9.883651528E0,-5.914137036E-1,9.908102210E0
8.976525125E0,-1.318798560E0,8.264382682E0,-1.241649812E0,8.460552288E0
8.986549125E0,-2.433189863E0,5.890095624E0,-1.154585502E0,6.476627753E0
8.996573125E0,-3.047767603E0,2.563916940E0,-9.929813249E-1,4.104700885E0
9.006597125E0,-2.958226851E0,-3.226480148E0,-7.263270950E-1,4.437209855E0
9.016621125E0,-2.054897668E0,-1.324403818E1,3.036538026E0,1.374218741E1
9.026645125E0,-1.400582688E0,-2.563811573E1,1.015411800E1,2.761124268E1
9.036669125E0,-6.980717410E-1,-2.374696247E1,1.321753041E1,2.718655257E1
9.046693125E0,2.240598659E0,-7.629353428E0,8.069433589E0,1.132886025E1
9.056716125E0,3.597902596E0,7.237899882E-1,4.019033100E0,5.442554740E0
9.066740125E0,4.997386592E0,2.215153915E0,5.636365641E0,7.851713014E0
9.076764125E0,6.525549386E0,-1.501717592E0,7.774455593E0,1.026060964E1
9.086788125E0,6.902112998E0,-8.184074099E0,8.404044013E0,1.361051757E1
9.096812125E0,6.662256119E0,-1.835693125E1,8.727552329E0,2.139001522E1
9.106836125E0,5.108916968E0,-3.098483779E1,8.795313372E0,3.261163508E1
9.116860125E0,2.023967505E0,-3.501826820E1,7.624804879E0,3.589586608E1
9.126884125E0,-1.195907629E-1,-2.588409874E1,6.420618178E0,2.666880588E1
9.136907125E0,8.570436475E-1,-1.812861151E1,4.869324091E0,1.879072634E1
9.146931125E0,1.378336810E0,-1.584762438E1,3.030139710E0,1.619347886E1
9.156955125E0,6.185118936E-1,-1.512603002E1,3.807233501E0,1.561007265E1
9.166979125E0,5.622295193E-1,-1.404479448E1,5.023057623E0,1.492660249E1
9.177003125E0,1.100518930E0,-1.223405447E1,4.965216966E0,1.324902299E1
9.187027125E0,1.473668352E0,-1.025361539E1,4.257059509E0,1.119959297E1
9.197051125E0,1.324578971E0,-8.413427625E0,2.743842782E0,8.948125338E0
9.207075125E0,9.167053469E-1,-6.027654296E0,3.021974073E-1,6.104448237E0
9.217098125E0,1.648261388E-1,-3.225915307E0,-1.888373059E0,3.741610621E0
9.227122125E0,-6.037525711E-1,-1.221079892E-1,-2.715985478E0,2.784960438E0
9.237146125E0,-7.762902372E-1,2.773499275E0,-2.926815024E0,4.106235618E0
9.247170125E0,-5.277664688E-1,5.029378463E0,-3.165741026E0,5.966163040E0
9.257194125E0,8.475100547E-3,6.881495131E0,-3.252395593E0,7.611381225E0
9.267218125E0,7.025439839E-1,8.476086972E0,-3.570826771E0,9.224338580E0
9.277242125E0,1.311326111E0,9.807044232E0,-3.783055849E0,1.059288461E1
9.287266125E0,1.609094252E0,1.101065791E1,-3.564463831E0,1.168456992E1
9.297289125E0,1.724347550E0,1.249238445E1,-3.265572293E0,1.302678035E1
9.307313125E0,1.880689672E0,1.418359569E1,-3.452169809E0,1.471831704E1
9.317337125E0,1.598108211E0,1.508811200E1,-3.897867390E0,1.566519849E1
9.327361125E0,1.259015165E0,1.561068585E1,-4.177735012E0,1.620901298E1
9.337385125E0,8.866429840E-1,1.599836092E1,-3.497238393E0,1.640013306E1
9.347409125E0,1.017796177E0,1.515092864E1,-2.006840426E0,1.531711318E1
9.357433125E0,6.420228899E-1,1.349539945E1,6.007218862E-1,1.352401074E1
9.367457125E0,6.558943767E-2,1.285623797E1,2.118747362E0,1.302982145E1
9.377481125E0,-3.868718874E-1,1.279979363E1,1.578266416E0,1.290253121E1
9.387504125E0,-8.014804076E-1,1.225676973E1,7.357534645E-1,1.230496275E1
9.397528125E0,-9.638696462E-1,1.188706899E1,1.267787451E-1,1.192675676E1
9.407552125E0,-3.851039817E-1,1.139118301E1,-2.012091591E-1,1.139946668E1
9.417576125E0,4.022214863E-1,1.014582431E1,7.279707474E-1,1.017985630E1
9.427600125E0,2.061214415E-1,8.955097895E0,1.685390915E0,9.114647931E0
9.437624125E0,-3.329524460E-1,8.581161438E0,1.661679286E0,8.746906139E0
9.447648125E0,-6.016791485E-1,8.315967988E0,9.464864588E-1,8.391256044E0
9.457672125E0,-5.899641057E-1,8.134720091E0,-2.945312691E-1,8.161401673E0
9.467695125E0,-4.051135922E-1,8.073074650E0,-1.842690371E0,8.290606681E0
9.477719125E0,-3.368110967E-1,7.804152431E0,-3.434213594E0,8.532998295E0
9.487743125E0,-3.389076159E-1,7.806866709E0,-3.626204581E0,8.614603058E0
9.497767125E0,-3.517481015E-1,7.546156320E0,-3.236944910E0,8.218638226E0
9.507791125E0,-7.101870257E-1,7.308640666E0,-2.847896909E0,7.875983164E0
9.517815125E0,-9.027598107E-1,7.252814959E0,-2.310789220E0,7.665379764E0
9.527839125E0,-1.257429400E0,7.315756727E0,-1.611984531E0,7.596046295E0
9.537863125E0,-2.077416026E0,7.959673750E0,-1.099306363E0,8.299429982E0
9.547886125E0,-2.572706475E0,9.867819607E0,-7.433120140E-1,1.022473448E1
9.557910125E0,-2.519980669E0,1.107006094E1,-9.441989549E-1,1.139245643E1
9.567934125E0,-2.576473251E0,1.155411918E1,-1.052468924E0,1.188459403E1
9.577958125E0,-2.823853158E0,1.188448219E1,-6.833968377E-1,1.223446340E1
9.587982125E0,-3.076833528E0,1.212135289E1,-7.151238298E-1,1.252619266E1
9.598006125E0,-3.091183180E0,1.215115615E1,-8.403543053E-1,1.256631229E1
9.608030125E0,-3.009835254E0,1.209505212E1,-4.334394783E-1,1.247145796E1
9.618054125E0,-2.956168339E0,1.193708140E1,-1.987497105E-1,1.229928230E1
9.628078125E0,-2.996817305E0,1.062231859E1,-5.235088918E-1,1.104937228E1
9.638101125E0,-2.939987631E0,7.534239110E0,-7.862541119E-1,8.125668081E0
9.648125125E0,-2.145787373E0,5.069795587E0,-4.434523965E-1,5.523031846E0
9.658149125E0,6.150126274E-1,-5.066859700E0,1.511812079E0,5.323239945E0
9.668173125E0,3.932977581E0,-3.648498611E1,1.024226126E1,3.809890340E1
9.678197125E0,5.389719560E0,-5.914182644E1,2.333182887E1,6.380579088E1
9.688221125E0,8.817507064E0,-4.571932773E1,2.669420708E1,5.367109139E1
9.698245125E0,9.989256921E0,-2.530232183E1,1.365655924E1,3.043836977E1
9.708269125E0,7.992583634E0,-1.559609822E1,1.706076609E0,1.760767929E1
9.718292125E0,6.930562626E0,-1.473532726E1,-5.509980998E0,1.719076666E1
9.728316125E0,6.021811758E0,-1.930507832E1,1.216836860E0,2.025904632E1
9.738340125E0,5.168107163E0,-2.440327968E1,9.579158943E0,2.672058526E1
9.748364125E0,5.190203206E0,-2.576276668E1,1.237186515E1,2.904688285E1
9.758388125E0,4.943010995E0,-2.468397410E1,1.070537361E1,2.735574819E1
9.768412125E0,5.821808916E0,-2.156658721E1,6.791760836E0,2.334821531E1
9.778436125E0,5.495134917E0,-1.914072946E1,5.438292965E0,2.064313596E1
9.788460125E0,2.219291259E0,-1.821887615E1,6.135836556E0,1.935203328E1
9.798483125E0,6.677700077E-1,-1.529679328E1,6.491128582E0,1.663047058E1
9.808507125E0,1.453391232E-1,-1.208628363E1,5.837394669E0,1.342291146E1
9.818531125E0,-6.489824653E-1,-9.403134363E0,4.396617343E0,1.040049798E1
9.828555125E0,-1.687293599E0,-7.091158742E0,2.681548886E0,7.766736536E0
9.838579125E0,-2.563809351E0,-4.681446328E0,1.091710392E0,5.448017042E0
9.848603125E0,-2.919710657E0,-2.415859593E0,1.492975420E-1,3.792542373E0
9.858627125E0,-2.365717087E0,2.682550514E-1,-3.434129687E-1,2.405516696E0
9.868651125E0,-1.351354102E0,2.884149646E0,-1.054138961E0,3.354949484E0
9.878675125E0,-7.155673411E-1,5.052737505E0,-1.501465138E0,5.319453964E0
9.888698125E0,-1.660881872E-1,6.919868653E0,-2.120385021E0,7.239350806E0
9.898722125E0,3.069674928E-1,8.380649888E0,-2.931109804E0,8.883745059E0
9.908746125E0,6.167964667E-1,9.548351718E0,-3.530324278E0,1.019875717E1
9.918770125E0,6.040232972E-1,1.058653012E1,-3.672696962E0,1.122177201E1
9.928794125E0,2.513033154E-1,1.181484886E1,-4.225586870E0,1.255027456E1
9.938818125E0,-4.975816067E-3,1.300783522E1,-4.866503102E0,1.388836399E1
9.948842125E0,4.685281078E-1,1.416792398E1,-5.414863756E0,1.517466105E1
9.958865583E0,1.098175731E0,1.496922524E1,-6.016206617E0,1.617029487E1
9.968888583E0,1.377449057E0,1.544033073E1,-6.038686237E0,1.663631301E1
9.978912583E0,1.501898856E0,1.495690867E1,-5.036874593E0,1.585354606E1
9.988936583E0,1.466809568E0,1.373864596E1,-2.597177657E0,1.405870744E1
9.998960583E0,1.048022555E0,1.308409695E1,1.502705187E-1,1.312686274E1
1.000898458E1,6.040177424E-1,1.317343305E1,1.824013780E0,1.331282096E1
1.001900858E1,1.604914882E-1,1.300682482E1,2.369977661E0,1.322195310E1
1.002903258E1,-3.084276156E-1,1.247431656E1,2.159978419E0,1.266369646E1
1.003905658E1,-5.449651766E-1,1.200680360E1,1.168603397E0,1.207584173E1
1.004908058E1,-4.211681461E-1,1.071109335E1,3.216247813E-1,1.072419442E1
1.005910358E1,-3.286833574E-1,9.236943630E0,2.829685463E-1,9.247120177E0
1.006912758E1,-5.371956522E-1,8.735425605E0,5.111618382E-1,8.766842424E0
1.007915158E1,-7.939366955E-1,8.538835198E0,5.515625169E-1,8.593384852E0
1.008917558E1,-8.381085359E-1,8.529795402E0,3.061086830E-1,8.576335934E0
1.009919958E1,-7.984353970E-1,8.452752489E0,-5.248858380E-1,8.506587381E0
1.010922358E1,-8.310003682E-1,8.405757247E0,-1.755545808E0,8.627239280E0
1.011924758E1,-6.345117760E-1,8.422284402E0,-2.527444932E0,8.816204264E0
1.012927158E1,-3.203271380E-1,8.390497769E0,-2.608790227E0,8.792545065E0
1.013929458E1,-1.858896368E-1,8.368212860E0,-2.048193104E0,8.617229046E0
1.014931858E1,8.047595993E-3,8.191289563E0,-1.786867150E0,8.383924122E0
1.015934258E1,1.810853451E-1,7.490086784E0,-2.311854729E0,7.840845887E0
1.016936658E1,2.093555365E-1,5.549687685E0,-3.372661709E0,6.497515691E0
1.017939058E1,-7.812114000E-2,6.229813591E0,-3.608563532E0,7.199889655E0
1.018941458E1,1.252744757E-1,9.019731263E0,-3.059868416E0,9.525441747E0
1.019943858E1,3.670004904E-2,1.076724300E1,-3.433030702E0,1.130135251E1
1.020946258E1,-2.604835901E-1,1.160342290E1,-3.537795850E0,1.213355983E1
1.021948658E1,-3.240176082E-1,1.212273751E1,-2.719564558E0,1.242826551E1
1.022950958E1,-1.572978486E-1,1.235351074E1,-1.481297361E0,1.244299852E1
1.023953358E1,2.259471571E-1,1.223291777E1,-7.624829145E-1,1.225874012E1
1.024955758E1,3.579359905E-1,1.086462370E1,-8.780594176E-1,1.090592291E1
1.025958158E1,-3.499076173E-2,7.936003636E0,-1.179738323E0,8.023288639E0
1.026960558E1,8.299112512E-1,4.994554201E0,-2.191224624E0,5.516864118E0
1.027962958E1,3.363030760E0,-4.638164068E0,-1.144459732E0,5.842288070E0
1.028965358E1,4.057636126E0,-3.106153689E1,8.367496576E0,3.242373334E1
1.029967758E1,3.670521213E0,-5.663639744E1,2.123598330E1,6.059802990E1
1.030970158E1,5.693207009E0,-4.874477534E1,2.210106248E1,5.382306840E1
1.031972458E1,2.450285806E0,-2.362765822E1,9.163811919E0,2.546066736E1
1.032974858E1,-9.631128703E-1,-8.544347368E0,2.664926713E0,9.001960494E0
1.033977258E1,-1.524470716E0,-4.465385277E0,2.771415328E0,5.472149446E0
1.034979658E1,-6.121876913E-1,-8.460063847E0,4.893388892E0,9.792482265E0
1.035982058E1,1.765119747E0,-1.986900017E1,1.188006052E1,2.321699062E1
1.036984458E1,2.706047550E0,-3.026570277E1,1.550111020E1,3.411187293E1
1.037986858E1,3.967255129E0,-3.125074811E1,1.083950990E1,3.331431142E1
1.038989258E1,4.094775301E0,-2.681523743E1,3.407259977E0,2.733923122E1
1.039991558E1,2.312478919E0,-2.338037479E1,1.484382352E0,2.354130147E1
1.040993958E1,1.120127714E-1,-2.011951126E1,3.304132049E0,2.038932487E1
1.041996358E1,-1.095765728E0,-1.761170713E1,5.672164049E0,1.853500406E1
1.042998758E1,-1.654574334E0,-1.511519046E1,6.032135017E0,1.635827777E1
1.044001158E1,-7.143017844E-1,-1.260518894E1,4.921368695E0,1.355067840E1
1.045003558E1,8.295324247E-1,-1.041627557E1,3.920877938E0,1.116065431E1
1.046005958E1,1.647227308E0,-7.824605407E0,3.037097604E0,8.553465347E0
1.047008358E1,2.201978677E0,-4.579395458E0,1.809856501E0,5.393992344E0
1.048010758E1,2.806970200E0,-1.409011157E0,1.412381346E0,3.443721128E0
1.049013058E1,2.979535859E0,1.445160983E0,1.049443063E0,3.473824254E0
1.050015458E1,2.618391063E0,4.359678728E0,1.544834375E-1,5.087891066E0
1.051017858E1,2.234888268E0,6.816878720E0,-1.375717111E0,7.304598457E0
1.052020258E1,2.100992877E0,8.455320586E0,-2.534798976E0,9.073688507E0
1.053022658E1,1.911490319E0,9.595986060E0,-3.269450167E0,1.031630012E1
1.054025058E1,1.424781098E0,1.061348929E1,-4.294247215E0,1.153762173E1
1.055027458E1,1.224269110E0,1.167820879E1,-4.609523236E0,1.261455904E1
1.056029858E1,1.557583060E0,1.287600624E1,-3.395398607E0,1.340695093E1
1.057032258E1,1.730310541E0,1.369455094E1,-2.546581700E0,1.403637341E1
1.058034558E1,1.710000676E0,1.408103669E1,-2.268225583E0,1.436469784E1
1.059036958E1,1.694993505E0,1.441046765E1,-2.609733968E0,1.474263519E1
1.060039358E1,1.873536773E0,1.401848669E1,-4.052014028E0,1.471213536E1
1.061041758E1,1.852546730E0,1.264876473E1,-3.382738216E0,1.322369450E1
1.062044158E1,1.651378392E0,1.236640034E1,-1.887659114E0,1.261816805E1
1.063046558E1,1.396667831E0,1.283807652E1,-9.012348568E-1,1.294523519E1
1.064048958E1,1.110510360E0,1.270170308E1,1.072426275E0,1.279517849E1
1.065051358E1,7.447631467E-1,1.279876218E1,2.327751993E0,1.303001976E1
1.066053658E1,-8.303969904E-2,1.262727855E1,2.472729027E0,1.286737922E1
1.067056058E1,-9.207326167E-1,1.224873565E1,1.556384380E0,1.238150258E1
1.068058458E1,-1.139055078E0,1.204989290E1,3.630625369E-1,1.210905363E1
1.069060858E1,-1.017150937E0,1.140494735E1,-4.398344319E-1,1.145865937E1
1.070063258E1,-9.658536796E-2,1.051642785E1,-5.775626729E-1,1.053271865E1
1.071065658E1,6.720193986E-1,9.823128169E0,-2.877392896E-1,9.850291924E0
1.072068058E1,3.222394333E-1,8.929523928E0,-2.759844857E-1,8.939597489E0
1.073070458E1,5.266393449E-2,8.692063238E0,-5.514466690E-1,8.709697483E0
1.074072858E1,-1.089058168E-1,8.392716202E0,-1.139694251E0,8.470445603E0
1.075075158E1,-7.435239024E-2,7.683014495E0,-2.900082723E0,8.212473429E0
1.076077558E1,3.098032462E-1,7.240035285E0,-4.497159632E0,8.528688863E0
1.077079958E1,3.800015552E-1,7.099897406E0,-4.064060462E0,8.189599001E0
1.078082358E1,1.329049460E-1,7.112868869E0,-2.512997632E0,7.544913808E0
1.079084758E1,-1.230484407E-1,7.208716428E0,-1.585762546E0,7.382098368E0
1.080087158E1,-2.240530246E-1,7.191717403E0,-1.440475171E0,7.337981172E0
1.081089558E1,-9.468535177E-2,7.536872696E0,-1.655207587E0,7.717067287E0
1.082091958E1,-3.773762284E-1,9.200678029E0,-1.887922093E0,9.399954194E0
1.083094358E1,-8.049193013E-1,1.076059588E1,-1.655959539E0,1.091698314E1
1.084096658E1,-6.913792372E-1,1.163206023E1,-1.115849306E0,1.170589381E1
1.085099058E1,-7.985296103E-1,1.199068984E1,-8.062860880E-1,1.204426792E1
1.086101458E1,-1.017755685E0,1.198232365E1,-1.305427147E0,1.209611701E1
1.087103858E1,-9.916754224E-1,1.171214720E1,-2.641248121E0,1.204715750E1
1.088106258E1,-8.062120476E-1,9.392556750E0,-3.313649270E0,9.992515782E0
1.089108658E1,-8.782870205E-1,7.325174838E0,-2.273821954E0,7.720093314E0
1.090111058E1,-4.064928773E-1,5.552004937E0,-1.395398547E-1,5.568614428E0
1.091113458E1,1.019623798E0,3.468430915E0,6.065464146E0,7.061126044E0
1.092115858E1,5.059472328E0,-1.013678919E1,1.969525834E1,2.272126661E1
1.093118158E1,6.818328829E0,-6.541162738E1,2.989203061E1,7.224059869E1
1.094120558E1,1.776830258E0,-6.900044253E1,2.333545414E1,7.286124906E1
1.095122958E1,2.941817810E0,-4.551353848E1,2.756109071E0,4.569171276E1
1.096125358E1,4.301034956E-1,-2.109293467E1,4.444842547E0,2.156046167E1
1.097127758E1,7.761037841E-1,-1.552351673E1,7.824929928E0,1.740147801E1
1.098130158E1,2.912512442E0,-1.596490316E1,8.239312745E0,1.820019604E1
1.099132558E1,4.041587565E0,-1.868398707E1,1.132504281E1,2.221896482E1
1.100134958E1,4.471992046E0,-2.386611469E1,1.098981843E1,2.665269691E1
1.101137358E1,5.644091567E0,-2.464754127E1,7.381381783E0,2.634087806E1
1.102139658E1,6.945374792E0,-2.036278350E1,4.947704555E0,2.207625338E1
1.103142058E1,5.387844357E0,-1.552318461E1,5.097719550E0,1.720421087E1
1.104144458E1,2.697236381E0,-1.154328195E1,5.182037569E0,1.293738597E1
1.105146858E1,2.497518883E0,-8.109360716E0,4.280521461E0,9.503799018E0
1.106149258E1,1.820154471E0,-5.715325271E0,2.709619614E0,6.581788793E0
1.107151658E1,6.676436348E-1,-3.299385572E0,6.809315054E-1,3.434437493E0
1.108154058E1,-2.234970641E-1,-5.775961483E-1,-1.573770491E0,1.691248594E0
1.109156458E1,-7.281327152E-1,2.312393696E0,-3.201879158E0,4.016138942E0
1.110158858E1,-9.827867045E-1,5.116179210E0,-3.715876311E0,6.399132455E0
1.111161158E1,-1.375180337E0,7.452851715E0,-3.227404593E0,8.237248330E0
1.112163558E1,-1.555878304E0,9.384058406E0,-2.885368205E0,9.940153880E0
1.113165958E1,-1.819050955E0,1.066955006E1,-3.085642943E0,1.125475176E1
1.114168358E1,-2.071170761E0,1.180741588E1,-3.749334664E0,1.256034747E1
1.115170758E1,-2.092349084E0,1.281069518E1,-4.572972291E0,1.376240935E1
1.116173158E1,-1.592039240E0,1.390268375E1,-4.670400352E0,1.475235045E1
1.117175558E1,-1.066518175E0,1.451060122E1,-4.186915140E0,1.514018716E1
1.118177958E1,-7.400163040E-1,1.478840127E1,-4.115850420E0,1.536830052E1
1.119180358E1,-5.712713978E-1,1.551654568E1,-5.147464737E0,1.635805410E1
1.120182658E1,-2.226585185E-1,1.581361932E1,-5.916345529E0,1.688559377E1
1.121185058E1,-3.576104834E-1,1.442524240E1,-3.394467731E0,1.482355945E1
1.122187458E1,-6.973920022E-1,1.321977106E1,5.416392803E-1,1.324922925E1
1.123189858E1,-9.392943104E-1,1.303760223E1,3.071889122E0,1.342750343E1
1.124192258E1,-7.913624588E-1,1.313386494E1,3.964187679E0,1.374188658E1
1.125194658E1,-4.032288884E-1,1.232160599E1,3.513850917E0,1.281919327E1
1.126197058E1,-5.935390934E-1,9.972018160E0,1.875199721E0,1.016414329E1
1.127199458E1,-5.002960304E-1,8.621990790E0,6.068082529E-1,8.657784795E0
1.128201858E1,-6.705583256E-2,8.613460287E0,-5.886231199E-2,8.613922415E0
1.129204158E1,-9.560212210E-2,8.741640025E0,-1.015269011E0,8.800919342E0
1.130206558E1,-2.671596121E-1,8.734472508E0,-2.792119149E0,9.173784039E0
1.131208958E1,-2.812974852E-1,8.628463073E0,-4.099715613E0,9.557048257E0
1.132211358E1,3.670224175E-2,8.389918894E0,-5.939113417E0,1.027935573E1
1.133213758E1,3.841428456E-1,7.783778393E0,-5.584914821E0,9.587807119E0
1.134216158E1,3.617781959E-1,6.972167319E0,-1.863621211E0,7.226000595E0
1.135218558E1,1.677224109E-1,2.890664613E0,-4.755429393E-1,2.934316582E0
1.136220958E1,-3.243424941E-1,2.377583134E0,-7.354516751E-1,2.509778632E0
1.137223358E1,5.809710515E-1,5.862781525E0,1.034967403E-1,5.892405803E0
1.138225658E1,9.838204922E-1,8.383188749E0,4.854725347E-1,8.454669712E0
1.139228058E1,8.151571181E-1,1.040807427E1,4.259777002E-1,1.044863379E1
1.140230458E1,4.407258033E-1,1.206459982E1,6.369904107E-1,1.208944022E1
1.141232858E1,5.096353860E-1,1.261303122E1,1.476576173E0,1.270938874E1
1.142235258E1,2.074739025E-1,1.255335220E1,1.669742011E0,1.266561231E1
1.143237658E1,-2.064833841E-1,1.255066716E1,7.450726837E-1,1.257445883E1
1.144240058E1,-3.629378450E-1,1.275417482E1,-1.199462224E0,1.281559241E1
1.145242458E1,-4.468934830E-1,1.308114411E1,-2.851807526E0,1.339585201E1
1.146244858E1,-2.708131351E-1,1.353185684E1,-2.908534874E0,1.384355679E1
1.147247258E1,2.131046981E-1,1.283679247E1,-9.829010175E-1,1.287613098E1
1.148249558E1,-3.036383075E-1,8.520174978E0,1.698890381E0,8.693204611E0
1.149251958E1,-1.173335768E0,4.104715567E0,5.197078947E0,6.725699688E0
1.150254358E1,1.579078155E0,-2.315699244E1,1.200284620E1,2.613059708E1
1.151256758E1,2.637332241E0,-6.763639471E1,2.433602501E1,7.192968458E1
1.152259158E1,2.929264130E0,-6.505868009E1,2.684246908E1,7.043955274E1
1.153261558E1,6.803393286E0,-3.123440631E1,1.238642355E1,3.428261638E1
1.154263958E1,6.360143934E0,-1.141093022E1,3.431452247E0,1.350687321E1
1.155266358E1,3.984279297E0,-1.206633527E1,1.458565725E0,1.279055676E1
1.156268758E1,3.741235685E0,-2.125686721E1,3.762373078E0,2.190905519E1
1.157271058E1,5.307310072E0,-3.017617021E1,5.447553200E0,3.111984294E1
1.158273458E1,5.473513668E0,-3.283214629E1,4.776220045E0,3.362620199E1
1.159275858E1,4.555432106E0,-2.777233073E1,6.363847561E0,2.885399230E1
1.160278258E1,2.964657034E0,-2.064835216E1,5.485194651E0,2.156921414E1
1.161280658E1,3.433482108E-1,-1.623328802E1,4.083004856E0,1.674241489E1
1.162283058E1,-1.896207013E0,-1.399614097E1,3.763089069E0,1.461671654E1
1.163285458E1,-2.388102860E0,-1.226066397E1,4.083194598E0,1.314151416E1
1.164287858E1,-2.402583782E0,-9.533504468E0,3.191785110E0,1.033671168E1
1.165290258E1,-2.676577583E0,-6.477849555E0,1.334741578E0,7.134993868E0
1.166292558E1,-2.918022273E0,-3.552873480E0,1.490744707E-1,4.599998604E0
1.167294958E1,-2.689943441E0,-4.188424891E-1,-6.826191580E-1,2.806633867E0
1.168297358E1,-1.806648134E0,2.929350377E0,-6.603348345E-1,3.504441925E0
1.169299758E1,-9.101077142E-1,5.606224998E0,-4.579439896E-1,5.698049445E0
1.170302158E1,-4.473405026E-2,7.506457819E0,-9.566489196E-1,7.567303831E0
1.171304558E1,4.069190297E-1,9.077439188E0,-1.900311319E0,9.283138932E0
1.172306958E1,4.817730014E-1,1.045437018E1,-2.270881389E0,1.070900852E1
1.173309358E1,7.598621193E-1,1.190250798E1,-2.210269736E0,1.212981364E1
1.174311758E1,1.079037721E0,1.313366730E1,-2.191065141E0,1.335882876E1
1.175314058E1,1.275133746E0,1.386438683E1,-2.060704392E0,1.407457604E1
1.176316458E1,1.413773714E0,1.440665995E1,-1.765605943E0,1.458313997E1
1.177318858E1,1.870721485E0,1.478967830E1,-2.492776206E0,1.511450020E1
1.178321258E1,1.723933129E0,1.545835653E1,-4.292004808E0,1.613548999E1
1.179323658E1,1.534030914E0,1.445442000E1,-5.514673973E0,1.554654745E1
1.180326058E1,1.491018503E0,1.296803440E1,-3.089847383E0,1.341417941E1
1.181328458E1,1.167537523E0,1.309283386E1,-7.704093269E-1,1.316734494E1
1.182330858E1,5.499994465E-1,1.303268004E1,5.954734254E-1,1.305786495E1
1.183333258E1,-1.101028880E-1,1.241453813E1,1.406177450E0,1.249440734E1
1.184335658E1,-8.524696630E-1,1.185125948E1,9.774363559E-1,1.192201483E1
1.185337958E1,-1.708334658E0,1.168766725E1,-2.137418984E-1,1.181379103E1
1.186340358E1,-1.727484143E0,1.144462071E1,-6.696101265E-1,1.159361559E1
1.187342758E1,-1.108138144E0,1.072018461E1,-1.078274952E0,1.083111282E1
1.188345158E1,-2.334909789E-1,9.404024894E0,-4.981951989E-1,9.420106193E0
1.189347558E1,-9.385687441E-2,8.561400188E0,1.234741911E-2,8.561923542E0
1.190349958E1,-2.480531406E-2,8.353516468E0,-4.013593143E-1,8.363189702E0
1.191352358E1,1.292312135E-1,8.133572867E0,-1.145682970E0,8.214882699E0
1.192354758E1,3.660179755E-1,7.777245884E0,-2.331368496E0,8.127410520E0
1.193357158E1,6.965190129E-1,7.388078014E0,-3.318484333E0,8.129032768E0
1.194359458E1,7.585843565E-1,7.194531083E0,-3.204843989E0,7.912506096E0
1.195361987E1,5.343514204E-1,7.022286143E0,-2.885595370E0,7.610827469E0
1.196364388E1,1.025809202E-1,7.014478941E0,-2.545188893E0,7.462668702E0
1.197366787E1,-4.087128824E-1,7.216268692E0,-2.251029799E0,7.570251991E0
1.198369188E1,-8.089369963E-1,8.778161150E0,-2.212303836E0,9.088717209E0
1.199371587E1,-1.015113840E0,1.020243705E1,-9.419811791E-1,1.029599468E1
1.200373987E1,-1.122197043E0,1.084542027E1,8.016047341E-1,1.093275067E1
1.201376388E1,-1.245653254E0,1.086561655E1,1.773645718E0,1.107967031E1
1.202378787E1,-1.440360565E0,1.087939259E1,1.565370966E0,1.108540518E1
1.203381188E1,-1.580623282E0,1.086987917E1,4.812531839E-1,1.099473728E1
1.204383487E1,-1.721702709E0,1.055496685E1,-1.253222183E0,1.076764372E1
1.205385888E1,-1.560307716E0,9.546533818E0,-3.310802261E0,1.022410288E1
1.206388287E1,-1.264423840E0,7.546739287E0,-4.472462162E0,8.863123564E0
1.207390687E1,-1.103260251E0,6.343155434E0,-4.628436055E0,7.929389911E0
1.208393088E1,-4.004730957E-1,5.086049677E0,-1.361451074E0,5.280324710E0
1.209395487E1,1.912388305E0,-3.343578243E0,8.777420307E0,9.585397840E0
1.210397888E1,6.066447063E0,-5.883357059E1,2.117749009E1,6.282258268E1
1.211400287E1,8.200200720E0,-7.045140804E1,2.749684268E1,7.607049720E1
1.212402687E1,1.369198752E1,-5.475425357E1,2.172293240E1,6.047631436E1
1.213405087E1,1.047078565E1,-2.769737177E1,1.268309724E1,3.221246204E1
1.214407388E1,6.200299185E0,-2.042838224E1,8.373468338E0,2.293201873E1
1.215409787E1,4.538891210E0,-2.200756316E1,4.346542958E0,2.288726295E1
1.216412187E1,1.963829769E0,-2.156786892E1,3.761292804E0,2.198128569E1
1.217414588E1,7.140330318E-1,-2.436139023E1,6.526967336E0,2.523070510E1
1.218416987E1,5.755443968E-1,-2.403582428E1,7.507869337E0,2.518769942E1
1.219419388E1,2.922297684E-1,-1.925081499E1,6.204971695E0,2.022822162E1
1.220421787E1,-2.480157549E-1,-1.442260063E1,5.133993922E0,1.531113367E1
1.221424187E1,-7.320633598E-1,-1.064668744E1,3.009199077E0,1.108797319E1
1.222426588E1,-9.220707520E-1,-7.537764396E0,1.238286493E0,7.694248501E0
1.223428887E1,-1.478618020E0,-4.643628291E0,5.156041141E-1,4.900555331E0
1.224431288E1,-1.760505124E0,-1.894926472E0,-1.196471300E0,2.849854066E0
1.225433687E1,-1.841082679E0,8.840218234E-1,-2.884896920E0,3.534644290E0
1.226436088E1,-1.592789437E0,4.049015576E0,-3.207995346E0,5.405806088E0
1.227438487E1,-1.776068512E0,6.842262653E0,-2.805071316E0,7.605222065E0
1.228440887E1,-2.057372648E0,8.920210483E0,-2.676661783E0,9.537686070E0
1.229443288E1,-2.235876301E0,1.061893890E1,-2.544217086E0,1.114603278E1
1.230445687E1,-1.954925629E0,1.212245100E1,-2.459285694E0,1.252292452E1
1.231448088E1,-1.103505761E0,1.345294867E1,-2.661537375E0,1.375802798E1
1.232450487E1,-1.361093024E-1,1.430457224E1,-2.444963524E0,1.451265514E1
1.233452788E1,6.912273558E-1,1.507309752E1,-2.055151291E0,1.522825371E1
1.234455187E1,1.562515917E0,1.674323539E1,-2.980776054E0,1.707812675E1
1.235457587E1,1.768335569E0,1.755495990E1,-5.545950145E0,1.849489634E1
1.236459987E1,2.140763007E0,1.565393653E1,-6.118090841E0,1.694283420E1
1.237462387E1,2.154060452E0,1.306481985E1,-2.863129490E0,1.354721390E1
1.238464788E1,1.763590407E0,1.231948696E1,-1.399671400E0,1.252354144E1
1.239467187E1,1.558776184E0,1.233929265E1,-1.038471493E0,1.248063898E1
1.240469587E1,1.414261080E0,1.230336736E1,1.873637930E-2,1.238439881E1
1.241471987E1,1.385644660E0,1.204247746E1,1.507955402E0,1.221536754E1
1.242474387E1,9.861185941E-1,1.176950722E1,1.822412812E0,1.195051959E1
1.243476687E1,5.152498459E-1,1.026131266E1,1.601343622E0,1.039828454E1
1.244479087E1,3.942413891E-1,8.091271185E0,1.732448137E0,8.284049264E0
1.245481488E1,4.379292263E-1,7.161020690E0,1.989155376E0,7.445047914E0
1.246483887E1,5.471328491E-1,7.300962687E0,1.167611783E0,7.413954936E0
1.247486288E1,4.293018423E-1,7.261935446E0,-1.618047947E0,7.452387916E0
1.248488687E1,1.874795313E-1,6.676795220E0,-6.388772487E0,9.242897645E0
1.249491087E1,2.652471340E-1,5.995470636E0,-8.668480833E0,1.054317714E1
1.250493488E1,-4.880962352E-2,6.334900335E0,-5.001527590E0,8.071469685E0
1.251495887E1,-7.872177330E-1,6.660626500E0,-1.796457168E0,6.943408060E0
1.252498288E1,-1.273083858E0,6.524913794E0,-7.696801060E-1,6.692357581E0
1.253500587E1,-1.659658196E0,6.735125874E0,-6.856281352E-1,6.970399688E0
1.254502988E1,-1.760519011E0,7.800400273E0,-5.019716232E-1,8.012343423E0
1.255505387E1,-1.246257710E0,1.026173483E1,-1.212833856E-1,1.033784647E1
1.256507787E1,-9.823335452E-1,1.196330031E1,4.062967032E-1,1.201043757E1
1.257510188E1,-1.180275755E0,1.241498603E1,4.064516544E-1,1.247758518E1
1.258512587E1,-1.194589593E0,1.228830961E1,2.975805920E-1,1.234982395E1
1.259514988E1,-9.098052670E-1,1.234429787E1,4.326471806E-1,1.238533888E1
1.260517387E1,-4.872705170E-1,1.242801830E1,5.968463516E-1,1.245187926E1
1.261519787E1,-2.406271036E-1,1.250160668E1,6.207591248E-1,1.251932158E1
1.262522087E1,-1.046779510E-1,1.257578914E1,1.465364867E-1,1.257707847E1
1.263524487E1,2.512979798E-2,1.244428760E1,-6.858182428E-1,1.246319670E1
1.264526887E1,4.070578645E-1,1.241416976E1,-1.978431728E0,1.257742020E1
1.265529287E1,7.145763112E-1,1.035852496E1,-3.180208207E0,1.085925333E1
1.266531688E1,1.542566387E-1,6.309391857E0,-2.601837303E0,6.826549499E0
1.267534087E1,1.449149808E-1,4.022780288E0,2.037632448E0,4.511730000E0
1.268536487E1,8.139239404E-1,1.859432119E-1,1.244574589E1,1.247371788E1
1.269538887E1,4.136044364E0,-4.237632485E1,2.186413564E1,4.786334922E1
1.270541287E1,2.186882189E0,-7.119624041E1,2.760725682E1,7.639272040E1
1.271543688E1,3.122893800E0,-4.856717435E1,1.480957520E1,5.087087977E1
1.272545987E1,3.170610003E0,-2.238941909E1,6.689784225E0,2.358160444E1
1.273548388E1,1.975898422E0,-2.090845034E1,8.268248277E0,2.257058705E1
1.274550787E1,3.618567533E0,-2.352442446E1,6.219030740E0,2.460018131E1
1.275553188E1,5.010146971E0,-2.262803226E1,8.496425343E0,2.468438090E1
1.276555587E1,4.182805717E0,-2.384027234E1,8.605851890E0,2.568881343E1
1.277557987E1,2.732186943E0,-2.528711205E1,7.390851349E0,2.648636565E1
1.278560388E1,2.361172777E0,-2.297216897E1,6.569566641E0,2.400947501E1
1.279562787E1,2.222106986E0,-1.959639245E1,5.766299543E0,2.054766573E1
1.280565188E1,1.076395218E0,-1.766232179E1,5.404398994E0,1.850199358E1
1.281567587E1,-3.432912004E-1,-1.574708736E1,5.692572001E0,1.674795465E1
1.282569888E1,-1.367672804E0,-1.247775589E1,3.476386637E0,1.302498311E1
1.283572287E1,-2.680529131E0,-9.556934261E0,1.212736500E0,9.999547925E0
1.284574687E1,-2.988729729E0,-6.323180176E0,-9.567214251E-2,6.994588343E0
1.285577088E1,-2.773344032E0,-2.905689619E0,-1.554084671E0,4.306930281E0
1.286579487E1,-2.722878468E0,2.408251780E-1,-2.533450023E0,3.726987112E0
1.287581888E1,-2.191556161E0,3.119174386E0,-3.130807421E0,4.932962838E0
1.288584287E1,-1.643320783E0,5.522886972E0,-3.641182809E0,6.816230333E0
1.289586687E1,-1.288429437E0,7.374080949E0,-3.909237885E0,8.445073186E0
1.290589088E1,-7.863304181E-1,8.829317270E0,-3.336881427E0,9.471532961E0
1.291591487E1,-1.484123832E-1,1.014728377E1,-2.764464743E0,1.051815856E1
1.292593787E1,3.420050688E-1,1.144742387E1,-2.551365307E0,1.173328366E1
1.293596187E1,1.025228427E0,1.274236462E1,-2.023103433E0,1.294263871E1
1.294598588E1,1.494567470E0,1.416472321E1,-2.295968283E0,1.442721685E1
1.295600921E1,1.597081440E0,1.464168059E1,-3.067641705E0,1.504459721E1
1.296603321E1,1.989768164E0,1.505683057E1,-3.620670192E0,1.561334611E1
1.297605721E1,2.455806600E0,1.583957394E1,-5.147541921E0,1.683509063E1
1.298608121E1,2.514103633E0,1.441338191E1,-3.914327887E0,1.514556892E1
1.299610521E1,2.607683934E0,1.294964607E1,6.632350534E-1,1.322623263E1
1.300612921E1,2.415657864E0,1.306312649E1,2.485829714E0,1.351517762E1
1.301615321E1,1.576278508E0,1.258053825E1,2.211132200E0,1.287026426E1
1.302617721E1,8.367402144E-1,1.224011920E1,1.874369709E0,1.241104000E1
1.303620021E1,3.742939418E-1,1.161059393E1,9.333851874E-1,1.165406346E1
1.304622421E1,1.207525315E-1,1.141937828E1,-8.231797904E-1,1.144964656E1
1.305624821E1,1.530969531E-1,1.076184952E1,-2.195442513E0,1.098457153E1
1.306627221E1,2.928909241E-1,9.739916443E0,-3.181025648E0,1.025039909E1
1.307629621E1,-8.356018346E-3,8.576614058E0,-3.739282715E0,9.356314111E0
1.308632021E1,1.386598853E-1,8.041385080E0,-4.367585333E0,9.151988976E0
1.309634421E1,6.800758385E-1,7.706854178E0,-4.235782076E0,8.820428236E0
1.310636821E1,1.016082431E0,7.301122901E0,-2.917948306E0,7.928003623E0
1.311639221E1,1.076752337E0,7.114381544E0,-1.717779812E0,7.397606899E0
1.312641521E1,4.601814632E-1,6.853183497E0,-1.194526078E0,6.971713102E0
1.313643921E1,-7.800662594E-2,6.592001238E0,-1.198972885E0,6.700604550E0
1.314646321E1,-4.244959792E-1,6.704392909E0,-1.488842754E0,6.880823632E0
1.315648721E1,-1.375556751E-1,8.150337419E0,-1.053469017E0,8.219289420E0
1.316651121E1,-2.234195885E-1,9.812951674E0,3.726323824E-1,9.822565437E0
1.317653521E1,-4.883163646E-1,1.098420043E1,2.045491691E0,1.118370011E1
1.318655921E1,-5.334175104E-1,1.171487668E1,2.657114541E0,1.202427243E1
1.319658321E1,-8.422765774E-1,1.186475368E1,2.381169232E0,1.213061320E1
1.320660721E1,-1.143585354E0,1.176296769E1,1.471127298E0,1.190963525E1
1.321663121E1,-1.316710812E0,1.176735076E1,-1.934217276E-1,1.184236814E1
1.322665521E1,-1.268012861E0,1.176363427E1,-1.558878218E0,1.193402904E1
1.323667821E1,-1.055064429E0,1.164855171E1,-2.602567620E0,1.198229010E1
1.324670221E1,-1.055959127E0,1.153518356E1,-3.974177063E0,1.224620728E1
1.325672621E1,-1.691981604E0,1.060256202E1,-5.460828719E0,1.204565371E1
1.326675021E1,-2.160336999E0,8.445539364E0,-4.745376860E0,9.925361083E0
1.327677421E1,-1.651362605E0,6.603783377E0,-1.016339051E0,6.882579343E0
1.328679821E1,-1.366494444E0,3.293130221E0,4.827434638E0,6.001344758E0
1.329682221E1,5.615630829E-1,-2.141952623E0,1.781398687E1,1.795108472E1
1.330684621E1,5.254513223E0,-5.308118742E1,3.123802691E1,6.181453463E1
1.331687021E1,8.314621375E0,-7.103551214E1,3.538061548E1,7.979326328E1
1.332689421E1,1.487578907E1,-5.938151083E1,1.887053313E1,6.405895682E1
1.333691721E1,9.564375427E0,-3.123169086E1,4.417403610E0,3.296072278E1
1.334694121E1,1.636030474E0,-1.825316890E1,2.033807784E0,1.843884879E1
1.335696521E1,1.278949201E0,-1.733871115E1,2.507441608E0,1.756570178E1
1.336698921E1,1.489242850E0,-1.896039899E1,4.707226701E0,1.959266591E1
1.337701321E1,2.358788721E0,-2.242539116E1,7.684426598E0,2.382252012E1
1.338703721E1,3.301802226E0,-2.238986348E1,6.853992752E0,2.364709498E1
1.339706121E1,3.566872007E0,-1.866440358E1,4.254980823E0,1.947273475E1
1.340708521E1,2.800351152E0,-1.400606837E1,3.304021829E0,1.466043922E1
1.341710921E1,1.809403781E0,-1.096390240E1,3.523562558E0,1.165746932E1
1.342713321E1,7.709505598E-1,-8.159301785E0,2.031021878E0,8.443554954E0
1.343715621E1,-1.550456108E-1,-5.973563458E0,7.472724062E-1,6.022118861E0
1.344718021E1,-6.234283056E-1,-3.801020542E0,-7.961962058E-1,3.933236379E0
1.345720421E1,-1.313444118E0,-1.286419603E0,-2.134179480E0,2.816865794E0
1.346722821E1,-1.665831247E0,1.765214764E0,-3.802643144E0,4.511216221E0
1.347725221E1,-1.003735378E0,4.843520620E0,-3.719112160E0,6.188616321E0
1.348727621E1,-7.108458607E-1,7.185612325E0,-2.657831410E0,7.694309204E0
1.349730021E1,-5.750552772E-1,9.205774462E0,-1.805484977E0,9.398763111E0
1.350732421E1,-6.291590886E-1,1.087642922E1,-1.033360150E0,1.094350890E1
1.351734821E1,-7.987273923E-1,1.212652651E1,-1.236497245E0,1.221554485E1
1.352737221E1,-1.133741713E0,1.316560129E1,-2.235926734E0,1.340215639E1
1.353739621E1,-1.479456072E0,1.402022799E1,-2.778812056E0,1.436932078E1
1.354741921E1,-1.340976610E0,1.438415635E1,-2.549901749E0,1.466983883E1
1.355744321E1,-1.186631021E0,1.485487709E1,-2.601250243E0,1.512752357E1
1.356746721E1,-1.141276800E0,1.606442744E1,-3.207910561E0,1.642129812E1
1.357749121E1,-1.009129946E0,1.688840070E1,-4.233157845E0,1.744007015E1
1.358751521E1,-9.154758967E-1,1.488480080E1,-4.521912650E0,1.558342341E1
1.359753921E1,-1.055467156E0,1.232984355E1,-1.695939876E0,1.249060707E1
1.360756321E1,-1.337444746E0,1.188682107E1,-4.143138206E-1,1.196899869E1
1.361758721E1,-1.439900682E0,1.213059032E1,-6.143659253E-1,1.223118887E1
1.362761121E1,-1.415046361E0,1.197009712E1,-2.588796258E-1,1.205622660E1
1.363763521E1,-1.226246784E0,1.167517292E1,2.917672902E-1,1.174301801E1
1.364765821E1,-5.531672852E-1,1.162612413E1,-2.165815987E-1,1.164129134E1
1.365768221E1,2.079926236E-1,1.071105593E1,-3.453141908E-1,1.071863900E1
1.366770621E1,3.836957529E-1,9.189126270E0,-2.605776572E-1,9.200824134E0
1.367773021E1,3.178995202E-1,8.021094657E0,-4.557625397E-1,8.040319589E0
1.368775421E1,5.181680816E-1,7.542162672E0,-7.241070534E-1,7.594540602E0
1.369777821E1,9.323258181E-1,7.212413038E0,-1.101789237E0,7.355411123E0
1.370780221E1,1.193853940E0,6.867320310E0,-1.766746296E0,7.190741822E0
1.371782621E1,1.175603903E0,6.644327386E0,-1.969701836E0,7.029143353E0
1.372785021E1,9.872877449E-1,6.617434872E0,-1.573161796E0,6.873137523E0
1.373787421E1,5.991825335E-1,6.634557858E0,-1.191148580E0,6.767216017E0
1.374789821E1,2.068591043E-1,6.962491931E0,-1.162065699E0,7.061832713E0
1.375792121E1,2.870412782E-2,8.264466882E0,-1.290743327E0,8.364702930E0
1.376794521E1,-4.185963213E-1,9.782222802E0,-1.571929788E0,9.916555304E0
1.377796921E1,-1.016355277E0,1.050342832E1,-1.650071393E0,1.068071721E1
1.378799321E1,-1.500901905E0,1.073171298E1,-1.724496801E0,1.097252292E1
1.379801721E1,-1.890991004E0,1.091200602E1,-2.177244662E0,1.128663443E1
1.380804121E1,-1.774838404E0,1.103196048E1,-2.514387515E0,1.145322435E1
1.381806521E1,-1.132089801E0,1.116379648E1,-2.481795135E0,1.149222721E1
1.382808921E1,-5.096599808E-1,1.124131887E1,-2.268283471E0,1.147920351E1
1.383811321E1,2.691445591E-1,1.068748113E1,-1.750800793E0,1.083328182E1
1.384813721E1,1.807972967E-1,8.247298288E0,-1.056498898E0,8.316658381E0
1.385816021E1,6.970897011E-2,6.656100170E0,3.519357240E-1,6.665762340E0
1.386818421E1,3.963761710E-1,5.662564090E0,2.661529773E0,6.269408814E0
1.387820821E1,8.612372705E-1,4.177666599E0,6.889984118E0,8.103487459E0
1.388823221E1,1.386242684E0,-2.355194145E1,1.149639313E1,2.624466936E1
1.389825621E1,-2.160637400E0,-7.004945173E1,1.303660119E1,7.128497045E1
1.390828021E1,2.321959449E0,-6.134729327E1,3.093972886E0,6.146913498E1
1.391830421E1,8.498935552E0,-3.201021255E1,2.209597014E0,3.319288978E1
1.392832821E1,7.953283328E0,-1.659631357E1,1.620725621E1,2.452279539E1
1.393835221E1,2.243130503E0,-1.645486007E1,1.540688583E1,2.265317164E1
1.394837621E1,-1.856205479E0,-2.038390130E1,1.016748707E1,2.285446837E1
1.395839996E1,-1.090640644E0,-2.608705793E1,6.452774355E0,2.689539711E1
1.396842296E1,1.656702574E0,-2.768632989E1,-6.152118713E-1,2.774267492E1
1.397844696E1,2.668941119E0,-2.351427135E1,-2.631194419E-1,2.366671578E1
1.398847096E1,1.254095610E0,-1.708414443E1,7.286553978E0,1.861544025E1
1.399849496E1,8.458961501E-1,-1.449541717E1,1.000483624E1,1.763319051E1
1.400851896E1,2.719576837E0,-1.397727668E1,9.452073219E0,1.709099323E1
1.401854296E1,3.403154354E0,-1.318203547E1,6.900106233E0,1.526299397E1
1.402856696E1,2.609406231E0,-1.191116537E1,3.934767414E0,1.281277706E1
1.403859096E1,3.958861158E0,-7.705878863E0,1.644518877E0,8.818026596E0
1.404861496E1,3.853282371E0,-3.527333427E0,5.914591657E-1,5.257346296E0
1.405863896E1,4.480892970E0,4.151949960E-1,1.451829733E0,4.728487947E0
1.406866196E1,4.978576099E0,3.683756971E0,1.522200973E0,6.377568596E0
1.407868596E1,3.895763562E0,6.480358595E0,-7.868777905E-1,7.602052217E0
1.408870996E1,2.057952984E0,8.237248093E0,-3.167855964E0,9.062159679E0
1.409873396E1,5.585942688E-1,9.588930225E0,-5.042670938E0,1.084841650E1
1.410875796E1,-2.696362003E-1,1.067037685E1,-5.027513201E0,1.179853952E1
1.411878196E1,-4.441917404E-1,1.157236249E1,-4.768163459E0,1.252406734E1
1.412880596E1,1.045970949E-1,1.271520547E1,-4.295078689E0,1.342144149E1
1.413882996E1,8.244218852E-1,1.383830942E1,-3.933440096E0,1.441008084E1
1.414885396E1,1.570009270E0,1.474200478E1,-3.535486785E0,1.524110563E1
1.415887796E1,2.138380412E0,1.526303146E1,-2.964111781E0,1.569454551E1
1.416890196E1,2.422897301E0,1.585835987E1,-2.810572377E0,1.628672239E1
1.417892496E1,2.291252796E0,1.654213561E1,-3.190048487E0,1.700201456E1
1.418894896E1,1.752183805E0,1.665826599E1,-3.646815724E0,1.714255637E1
1.419897296E1,1.212296278E0,1.502393647E1,-3.696782228E0,1.551948866E1
1.420899696E1,7.382020591E-1,1.355529365E1,-2.402717391E0,1.378636932E1
1.421902096E1,1.069244786E-1,1.312239270E1,-1.249782266E0,1.318220690E1
1.422904496E1,-5.004101242E-1,1.265420264E1,-5.589787598E-1,1.267642347E1
1.423906896E1,-1.038710206E0,1.186617338E1,-4.729695797E-1,1.192093494E1
1.424909296E1,-1.130625512E0,1.008234459E1,-3.800549841E-1,1.015265622E1
1.425911696E1,-1.239363697E0,8.587771715E0,5.519900215E-1,8.694281936E0
1.426914096E1,-1.254062574E0,7.903111879E0,1.006245149E0,8.065009585E0
1.427916496E1,-1.110269893E0,7.599422116E0,9.240501076E-1,7.735488629E0
1.428918796E1,-1.065593145E0,7.695930995E0,3.709613943E-1,7.778203840E0
1.429921196E1,-1.218083852E0,7.701022165E0,-1.057872993E0,7.868199663E0
1.430923596E1,-1.750636193E0,6.956130161E0,-3.309128788E0,7.899544748E0
1.431925996E1,-2.416900251E0,4.084235110E0,-3.521842307E0,5.909801730E0
1.432928396E1,-3.225860928E0,7.443786192E-1,-1.480232437E0,3.626481259E0
1.433930796E1,-3.390448354E0,3.153255467E0,7.225572489E-1,4.686176380E0
1.434933196E1,-2.188861325E0,4.959684915E0,1.192152547E0,5.550749143E0
1.435935596E1,-1.909091937E0,6.379834433E0,-6.183414473E-1,6.687994136E0
1.436937996E1,-2.678034417E0,8.625435970E0,-2.499160196E0,9.371009321E0
1.437940396E1,-2.384736910E0,1.065391109E1,-2.393933119E0,1.117692746E1
1.438942696E1,-1.428154210E0,1.184790200E1,-2.092606215E0,1.211575037E1
1.439945096E1,-1.116075813E0,1.241562922E1,-1.828858636E0,1.259913482E1
1.440947496E1,-8.294556069E-1,1.265755660E1,-2.214391438E0,1.287653933E1
1.441949896E1,-2.577789605E-1,1.270036290E1,-3.087925696E0,1.307290912E1
1.442952296E1,3.491459443E-1,1.263768542E1,-3.597419908E0,1.314436859E1
1.443954696E1,5.836046009E-1,1.184988070E1,-3.471090229E0,1.236158300E1
1.444957096E1,4.762079139E-1,9.844400339E0,-2.802337158E0,1.024656457E1
1.445959496E1,6.634322508E-1,7.280588649E0,-2.409888416E0,7.697705866E0
1.446961896E1,1.377153187E0,1.801114914E0,-1.935916623E0,2.981331751E0
1.447964296E1,2.563272285E0,-1.643588468E1,1.520556151E0,1.670391455E1
1.448966696E1,2.527895168E0,-5.362731736E1,1.332174884E1,5.531499266E1
1.449968996E1,5.965025353E0,-6.672011730E1,2.372039038E1,7.106203276E1
1.450971396E1,5.537727206E0,-2.932886656E1,1.356133850E1,3.278351321E1
1.451973796E1,-7.002859354E-1,-6.151631055E0,4.083684302E0,7.416835073E0
1.452976196E1,-3.076672729E0,-3.595236558E0,4.939365256E0,6.840246349E0
1.453978596E1,-2.922847981E0,-9.162643061E0,1.200153760E1,1.537966101E1
1.454980996E1,-2.722229719E0,-2.301078866E1,1.412022356E1,2.713462074E1
1.455983396E1,1.884943375E0,-3.395985668E1,1.196537958E1,3.605544599E1
1.456985796E1,6.757334769E0,-3.274721432E1,1.146375514E1,3.534769159E1
1.457988196E1,8.854119405E0,-2.605592268E1,9.106094638E0,2.898667792E1
1.458990596E1,8.234979959E0,-1.878672967E1,5.803401296E0,2.131749453E1
1.459992996E1,5.454755216E0,-1.441718493E1,3.566153384E0,1.582172639E1
1.460995296E1,7.947724088E-1,-1.355205663E1,2.923639109E0,1.388659670E1
1.461997696E1,-5.940009503E-1,-1.291630291E1,2.409735219E0,1.315258689E1
1.463000096E1,-4.076985732E-1,-1.166629216E1,2.223302595E0,1.188325147E1
1.464002496E1,-2.259445258E-1,-9.061478629E0,1.400910425E0,9.171913425E0
1.465004896E1,5.968535145E-1,-5.157890323E0,-3.854464093E-1,5.206595398E0
1.466007296E1,1.143657202E0,-1.478543907E0,-9.110967708E-1,2.079456950E0
1.467009696E1,1.012492533E0,1.686559188E0,-1.144746830E0,2.275976347E0
1.468012096E1,7.980562051E-1,4.601343566E0,-1.740588046E0,4.983864270E0
1.469014496E1,3.204105339E-1,6.781008976E0,-2.756202627E0,7.326759076E0
1.470016896E1,-5.570548431E-1,8.255876153E0,-3.730499028E0,9.076696764E0
1.471019296E1,-1.259373453E0,9.146282551E0,-4.050777342E0,1.008212790E1
1.472021596E1,-1.596713796E0,1.027583013E1,-4.005742087E0,1.114397368E1
1.473023996E1,-1.257728924E0,1.152341194E1,-3.766107987E0,1.218829250E1
1.474026396E1,-4.622501716E-1,1.285204669E1,-3.605000238E0,1.335607749E1
1.475028796E1,1.497157641E-1,1.393859267E1,-3.736707602E0,1.443155446E1
1.476031196E1,7.624411069E-1,1.445252784E1,-3.906891983E0,1.499068653E1
1.477033596E1,1.466823894E0,1.495352430E1,-3.606756742E0,1.545212463E1
1.478035996E1,1.996429020E0,1.592562156E1,-3.127345870E0,1.635210822E1
1.479038396E1,2.098831600E0,1.698046160E1,-1.610078777E0,1.718527056E1
1.480040796E1,2.047681911E0,1.677709544E1,-5.681148881E-1,1.691114092E1
1.481043196E1,1.944843860E0,1.538341042E1,5.405305021E-1,1.551527980E1
1.482045596E1,1.611487810E0,1.414820951E1,2.149909660E0,1.440107068E1
1.483047896E1,8.989538580E-1,1.274855331E1,2.389195558E0,1.300161471E1
1.484050296E1,3.130361717E-1,1.087194090E1,8.752891530E-1,1.091160949E1
1.485052696E1,-3.375995024E-2,9.599235942E0,-7.792226158E-1,9.630870070E0
1.486055096E1,-4.424744132E-1,9.167606177E0,-2.152870982E0,9.427387766E0
1.487057496E1,-7.471087573E-1,8.980508725E0,-3.334699246E0,9.608742244E0
1.488059896E1,-8.810092648E-1,8.648543581E0,-4.258627147E0,9.680360974E0
1.489062296E1,-7.940627030E-1,8.418794199E0,-3.474240709E0,9.142044621E0
1.490064696E1,-5.183162720E-1,8.141255524E0,-1.740450782E0,8.341334556E0
1.491067096E1,-5.257432591E-1,7.387337757E0,-3.134575367E-1,7.412652746E0
1.492069496E1,-8.243551538E-1,4.276931271E0,9.349814773E-2,4.356655187E0
1.493071896E1,-1.768301217E0,1.486595523E0,1.313933676E-1,2.313897072E0
1.494074196E1,-2.043144326E0,3.301425666E0,8.875301528E-1,3.982657396E0
1.495076596E1,-9.035037958E-1,5.238142188E0,-1.319880295E-1,5.317130197E0
1.496079008E1,-5.936970047E-1,7.479030284E0,-2.554236290E0,7.925433310E0
1.497081408E1,-1.098867238E0,9.514243739E0,-3.662010591E0,1.025371468E1
1.498083808E1,-1.308320642E0,1.073773678E1,-3.158706826E0,1.126890069E1
1.499086208E1,-1.279657883E0,1.138969548E1,-2.420945501E0,1.171425049E1
1.500088608E1,-1.242049615E0,1.183305826E1,-2.130897438E0,1.208737685E1
1.501091008E1,-1.208420889E0,1.210082449E1,-2.270394316E0,1.237113272E1
1.502093408E1,-1.125592960E0,1.217915379E1,-2.614670772E0,1.250740780E1
1.503095808E1,-9.346185844E-1,1.211551971E1,-2.844083354E0,1.247990945E1
1.504098208E1,-8.261091723E-1,1.144479964E1,-2.948247408E0,1.184728061E1
1.505100508E1,-6.316996307E-1,9.340774977E0,-2.209734423E0,9.619357973E0
1.506102908E1,-3.583169366E-1,7.105759825E0,-1.579382649E0,7.287980740E0
1.507105308E1,-8.322049677E-4,2.592315112E0,-1.148335998E0,2.835273161E0
1.508107708E1,9.462948163E-1,-1.036036099E1,1.127427378E0,1.046439899E1
1.509110108E1,3.251442204E-1,-3.249527651E1,7.669113325E0,3.338957941E1
1.510112508E1,1.338091886E0,-5.728838070E1,1.898217051E1,6.036614822E1
1.511114908E1,3.763900955E0,-5.136037056E1,2.309266371E1,5.643869003E1
1.512117308E1,3.799421036E0,-2.376769670E1,1.118378461E1,2.654083730E1
1.513119708E1,2.095102977E0,-1.262337612E1,5.823355504E0,1.405882464E1
1.514122108E1,3.359180954E0,-1.393348338E1,8.401643146E0,1.661365893E1
1.515124508E1,3.120101754E0,-2.024121053E1,1.193288778E1,2.370306835E1
1.516126808E1,3.519847529E0,-2.590314429E1,1.011541411E1,2.803005197E1
1.517129208E1,4.322893602E0,-2.841161150E1,6.947130711E0,2.956636099E1
1.518131608E1,4.903565970E0,-2.601420397E1,5.541772310E0,2.704616438E1
1.519134008E1,2.940024761E0,-2.112312502E1,6.573446853E0,2.231681786E1
1.520136408E1,8.491721988E-1,-1.663749434E1,6.629038671E0,1.792962535E1
1.521138808E1,-1.264954475E-1,-1.344996893E1,4.380740691E0,1.414597307E1
1.522141208E1,-5.994570603E-1,-1.106372490E1,3.379413489E0,1.158385915E1
1.523143608E1,3.973018583E-1,-9.419676136E0,3.593585304E0,1.008969785E1
1.524146008E1,7.888497640E-1,-8.078006192E0,3.093913829E0,8.686125187E0
1.525148408E1,1.156965026E0,-5.359599967E0,1.658582016E0,5.728418122E0
1.526150808E1,1.489758866E0,-2.015701296E0,1.399383424E-1,2.510381632E0
1.527153108E1,1.578933875E0,1.284213449E0,-8.992544049E-1,2.225060639E0
1.528155508E1,1.206939424E0,3.986785998E0,-1.513771042E0,4.432004980E0
1.529157908E1,7.149025127E-1,6.144971076E0,-2.465441058E0,6.659591184E0
1.530160308E1,5.701951812E-1,8.080795314E0,-3.730642869E0,8.918636200E0
1.531162708E1,3.922554554E-1,9.692680296E0,-4.702596291E0,1.078036769E1
1.532165108E1,5.267460566E-2,1.076560344E1,-4.947708648E0,1.184824092E1
1.533167508E1,-1.213899511E-1,1.139992109E1,-4.474288248E0,1.224712993E1
1.534169908E1,5.385651067E-4,1.226796130E1,-3.862680016E0,1.286169396E1
1.535172308E1,1.211568665E-1,1.342052001E1,-4.175074528E0,1.405547166E1
1.536174708E1,4.434044494E-1,1.425350967E1,-4.910816810E0,1.508228322E1
1.537177108E1,7.732641569E-1,1.465892754E1,-4.879076954E0,1.546892000E1
1.538179508E1,1.152166947E0,1.554410711E1,-3.585372890E0,1.599380047E1
1.539181808E1,1.495599212E0,1.680268052E1,-1.414252309E0,1.692828991E1
1.540184208E1,1.446668103E0,1.751993742E1,1.497232193E-1,1.758020116E1
1.541186608E1,1.434778959E0,1.661852948E1,5.867875327E-1,1.669066902E1
1.542189008E1,1.390519630E0,1.473624878E1,1.486246444E0,1.487613866E1
1.543191408E1,1.161470890E0,1.294771883E1,1.933567358E0,1.314272119E1
1.544193808E1,8.173668540E-1,1.096331768E1,9.513074881E-1,1.103482710E1
1.545196208E1,4.502751105E-1,9.978466469E0,-2.202331848E-1,9.991048163E0
1.546198608E1,3.127502063E-2,9.649785706E0,-1.049568339E0,9.706746932E0
1.547201008E1,-1.356938486E-1,9.283494483E0,-1.563349584E0,9.415186911E0
1.548203408E1,-6.997768622E-2,9.000847680E0,-2.173354948E0,9.259785503E0
1.549205808E1,2.133017127E-1,8.551334791E0,-2.516050463E0,8.916352071E0
1.550208208E1,3.736553893E-1,7.646346606E0,-3.214651231E0,8.303024588E0
1.551210508E1,-8.068010084E-2,3.430201235E0,-3.693697237E0,5.041447121E0
1.552212908E1,-1.799345693E0,-1.317923816E0,-2.063015357E0,3.038190328E0
1.553215308E1,-2.455006701E0,1.043436218E0,4.331001936E-1,2.702479014E0
1.554217708E1,-2.005470131E0,2.896118896E0,1.156466843E0,3.707671866E0
1.555220108E1,-1.859293832E0,4.949641737E0,-5.946027750E-1,5.320665310E0
1.556222508E1,-1.884179144E0,7.678000508E0,-2.575661073E0,8.314797220E0
1.557224908E1,-1.664005747E0,1.020473150E1,-3.171115787E0,1.081487103E1
1.558227308E1,-1.310977324E0,1.161660954E1,-2.930762479E0,1.205212212E1
1.559229708E1,-1.025993974E0,1.206477056E1,-2.233565628E0,1.231260198E1
1.560232108E1,-6.643246821E-1,1.233879213E1,-1.290735579E0,1.242389298E1
1.561234508E1,-4.559361654E-1,1.257218024E1,-6.152498782E-1,1.259548038E1
1.562236808E1,-3.196704591E-1,1.269131842E1,-6.117697616E-1,1.271007533E1
1.563239208E1,-3.549421065E-1,1.276425191E1,-1.188203922E0,1.282434947E1
1.564241608E1,-2.082010768E-1,1.266258988E1,-2.017384710E0,1.282397642E1
1.565244008E1,-3.180634616E-1,1.038858199E1,-1.908549462E0,1.056723053E1
1.566246408E1,-6.058566186E-1,7.520743736E0,2.725094855E-2,7.545156804E0
1.567248808E1,-6.771699185E-1,1.264934009E-1,2.478146473E0,2.572113842E0
1.568251208E1,-1.951012965E0,-3.232628262E1,6.746170095E0,3.308029339E1
1.569253608E1,6.144178194E-1,-6.833971652E1,1.525231819E1,7.002376434E1
1.570256008E1,1.125895875E1,-6.351658221E1,2.006757863E1,6.755611061E1
1.571258408E1,1.402843046E1,-3.433252780E1,1.272885053E1,3.921151568E1
1.572260808E1,9.415108291E0,-1.644598166E1,5.745275295E0,1.980208991E1
1.573263108E1,5.104897592E0,-1.590696193E1,6.176389920E0,1.781121022E1
1.574265508E1,2.510960754E0,-1.969951278E1,6.204685181E0,2.080562053E1
1.575267908E1,4.481839634E-2,-2.358908998E1,1.653075108E0,2.364698358E1
1.576270308E1,-5.245795170E-1,-2.363932692E1,4.454746561E0,2.406112483E1
1.577272708E1,-3.175714184E-1,-2.170381200E1,6.719373475E0,2.272237415E1
1.578275108E1,-3.320919552E-1,-1.900220424E1,5.038647469E0,1.966168913E1
1.579277508E1,-1.746771476E0,-1.570794610E1,3.701074377E0,1.623233602E1
1.580279908E1,-3.452081223E0,-1.241439429E1,3.287368374E0,1.329815180E1
1.581282308E1,-4.505005426E0,-8.975016435E0,2.871372895E0,1.044465300E1
1.582284708E1,-4.256330361E0,-5.781292974E0,2.777378903E0,7.697631464E0
1.583287108E1,-2.402863571E0,-2.333053663E0,2.135320126E0,3.971962333E0
1.584289508E1,-1.675876325E0,8.391187155E-1,7.521131699E-1,2.019493971E0
1.585291808E1,-1.104331753E0,3.953830506E0,-7.062536768E-1,4.165467387E0
1.586294208E1,-3.324119440E-1,6.709929053E0,-1.211809132E0,6.826575054E0
1.587296608E1,2.401834096E-1,9.310924357E0,-1.246355651E0,9.397042240E0
1.588299008E1,7.642597371E-1,1.123437822E1,-1.027624762E0,1.130713756E1
1.589301408E1,7.188714565E-1,1.286374580E1,-2.153024910E0,1.306247482E1
1.590303808E1,6.960728703E-1,1.398646266E1,-3.823357490E0,1.451632590E1
1.591306208E1,6.444121353E-1,1.467232702E1,-4.353858410E0,1.531824175E1
1.592308608E1,9.382349411E-1,1.480644344E1,-3.802126835E0,1.531558750E1
1.593311008E1,1.514214992E0,1.510252773E1,-3.348508615E0,1.554322041E1
1.594313408E1,1.910297048E0,1.598530994E1,-3.798834268E0,1.654117621E1
1.595315808E1,1.809219447E0,1.649171858E1,-4.501235726E0,1.719043861E1
1.596318163E1,1.699071645E0,1.462845185E1,-4.132405057E0,1.529559478E1
1.597320462E1,1.456948678E0,1.343044157E1,-1.275182424E0,1.356928702E1
1.598322863E1,1.319774168E0,1.336789039E1,7.945487528E-1,1.345635928E1
1.599325262E1,1.162840528E0,1.292518951E1,2.082938429E0,1.314349095E1
1.600327663E1,1.025095768E0,1.246516566E1,2.601264861E0,1.277488768E1
1.601330062E1,7.343732292E-1,1.118511777E1,2.066156774E0,1.139803349E1
1.602332462E1,5.123497000E-1,9.290912261E0,9.454760599E-1,9.352939529E0
1.603334863E1,4.842862443E-1,8.678785381E0,-2.714979172E-2,8.692329145E0
1.604337262E1,3.978042438E-1,8.293602389E0,-8.888416833E-1,8.350576527E0
1.605339663E1,3.533574014E-1,8.087964000E0,-2.298016124E0,8.415515506E0
1.606342062E1,3.117363357E-1,7.896451315E0,-3.883072765E0,8.805076775E0
1.607344462E1,4.079613324E-1,7.682128642E0,-4.878822016E0,9.109579419E0
1.608346762E1,7.499345704E-1,7.735761058E0,-3.736704093E0,8.623651111E0
1.609349162E1,1.046100356E0,7.644594780E0,-1.488634447E0,7.858128774E0
1.610351562E1,9.662411307E-1,7.324580176E0,1.426697230E-1,7.389414816E0
1.611353962E1,6.777001148E-1,7.041135228E0,5.917750615E-1,7.098384356E0
1.612356363E1,4.912770292E-1,6.840181628E0,2.754232992E-1,6.863329791E0
1.613358762E1,3.367090994E-1,6.846063927E0,-2.820595966E-1,6.860140081E0
1.614361162E1,2.728408399E-1,7.227960784E0,-7.624829145E-1,7.273186332E0
1.615363562E1,7.620157219E-2,8.955142919E0,-8.964028640E-1,9.000218301E0
1.616365962E1,-9.777676738E-1,1.038373231E1,-7.970380586E-1,1.046007629E1
1.617368363E1,-1.817388884E0,1.096736044E1,-9.721598285E-1,1.115934551E1
1.618370762E1,-2.308207382E0,1.093243853E1,-9.762272979E-1,1.121601771E1
1.619373162E1,-2.567681378E0,1.056227470E1,-1.330794269E0,1.095105693E1
1.620375462E1,-2.685269469E0,9.753859713E0,-2.141635850E0,1.034094075E1
1.621377863E1,-2.459926256E0,7.981289152E0,-2.869445068E0,8.830964200E0
1.622380262E1,-1.868508460E0,5.747472094E0,-2.186137108E0,6.426815291E0
1.623382662E1,-1.932094737E0,-6.758914686E0,-1.110972290E0,7.116893792E0
1.624385063E1,-2.194938190E0,-3.885579349E1,6.537090036E0,3.946294449E1
1.625387462E1,-2.619323401E0,-6.507767185E1,2.145100646E1,6.857193235E1
1.626389863E1,1.060612779E0,-4.929737464E1,2.750283958E1,5.646027127E1
1.627392262E1,7.066793395E0,-1.884159292E1,1.572654492E1,2.553956554E1
1.628394662E1,6.345681431E0,-9.447632843E0,7.782965630E0,1.378767541E1
1.629397063E1,4.536320774E0,-1.630059999E1,6.162704512E0,1.800740662E1
1.630399462E1,5.358436371E0,-2.500266840E1,6.292905632E0,2.633338051E1
1.631401863E1,6.095922292E0,-2.827365931E1,4.537919110E0,2.927717181E1
1.632404162E1,4.415030518E0,-2.632626987E1,4.045136533E0,2.699866865E1
1.633406563E1,3.124115283E0,-2.107680104E1,4.721773404E0,2.182399556E1
1.634408962E1,1.354565101E0,-1.747191540E1,5.903486917E0,1.849199373E1
1.635411362E1,-7.873628902E-1,-1.550946587E1,6.001675116E0,1.664883107E1
1.636413763E1,-1.698372903E0,-1.338594659E1,4.925223180E0,1.436404748E1
1.637416162E1,-4.023432545E-1,-1.061966863E1,3.165129115E0,1.108861056E1
1.638418563E1,1.293851122E0,-7.589481849E0,1.813694614E0,7.909726520E0
1.639420962E1,1.680480715E0,-4.617621630E0,6.842446840E-1,4.961313913E0
1.640423362E1,1.798738898E0,-1.686601873E0,-1.153063910E0,2.722066105E0
1.641425763E1,1.920643842E0,1.355702677E0,-2.319104253E0,3.302279070E0
1.642428162E1,1.947478615E0,4.198470408E0,-4.158115849E0,6.221716334E0
1.643430563E1,1.971714009E0,6.563559796E0,-4.765976016E0,8.347604490E0
1.644432862E1,1.776844437E0,8.782142519E0,-4.507195208E0,1.002985603E1
1.645435263E1,1.407297192E0,1.045935552E1,-4.234267062E0,1.137135088E1
1.646437662E1,9.955527842E-1,1.166583374E1,-3.610504807E0,1.225228743E1
1.647440062E1,4.694684497E-1,1.273849727E1,-3.123309537E0,1.312420572E1
1.648442462E1,-7.666712020E-2,1.326317611E1,-3.188477924E0,1.364126497E1
1.649444862E1,-2.423843746E-1,1.345945194E1,-3.292712730E0,1.385848310E1
1.650447263E1,-1.523615561E-1,1.417578965E1,-3.133724012E0,1.451883096E1
1.651449662E1,-2.108663108E-2,1.537096638E1,-3.207046927E0,1.570198083E1
1.652452062E1,6.443772713E-1,1.534296056E1,-4.359450687E0,1.596328509E1
1.653454462E1,7.769163278E-1,1.363897199E1,-2.682142378E0,1.392189080E1
1.654456862E1,4.087626568E-1,1.328492659E1,-7.222363830E-2,1.329140992E1
1.655459263E1,-7.678576386E-2,1.300436198E1,1.104287022E0,1.305138982E1
1.656461562E1,-5.009434634E-1,1.273262082E1,1.255368842E0,1.280416058E1
1.657463963E1,-7.760111057E-1,1.241173965E1,1.383395090E0,1.251268382E1
1.658466362E1,-7.278844278E-1,1.205366903E1,5.714127177E-1,1.208913832E1
