"Time (s)","Linear Acceleration x (m/s^2)","Linear Acceleration y (m/s^2)","Linear Acceleration z (m/s^2)","Absolute acceleration (m/s^2)"
2.410416666E-3,5.368289222E-1,4.230431288E-2,-7.215358865E-1,9.003271528E-1
1.243541666E-2,3.737934932E-1,3.833197770E-1,-2.119685841E-1,5.758353129E-1
2.245941665E-2,-7.743321508E-2,4.605410305E-1,2.649724245E-2,4.677563975E-1
3.248441668E-2,-4.062182774E-1,2.477707931E-1,-5.068249583E-2,4.785105748E-1
4.250841666E-2,-4.645039809E-1,6.735685453E-2,6.277687669E-2,4.735417937E-1
5.253341666E-2,-1.984654628E-1,-5.410428643E-3,7.524372518E-2,2.123191721E-1
6.255841666E-2,1.650197181E-1,-8.188163057E-2,7.767441273E-3,1.843812408E-1
7.258241667E-2,3.582021850E-1,-1.626708551E-1,-8.946123004E-2,4.034525054E-1
8.260741667E-2,4.827860315E-1,-2.475464062E-1,-2.100103515E-1,5.817782423E-1
9.263241666E-2,6.689321418E-1,-2.290402611E-1,-2.853657585E-1,7.624718144E-1
1.026564167E-1,6.798554716E-1,-1.019038126E-1,-2.361918443E-1,7.268936900E-1
1.126814166E-1,6.318584557E-1,1.886501804E-2,-1.884540063E-1,6.596331628E-1
1.227054167E-1,4.613166271E-1,1.353814611E-1,-1.468206614E-1,5.026902397E-1
1.327304167E-1,8.707662586E-2,2.230187984E-1,-5.558947921E-2,2.457842823E-1
1.427554167E-1,-1.931968657E-1,2.260111110E-1,-3.596037626E-3,2.973532961E-1
1.527794167E-1,-1.862862607E-1,1.606462567E-1,1.538601243E-1,2.901426004E-1
1.628044167E-1,-1.421482976E-1,6.234286711E-2,4.013575602E-1,4.303262282E-1
1.728294167E-1,-3.199289426E-2,-3.715613186E-2,5.598211974E-1,5.619643196E-1
1.828534167E-1,2.079256730E-1,-8.611209109E-2,5.589201415E-1,6.025280925E-1
1.928784167E-1,3.283493352E-1,-2.781242743E-2,4.771772361E-1,5.799007947E-1
2.029024167E-1,4.227876055E-1,1.801731795E-2,2.596216375E-1,4.964648807E-1
2.129274167E-1,3.258060887E-1,-1.356831774E-2,1.123975182E-1,3.449157995E-1
2.229524167E-1,1.204317386E-1,-9.074367061E-2,1.063415569E-1,1.845175985E-1
2.329764166E-1,2.194169135E-1,-2.291618831E-1,2.518594587E-1,4.050828774E-1
2.430014167E-1,3.128453698E-1,-3.240901136E-1,4.752441466E-1,6.548004475E-1
2.530264167E-1,4.125152536E-1,-2.635559365E-1,4.005126375E-1,6.324878963E-1
2.630504167E-1,4.582404069E-1,-8.782897979E-2,1.695563900E-1,4.964348594E-1
2.730754167E-1,2.634500654E-1,1.464562337E-1,-4.482417047E-2,3.047368891E-1
2.830994167E-1,-1.892118786E-2,3.635067791E-1,-1.795586371E-1,4.058774371E-1
2.931244167E-1,-2.488923987E-1,4.736225675E-1,-3.291596496E-1,6.281813731E-1
3.031494167E-1,-3.444448195E-1,3.999632916E-1,-3.696902096E-1,6.444251077E-1
3.131734167E-1,-3.213756900E-1,2.180856487E-1,-2.611822593E-1,4.680383070E-1
3.231984166E-1,1.403052917E-1,1.053367129E-1,-2.027586347E-1,2.681276970E-1
3.332234167E-1,6.477199783E-1,1.852438849E-1,-1.789008254E-1,6.970379993E-1
3.432474167E-1,7.624590871E-1,4.112541188E-1,-3.042382318E-1,9.181692172E-1
3.532724167E-1,6.495519110E-1,6.385416770E-1,-6.531269717E-1,1.120815774E0
3.632964167E-1,4.251949042E-1,8.461960392E-1,-8.862332404E-1,1.297014957E0
3.733214167E-1,1.027721241E-1,9.094414240E-1,-8.957063144E-1,1.280599709E0
3.833464167E-1,-2.642310524E-1,7.752292599E-1,-7.581476426E-1,1.116058378E0
3.933704167E-1,-4.622400121E-1,5.838228482E-1,-5.681546491E-1,9.366507632E-1
4.033954167E-1,-2.369925474E-1,5.033085890E-1,-3.397881335E-1,6.518749719E-1
4.134204167E-1,-2.686368015E-2,5.282235749E-1,-2.461818123E-1,5.833929097E-1
4.234444167E-1,-6.146052226E-2,5.321910569E-1,-3.629197186E-1,6.470822506E-1
4.334694167E-1,-2.549167485E-1,6.305067256E-1,-6.076812422E-1,9.120294797E-1
4.434944167E-1,-4.872218755E-1,8.862225692E-1,-6.869677323E-1,1.222579348E0
4.535184167E-1,-5.662275530E-1,1.102782826E0,-8.903297997E-1,1.526247278E0
4.635434167E-1,-4.804316501E-1,1.191734909E0,-1.198789136E0,1.757311031E0
4.735674167E-1,-6.230013858E-1,1.180005833E0,-1.665783446E0,2.134333382E0
4.835924167E-1,-9.599517193E-1,1.004744607E0,-2.122710605E0,2.537108461E0
4.936174167E-1,-1.137523326E0,7.309943426E-1,-2.200343503E0,2.582600158E0
5.036414167E-1,-1.475441082E0,4.407923520E-1,-2.264535406E0,2.738493178E0
5.136664167E-1,-2.480769534E0,1.541738275E-1,-2.648179411E0,3.631919773E0
5.236914167E-1,-3.844741343E0,-3.641159128E-1,-3.708022916E0,5.353881800E0
5.337154166E-1,-5.391663759E0,-1.371212709E0,-5.927441790E0,8.129257565E0
5.437404167E-1,-6.123162716E0,-1.514392309E0,-6.066810175E0,8.751725054E0
5.537644167E-1,-6.193735101E0,-2.032239123E0,-4.284245553E0,7.800455776E0
5.637894167E-1,-7.073354555E0,-2.410570055E0,-4.121404105E0,8.534000495E0
5.738144167E-1,-8.394589065E0,-2.309595511E0,-5.663447605E0,1.038643326E1
5.838384167E-1,-9.108888438E0,-2.350578500E0,-5.938045131E0,1.112463248E1
5.938634167E-1,-9.361241986E0,-2.187255388E0,-5.399142348E0,1.102577325E1
6.038884167E-1,-2.061323612E0,1.677770239E0,1.159607529E0,2.899768547E0
6.139124167E-1,9.499729196E0,6.215691395E0,-5.713980997E-1,1.136688920E1
6.239374167E-1,1.212825962E1,1.112608311E1,-4.278948560E0,1.700569927E1
6.339624167E-1,1.004172633E1,1.567770663E1,-5.419171400E0,1.939056914E1
6.439864167E-1,6.409589744E0,1.364479581E1,-8.097934672E0,1.711256379E1
6.540114167E-1,5.632961977E-1,3.445342015E0,-1.596379920E1,1.634107001E1
6.640354167E-1,-6.096701726E0,-8.477445281E-1,-1.762038556E1,1.866457688E1
6.740604167E-1,-9.092594587E0,-2.720284935E0,-1.558814600E1,1.825008280E1
6.840854167E-1,-8.696906487E0,-1.322082122E1,2.584866227E1,3.030807875E1
6.941094167E-1,-1.168924775E0,-2.531775848E1,3.031423232E1,3.951338964E1
7.041344167E-1,-4.077523383E0,-2.938296032E1,2.365099095E1,3.793881821E1
7.141594167E-1,-3.904035033E0,-1.920124931E1,1.758345572E1,2.632693259E1
7.241834167E-1,-2.708266568E0,-6.946572887E0,2.176396231E0,7.766999629E0
7.342084167E-1,-7.108773626E-1,-1.006521576E0,-1.774987215E0,2.160789653E0
7.442324167E-1,-4.034536408E-1,1.939927229E0,-1.543593011E0,2.511726872E0
7.542574167E-1,3.311907896E-1,4.024772727E0,-2.012902819E0,4.512234547E0
7.642824167E-1,4.445763410E-1,4.173682599E0,-3.002335322E0,5.160551516E0
7.743064167E-1,2.127133001E-1,3.788527673E0,-3.002169262E0,4.838513114E0
7.843314167E-1,6.906451193E-1,2.343996435E0,-1.793701229E0,3.031282578E0
7.943564166E-1,6.888511936E-1,4.592207292E-1,-6.748768598E-1,1.068109742E0
8.043804167E-1,3.927999042E-1,-6.797402814E-1,4.610956389E-1,9.104657067E-1
8.144049167E-1,6.353445657E-2,-9.461882508E-1,1.822704003E0,2.054643209E0
8.244289167E-1,-1.793486673E-1,-5.264525995E-1,2.398164164E0,2.461810237E0
8.344539167E-1,-2.321193135E-1,1.344798204E-1,1.437723325E0,1.462536344E0
8.444789167E-1,-3.395451086E-1,3.586416033E-1,-2.367262799E-1,5.476805748E-1
8.545029167E-1,-3.012593860E-1,2.008480570E-1,-1.306492510E0,1.355735903E0
8.645279167E-1,4.504091945E-3,-1.175796130E-1,-1.125148718E0,1.131284619E0
8.745529166E-1,1.998983778E-1,-1.771168399E-1,-9.578674793E-2,2.837337440E-1
8.845769167E-1,2.821307865E-1,-2.923841715E-2,6.394947731E-1,6.995757504E-1
8.946019167E-1,2.827672376E-1,1.430512539E-1,7.372871161E-1,8.025043697E-1
9.046259166E-1,1.677170205E-1,2.329700285E-1,4.945949221E-1,5.718637688E-1
9.146509167E-1,5.577682765E-2,3.132765654E-1,1.373779929E-1,3.465919414E-1
9.246759167E-1,1.893264474E-2,3.031062108E-1,-1.755562180E-1,3.507874082E-1
9.346999167E-1,-1.806563057E-2,1.095130867E-1,-2.288816553E-1,2.543743212E-1
9.447249167E-1,-9.528363157E-2,-6.590542942E-2,5.019016027E-2,1.262598442E-1
9.547499167E-1,1.698588738E-2,-6.319144428E-2,2.359959626E-1,2.448995169E-1
9.647739167E-1,2.264819946E-1,-8.127834409E-2,6.188868463E-2,2.484561780E-1
9.747989167E-1,2.860232962E-1,-1.973894289E-1,-1.493185920E-1,3.782432478E-1
9.848239167E-1,2.832032389E-1,-2.901464421E-1,-7.306680679E-2,4.119803280E-1
9.948479166E-1,2.306815745E-1,-1.764011407E-1,2.724510133E-2,2.916738706E-1
1.004872917E0,1.609396955E-1,3.690820992E-2,1.874441922E-2,1.661780816E-1
1.014896917E0,1.097391729E-1,6.624895334E-3,7.627341986E-2,1.338066138E-1
1.024921917E0,3.222670980E-2,-2.467992783E-2,2.101337278E-1,2.140183245E-1
1.034946917E0,2.537044745E-2,1.514709520E-1,1.986047727E-1,2.510596834E-1
1.044970917E0,1.271626513E-1,3.402591267E-1,4.036216021E-2,3.654801187E-1
1.054995917E0,1.977061470E-1,3.234822956E-1,-3.780809641E-2,3.809960213E-1
1.065020917E0,8.939580518E-2,5.488430500E-2,1.116297787E-1,1.531832381E-1
1.075044917E0,-7.117847591E-2,-1.266793424E-1,2.708857137E-1,3.073973017E-1
1.085069917E0,-1.923223049E-1,-3.651790828E-2,1.999519712E-1,2.798253337E-1
1.095093917E0,-1.834130852E-2,6.798557639E-2,-6.099639952E-2,9.316116653E-2
1.105118917E0,1.967614380E-1,1.220957100E-2,-5.883877695E-2,2.057331737E-1
1.115143917E0,2.266309889E-1,1.157701921E-1,2.617383295E-1,3.650634132E-1
1.125167917E0,1.592842574E-1,3.630278921E-1,3.027577168E-1,4.988215715E-1
1.135192917E0,2.956143927E-2,2.993809497E-1,-3.972773731E-2,3.034487187E-1
1.145217917E0,-6.537167913E-2,-1.453559339E-1,-1.030092287E-1,1.897701377E-1
1.155241917E0,-1.066997263E-1,-2.632746854E-1,2.578908616E-1,3.836744559E-1
1.165266917E0,-8.374221459E-2,7.866317689E-2,3.695288265E-1,3.869783037E-1
1.175291917E0,-6.576518761E-2,3.854326683E-1,-1.031174022E-1,4.043718590E-1
1.185315917E0,-7.312321415E-2,2.418671519E-2,-5.296466410E-1,5.352173072E-1
1.195340917E0,-1.436142676E-1,-5.574530751E-1,7.429939985E-2,5.804303486E-1
1.205364917E0,-5.903689523E-1,2.538451731E-2,7.022658026E-1,9.178001586E-1
1.215389917E0,-7.434633107E-1,4.480464077E-1,8.553938556E-1,1.218680404E0
1.225414917E0,-7.300260437E-1,6.123765564E-1,5.623021710E-1,1.106402640E0
1.235438917E0,-2.815433058E-1,6.684452149E-1,8.463669240E-2,7.302390075E-1
1.245463917E0,1.208443876E-1,1.080875355E-1,-6.135997939E-1,6.346581666E-1
1.255488917E0,2.642917721E-1,-4.670606759E-1,-7.911791486E-1,9.560126887E-1
1.265512917E0,4.224516464E-1,-7.969942045E-1,-1.769928789E-1,9.192342655E-1
1.275537917E0,7.074606883E-1,-4.799131483E-1,4.383353519E-1,9.607055408E-1
1.285561917E0,9.669033279E-1,3.676515779E-1,3.691452491E-1,1.098334167E0
1.295586917E0,9.783110263E-1,6.636022586E-1,-1.317500478E-1,1.189461431E0
1.305611917E0,6.583490469E-1,3.420366803E-1,-3.398571306E-1,8.160364131E-1
1.315635917E0,1.391752442E-1,-3.909799218E-2,-1.027086818E-1,1.773343591E-1
1.325660917E0,-1.860388139E-1,-2.814013463E-1,3.346279657E-1,4.751557991E-1
1.335685917E0,-1.600611696E-1,-2.547234249E-1,7.291232336E-1,7.887485600E-1
1.345709917E0,1.142788598E-1,-8.716122776E-2,5.555281717E-1,5.738190367E-1
1.355734917E0,3.408847423E-1,-1.171831718E-1,-2.324320847E-1,4.289043917E-1
1.365758917E0,5.258241700E-1,-2.140700734E-1,-6.869057518E-1,8.911546251E-1
1.375783917E0,6.638485725E-1,-2.195530075E-1,-6.887546414E-1,9.814690043E-1
1.385808917E0,7.490335876E-1,-2.067943829E-1,-2.955270499E-1,8.313552005E-1
1.395832917E0,7.525031061E-1,-1.664670137E-1,2.367490840E-1,8.062396170E-1
1.405857917E0,5.849934973E-1,-1.184341836E-1,3.395232546E-1,6.866732033E-1
1.415882917E0,3.373104490E-1,-6.435620964E-2,-1.095300436E-2,3.435695403E-1
1.425906917E0,1.625080649E-1,-9.433020651E-2,-3.631302184E-1,4.088650322E-1
1.435931917E0,1.362924390E-1,-7.973964930E-2,-1.973908907E-1,2.527789634E-1
1.445956917E0,2.617966921E-1,-3.421732128E-2,2.624388260E-1,3.722666657E-1
1.455980917E0,4.868000720E-1,-7.672043949E-2,2.800366062E-1,5.668164048E-1
1.466005917E0,6.286709192E-1,-2.298788980E-1,2.100261390E-2,6.697107899E-1
1.476029917E0,6.655398796E-1,-7.278999960E-1,-2.953539723E-1,1.029570641E0
1.486054917E0,7.297626266E-1,-6.449668899E-1,-3.692961073E-1,1.041592720E0
1.496079917E0,6.279019372E-1,2.455257547E-1,-1.571269637E-1,6.922662939E-1
1.506103917E0,4.283447262E-1,1.917228338E0,3.086224741E-1,1.988590338E0
1.516128917E0,1.282025877E-1,2.467751877E0,5.286894518E-1,2.527003713E0
1.526153917E0,-6.561841884E-1,1.403032672E0,7.177258408E-1,1.707105371E0
1.536177917E0,-1.745392118E0,1.776144379E-1,1.016042597E0,2.027383312E0
1.546202917E0,-2.302207700E0,-3.206461036E-1,1.114516141E0,2.577813113E0
1.556226917E0,-1.999071523E0,-2.784102032E-1,7.787409514E-1,2.163385463E0
1.566251917E0,-1.155239732E0,-5.755741811E-1,1.057235062E-2,1.290727024E0
1.576276917E0,-4.064186908E-1,-8.472095078E-1,-7.707174021E-1,1.215296431E0
1.586300917E0,1.186365521E-1,-6.853708577E-1,-1.073355836E0,1.279023297E0
1.596325917E0,5.115060199E-1,-3.768074405E-1,-6.569229841E-1,9.138763936E-1
1.606350917E0,6.970630232E-1,-8.993982464E-2,2.709406775E-1,7.532561856E-1
1.616374917E0,4.956624775E-1,6.735159203E-1,8.545869398E-1,1.195668777E0
1.626399917E0,-2.340304028E-1,1.066305848E0,6.492900288E-1,1.270179488E0
1.636424917E0,-1.132825820E0,6.904667062E-1,3.786235857E-1,1.379635615E0
1.646448917E0,-1.752526452E0,4.365396720E-1,4.276302695E-1,1.856012796E0
1.656473917E0,-2.101604496E0,3.724264142E-1,7.256692833E-1,2.254337774E0
1.666497917E0,-2.252057886E0,1.235978597E-1,1.070068531E0,2.496414992E0
1.676522917E0,-2.154052851E0,-1.911960581E-1,1.143273917E0,2.446134678E0
1.686547917E0,-1.473712937E0,-2.895140657E-1,3.059631604E-1,1.532730136E0
1.696571917E0,-3.310575096E-1,-3.392779639E-1,-9.009693933E-1,1.018064074E0
1.706596917E0,4.959688716E-1,-7.451986912E-1,-1.600713876E0,1.834009576E0
1.716621917E0,7.143772135E-1,-1.386504639E0,-1.280971168E0,2.018320354E0
1.726645917E0,8.514859421E-1,-1.699311089E0,-6.871127433E-1,2.021091390E0
1.736670917E0,8.760304338E-1,-1.710805545E0,-6.825396359E-1,2.039643422E0
1.746695917E0,8.774391742E-1,-1.604107893E0,-1.142835376E0,2.156185134E0
1.756719917E0,1.203792818E0,-1.049683091E0,-1.242957834E0,2.023831988E0
1.766744917E0,1.506850132E0,-3.156145746E-1,-8.511072618E-1,1.759145659E0
1.776768917E0,1.841275053E0,3.127354056E-2,-3.172553033E-1,1.868668719E0
1.786793917E0,1.968454917E0,2.213168201E-1,-2.138262445E-1,1.992364815E0
1.796818917E0,2.061983031E0,6.137617618E-1,6.490409374E-2,2.152368478E0
1.806842917E0,1.812616972E0,8.911361307E-1,-6.130922556E-2,2.020757955E0
1.816867542E0,1.952595952E0,1.270222524E0,5.167699027E-1,2.386031715E0
1.826892542E0,1.802592651E0,1.256246509E0,9.277543187E-2,2.199114103E0
1.836916542E0,2.676385210E0,1.013972683E0,6.886254179E-1,2.943702322E0
1.846941542E0,2.724597257E0,8.284861386E-1,7.039158869E-1,2.933482072E0
1.856965542E0,1.272907565E0,9.133616897E-1,4.102786571E-1,1.619522097E0
1.866990542E0,6.165446710E-2,8.343172744E-1,6.519072425E-1,1.060598718E0
1.877015542E0,-5.061428441E-1,9.819828585E-1,8.690897888E-1,1.405627253E0
1.887039542E0,-9.203485277E-1,1.042808519E0,5.308891743E-1,1.488735818E0
1.897064542E0,-1.194281372E0,8.062041539E-1,6.257339358E-2,1.442285881E0
1.907089542E0,-1.638659675E0,5.531603417E-1,-4.734087056E-1,1.793127908E0
1.917113542E0,-1.981670355E0,5.559564802E-1,-6.969775808E-1,2.172989358E0
1.927138542E0,-2.052333079E0,8.776360792E-1,2.159979004E-1,2.242536789E0
1.937163542E0,-2.271091889E0,8.243977654E-1,8.386164397E-1,2.557492439E0
1.947187542E0,-2.232279533E0,1.873827964E-1,1.057028071E0,2.476992646E0
1.957212542E0,-1.584189353E0,-1.157478265E0,1.251953775E0,2.327402006E0
1.967236542E0,-5.891407812E-1,-2.368204493E0,7.345628983E-1,2.548541157E0
1.977261542E0,7.742484625E-2,-1.953880147E0,-7.936390722E-1,2.110332963E0
1.987286542E0,6.124523509E-1,-2.759692830E-1,-1.709117746E0,1.836393313E0
1.997310542E0,1.503220034E0,5.104212883E-1,-1.440738734E0,2.143811667E0
2.007335542E0,1.609875294E0,-2.720066249E-2,-7.787245792E-1,1.788533005E0
2.017360542E0,1.318246729E0,-8.442660195E-1,1.363254941E-1,1.571351072E0
2.027384542E0,1.441438646E0,-1.033230780E0,1.034014015E0,2.052923817E0
2.037409542E0,1.751379082E0,-9.436844730E-1,1.110245335E0,2.278269909E0
2.047434542E0,1.925756355E0,-7.695149222E-1,2.968871123E-1,2.094954108E0
2.057458542E0,1.955198694E0,-2.591140991E-1,-5.763594621E-1,2.054782782E0
2.067483542E0,1.768344486E0,1.051393694E-1,-8.543945664E-1,1.966745175E0
2.077507542E0,1.396630263E0,9.066107869E-4,-4.545941198E-1,1.468752098E0
2.087532542E0,9.464797345E-1,-6.590601414E-2,1.269939226E-1,9.572329637E-1
2.097557542E0,5.982746071E-1,3.207282570E-1,3.448921680E-2,6.796974521E-1
2.107581542E0,4.388566312E-1,6.016922316E-1,-1.809637231E-1,7.664049539E-1
2.117606542E0,3.192647355E-1,6.431481135E-1,-1.989059043E-1,7.450724971E-1
2.127631542E0,2.919665707E-1,3.964432678E-1,9.787946641E-2,5.019881800E-1
2.137655542E0,4.037276194E-1,1.964772633E-1,3.808262318E-1,5.887511567E-1
2.147680542E0,4.961845242E-1,4.286450538E-1,2.862469339E-1,7.154529833E-1
2.157705542E0,4.710834872E-1,8.609984118E-1,2.303686023E-1,1.008120831E0
2.167729542E0,2.513393489E-1,1.235497079E0,1.913489628E-1,1.275240733E0
2.177754542E0,-2.912044226E-1,1.464915801E0,3.937058938E-1,1.544597893E0
2.187778542E0,-8.641781276E-1,1.235914570E0,8.579625374E-1,1.735047082E0
2.197803542E0,-1.702367721E0,8.018678588E-1,7.978449744E-1,2.043918913E0
2.207828542E0,-2.391564558E0,5.054640189E-1,1.292731673E-1,2.447812587E0
2.217852542E0,-2.672378990E0,6.255468249E-1,-4.587017888E-1,2.782683170E0
2.227877542E0,-2.720720845E0,9.435429704E-1,-3.202642804E-1,2.897441020E0
2.237902542E0,-2.864468502E0,8.940930676E-1,4.224566531E-1,3.030355068E0
2.247926542E0,-2.967252029E0,6.036200586E-1,8.999098778E-1,3.158920633E0
2.257951542E0,-3.006751724E0,1.960372603E-1,6.592285413E-1,3.084407368E0
2.267976542E0,-2.988189446E0,-1.904651561E-1,3.841731781E-1,3.018798134E0
2.278000542E0,-2.921755721E0,-5.689831996E-1,5.897454929E-1,3.034501297E0
2.288025542E0,-2.883636845E0,-1.035955290E0,1.068796177E0,3.245133292E0
2.298049542E0,-2.858979136E0,-1.488674208E0,1.091742405E0,3.403206441E0
2.308074542E0,-2.615087386E0,-1.624780139E0,4.784911054E-1,3.115693546E0
2.318099542E0,-2.164898559E0,-1.416365200E0,-4.380657953E-1,2.623886009E0
2.328123542E0,-1.658530268E0,-1.654831612E0,-8.755813676E-1,2.501166337E0
2.338148542E0,-1.203339001E0,-1.781873189E0,-3.998214966E-1,2.186996580E0
2.348173542E0,-1.073499385E0,-1.590079253E0,-3.798497468E-1,1.955770638E0
2.358197542E0,-9.060172214E-1,-1.411516981E0,-6.000003397E-1,1.781361222E0
2.368222542E0,-7.392012752E-1,-1.424914122E0,-8.477685016E-1,1.815354018E0
2.378246542E0,-5.832522330E-1,-1.578913702E0,-9.440411532E-1,1.929861484E0
2.388271542E0,-3.417596684E-1,-1.688114255E0,-1.085753687E0,2.036023202E0
2.398296542E0,-1.387488726E-1,-1.569241238E0,-1.211617343E0,1.987406828E0
2.408320542E0,4.484799787E-2,-1.007374685E0,-1.289561897E0,1.637004882E0
2.418345542E0,5.726558357E-2,-1.097346961E-1,-1.319580333E0,1.325372893E0
2.428370542E0,-1.398750463E-1,6.870729822E-1,-1.536479874E0,1.688906366E0
2.438394542E0,6.359082372E-1,1.384282113E0,-1.896625673E0,2.432653941E0
2.448419542E0,2.311073395E0,2.192064722E0,-2.067342736E0,3.797382516E0
2.458444542E0,1.811244776E0,2.535315869E0,-2.191302538E0,3.809231026E0
2.468468542E0,1.711066477E0,2.602743914E0,-1.490402060E0,3.453016460E0
2.478493542E0,2.980703548E0,1.708949639E0,-2.528382826E-1,3.445145818E0
2.488518542E0,4.479270660E0,-3.210051227E-1,1.116377310E0,4.627440787E0
2.498542542E0,4.559124915E0,-1.422135233E0,2.092325549E0,5.214011394E0
2.508567542E0,3.549716569E0,-1.753197274E0,2.058492390E0,4.462239272E0
2.518591542E0,2.854362760E0,-9.237858135E-1,1.282559271E0,3.262778766E0
2.528616542E0,2.651536590E0,-4.421176234E-1,-7.171434581E-2,2.689099705E0
2.538641542E0,2.424362614E0,-1.240038027E0,-1.004773843E0,2.902550407E0
2.548665542E0,2.080318877E0,-2.148814038E0,-1.073440036E0,3.177640934E0
2.558690542E0,1.953037709E0,-2.506524764E0,-9.519249541E-1,3.317104733E0
2.568715542E0,2.171326987E0,-2.160458475E0,-9.179608172E-1,3.197638781E0
2.578739542E0,2.148080066E0,-1.089877728E0,-9.616570598E-1,2.593620198E0
2.588764542E0,1.549402366E0,1.632457826E-1,-1.103291241E0,1.909070046E0
2.598789542E0,8.139629705E-1,4.369077542E-1,-6.027491158E-1,1.103055121E0
2.608813542E0,9.752366334E-2,2.408994377E-2,3.623104388E-1,3.759787818E-1
2.618838542E0,-4.267254129E-1,-6.209944752E-1,7.388202560E-1,1.055264937E0
2.628862542E0,-4.069436976E-1,-8.833338985E-1,5.977971089E-1,1.141596835E0
2.638887542E0,-1.347958624E-1,-6.119698825E-1,1.547120637E-1,6.454555634E-1
2.648912542E0,3.593649039E-1,-1.259107259E-1,-3.065560681E-1,4.888489213E-1
2.658936542E0,5.702958995E-1,1.256917477E-1,-4.476066971E-1,7.357904482E-1
2.668961542E0,3.723995170E-1,-4.815591395E-2,-2.874818659E-1,4.729124819E-1
2.678986542E0,-4.162618205E-2,-2.021405840E-1,-1.509218985E-1,2.556774808E-1
2.689010542E0,-4.612558526E-1,-3.219684514E-1,-3.257016063E-2,5.634549322E-1
2.699035542E0,-7.768765667E-1,-4.919148508E-1,2.173573780E-1,9.448606511E-1
2.709060542E0,-9.209354420E-1,-6.419269225E-1,4.731888503E-1,1.218236410E0
2.719084542E0,-9.350681622E-1,-8.024078491E-1,6.606406438E-1,1.398090442E0
2.729109542E0,-9.343720512E-1,-8.938047999E-1,6.837453318E-1,1.462684460E0
2.739133542E0,-9.779753231E-1,-9.036135042E-1,5.922808456E-1,1.457309060E0
2.749158542E0,-9.798367842E-1,-1.130807653E0,4.971355373E-1,1.576689511E0
2.759183542E0,-9.084810188E-1,-1.294644443E0,2.988775045E-1,1.609586828E0
2.769207542E0,-7.287981284E-1,-1.141354568E0,1.275570095E-2,1.354252440E0
2.779232542E0,-4.162537806E-1,-1.008931798E0,-4.164498085E-1,1.168178508E0
2.789257542E0,9.300946668E-2,-1.172847087E0,-5.048994702E-1,1.280290797E0
2.799281542E0,4.510058297E-1,-1.304953377E0,-1.674373591E-1,1.390807263E0
2.809306542E0,7.076180515E-1,-1.172934503E0,-4.709639847E-2,1.370662878E0
2.819328167E0,1.081505539E0,-1.250406163E0,8.938287735E-2,1.655644618E0
2.829352167E0,1.337118910E0,-1.458429339E0,2.203821427E-1,1.990846906E0
2.839377167E0,1.152693927E0,-1.335635325E0,2.012523919E-1,1.775704800E0
2.849401167E0,8.471573214E-1,-1.875209369E0,3.844316250E-1,2.093292473E0
2.859426167E0,7.079223260E-1,-3.204900999E0,5.212132019E-1,3.323282660E0
2.869451167E0,6.148772644E-1,-4.815748977E0,6.092254919E-1,4.892920188E0
2.879475167E0,6.538392357E-1,-6.377477421E0,9.961644030E-1,6.487839973E0
2.889500167E0,9.615684745E-1,-6.896409624E0,1.688270668E0,7.164868281E0
2.899525167E0,1.679261863E0,-6.384442039E0,2.591194786E0,7.091918709E0
2.909549167E0,2.868563892E0,-5.435581026E0,2.544984825E0,6.652153610E0
2.919574167E0,3.593636760E0,-4.039099283E0,9.646794856E-1,5.491735125E0
2.929599167E0,3.942956439E0,-3.329743439E0,-9.435067177E-2,5.161685664E0
2.939623167E0,4.170162575E0,-3.155392039E0,-5.619583547E-1,5.259520132E0
2.949648167E0,3.789900015E0,-3.303982068E0,-5.694983393E-1,5.060036362E0
2.959672167E0,2.763678877E0,-3.283592827E0,3.126775181E-1,4.303216241E0
2.969697167E0,1.687605548E0,-3.160273880E0,1.454134705E0,3.866503746E0
2.979722167E0,1.661856749E0,-2.647440907E0,1.906532611E0,3.661362835E0
2.989746167E0,1.864248909E0,-2.556865783E0,1.658919985E0,3.572814317E0
2.999771167E0,1.355798133E0,-2.478758968E0,1.471103910E0,3.185369886E0
3.009796167E0,7.753301243E-1,-1.914056808E0,2.731236770E0,3.424091786E0
3.019820167E0,1.180558687E-1,-1.734430635E0,4.107699986E0,4.460424418E0
3.029845167E0,-4.298017792E-1,-1.865617011E0,4.223757861E0,4.637390093E0
3.039870167E0,-7.519038396E-1,-2.224928998E0,3.101703490E0,3.890531194E0
3.049894167E0,-1.244048047E0,-2.354971367E0,2.455965060E0,3.622886978E0
3.059919167E0,-2.436845103E0,-2.327908406E0,2.099830450E0,3.970725315E0
3.069943167E0,-3.777322361E0,-1.698662048E0,2.792983952E0,4.995435550E0
3.079968167E0,-5.024242854E0,-8.960045224E-1,3.682733708E0,6.293517929E0
3.089993167E0,-5.471543157E0,4.348352087E-1,6.642235837E0,8.616621327E0
3.100017167E0,-4.847510760E0,-3.949156827E-1,5.229608762E0,7.141647343E0
3.110042167E0,-4.060024421E0,-2.477011528E0,2.534285005E0,5.389061597E0
3.120067167E0,-2.671014834E0,-3.281203655E0,8.084676111E-1,4.307463006E0
3.130091167E0,-1.982387516E0,-3.287652549E0,-1.936447551E0,4.299807980E0
3.140116167E0,-1.516739381E0,-2.968279969E0,-3.170284898E0,4.600205502E0
3.150141167E0,-1.028424880E0,-2.709340117E0,-2.059614471E0,3.555304962E0
3.160165167E0,-6.081729565E-1,-2.928613920E0,-4.524278433E0,5.423628783E0
3.170190167E0,-5.435498580E-3,-3.706150930E0,-8.302092546E0,9.091772374E0
3.180215167E0,4.849505246E-1,-3.997643108E0,-7.753637166E0,8.737002732E0
3.190239167E0,1.070114870E0,-3.758065726E0,-5.889141943E0,7.067545307E0
3.200264167E0,1.298976791E0,-3.374702387E0,-2.515562806E0,4.404998653E0
3.210288167E0,1.541180743E0,-4.687704018E-1,1.015674457E1,1.028369797E1
3.220313167E0,-1.197692783E0,-5.383955374E-1,1.569011326E1,1.574496719E1
3.230338167E0,-2.475726018E0,-2.679523118E0,4.395254942E0,5.712033741E0
3.240362167E0,-2.279865636E0,-2.002473140E0,-1.270191826E0,3.289539978E0
3.250387167E0,-2.001099337E0,-1.778392634E0,-2.636061641E0,3.757113239E0
3.260412167E0,-2.267110227E0,-1.859958953E0,-2.402205759E0,3.790755677E0
3.270436167E0,-3.796056256E0,-1.387553922E0,-1.975547297E0,4.498681596E0
3.280461167E0,-5.073628437E0,-1.772665578E0,-1.232276140E0,5.513851037E0
3.290486167E0,-5.499022146E0,-1.574889941E0,1.400880604E0,5.889141649E0
3.300510167E0,-4.854414568E0,-2.089691086E0,1.153970228E0,5.409602289E0
3.310535167E0,-3.346503021E0,-2.858416927E0,-2.266561466E0,4.950447522E0
3.320559167E0,-2.246129102E0,-2.115541627E0,-2.859141104E0,4.206578202E0
3.330584167E0,-1.782010891E0,-6.550553834E-1,-1.270123998E0,2.284266915E0
3.340609167E0,-2.037840755E0,-3.145217299E-3,9.996429116E-1,2.269821752E0
3.350633167E0,-2.434971217E0,-1.147694412E-1,-6.734706044E-1,2.528995751E0
3.360658167E0,-2.351661550E0,2.629706302E-1,-3.880943209E-1,2.397933027E0
3.370683167E0,-2.970072141E0,7.067649427E-1,1.278621172E0,3.309942191E0
3.380707167E0,-3.502300620E0,3.481347415E-1,-1.567311072E-1,3.523048690E0
3.390732167E0,-3.323942416E0,1.306113026E-1,-4.006740206E-1,3.350551025E0
3.400757167E0,-2.420558415E0,-4.153272893E-1,6.961928844E-2,2.456918119E0
3.410781167E0,-1.068480354E0,-8.140505326E-1,3.551575398E-1,1.389411895E0
3.420806167E0,3.858256012E-2,-1.057792156E0,9.758973688E-1,1.439718213E0
3.430830167E0,7.821726092E-1,-8.316167378E-1,2.130607855E0,2.417202974E0
3.440855167E0,4.091532142E-1,-1.434169972E-1,2.641933415E0,2.677272298E0
3.450880167E0,-9.270551379E-1,2.454693291E-1,1.983473198E0,2.203146011E0
3.460904167E0,-2.074253267E0,9.663544205E-1,2.377841581E0,3.300075464E0
3.470929167E0,-2.599670910E0,1.554423224E0,2.893725046E0,4.189053000E0
3.480954167E0,-2.366194366E0,2.067149485E0,3.007803054E0,4.349581817E0
3.490978167E0,-1.859343241E0,2.452854634E0,3.444333370E0,4.619208321E0
3.501003167E0,-1.328649364E0,3.121081163E0,4.709914082E0,5.804286986E0
3.511028167E0,-1.598344000E0,3.962587296E0,5.855795272E0,7.248940605E0
3.521052167E0,-2.760652943E0,4.597821496E0,5.749552533E0,7.862475533E0
3.531077167E0,-3.956931577E0,4.915712684E0,4.549297500E0,7.779308866E0
3.541101167E0,-4.902666961E0,5.277347184E0,3.786138793E0,8.137652216E0
3.551126167E0,-4.921590890E0,6.500663052E0,3.413439022E0,8.839244479E0
3.561151167E0,-6.902103058E0,7.434035960E0,3.310697595E0,1.067073736E1
3.571175167E0,-6.310682337E0,7.071306860E0,3.080681580E0,9.965876343E0
3.581200167E0,-2.488209238E0,5.741886249E0,2.092828410E0,6.598512988E0
3.591225167E0,-4.696390057E-1,5.141945550E0,1.884057668E0,5.496347709E0
3.601249167E0,-1.590074283E-1,5.554062572E0,2.513414539E0,6.098372493E0
3.611274167E0,-1.457355936E0,5.828305757E0,2.078450106E0,6.357121138E0
3.621299167E0,-2.636955973E0,5.538762163E0,1.382622673E0,6.288327962E0
3.631323167E0,-2.337808034E0,5.463997909E0,6.234956217E-1,5.975731449E0
3.641348167E0,-1.714543962E0,5.345956074E0,-3.994186234E-1,5.628360559E0
3.651372167E0,-1.143294967E0,5.130673288E0,-1.108202902E0,5.372061564E0
3.661397167E0,-8.073768130E-1,5.036736599E0,-1.198385679E0,5.239914229E0
3.671422167E0,-6.280704832E-1,5.389097416E0,-1.115394393E0,5.539038557E0
3.681446167E0,-3.654650116E-1,5.609584808E0,-1.286447670E0,5.766797552E0
3.691471167E0,-1.139970240E-1,5.676022042E0,-1.411572238E0,5.850022028E0
3.701496167E0,-1.363515142E-1,5.870382321E0,-1.619329657E0,6.091158253E0
3.711520167E0,-5.368083107E-1,6.395092158E0,-1.266525621E0,6.541364844E0
3.721545167E0,-1.194793149E0,7.269978876E0,-1.202434875E0,7.464983132E0
3.731570167E0,-1.647153048E0,7.777489128E0,-1.588196157E0,8.107084392E0
3.741594167E0,-1.522227870E0,7.945673761E0,-1.944080506E0,8.320478245E0
3.751619167E0,-1.029842026E0,7.893113140E0,-2.400951532E0,8.314227438E0
3.761643167E0,-2.948201215E-1,7.987234601E0,-2.972671813E0,8.527579562E0
3.771668167E0,3.151998608E-1,8.354173695E0,-3.308914779E0,8.991133750E0
3.781693167E0,5.238092194E-1,8.801867516E0,-2.619024609E0,9.198181221E0
3.791717167E0,2.851440029E-1,9.721398311E0,-1.734602836E0,9.879055583E0
3.801742167E0,-5.582893731E-1,1.014759601E1,-1.710790635E0,1.030593016E1
3.811767167E0,-1.108328325E0,1.062103571E1,-2.186800182E0,1.090031588E1
3.821791042E0,-9.806200187E-1,1.097635229E1,-2.480483020E0,1.129578334E1
3.831816042E0,-6.814725190E-1,1.026283411E1,-3.204144369E0,1.077296198E1
3.841841042E0,-4.485419592E-1,9.175444955E0,-3.681704013E0,9.896712810E0
3.851865042E0,-5.421552971E-2,8.212037238E0,-4.157045808E0,9.204429628E0
3.861890042E0,7.102557305E-1,7.650285875E0,-4.960071416E0,9.145143281E0
3.871915042E0,1.698624041E0,6.749717601E0,-5.708804457E0,9.001914221E0
3.881939042E0,2.446892228E0,6.380077093E0,-6.163684505E0,9.202373170E0
3.891964042E0,2.980747695E0,6.646392038E0,-6.242766927E0,9.593306148E0
3.901988042E0,3.209995093E0,7.274975907E0,-6.058630505E0,9.996816820E0
3.912013042E0,2.706198700E0,8.391306438E0,-5.419690048E0,1.034942391E1
3.922038042E0,1.843841980E0,9.638256751E0,-3.734254110E0,1.049954286E1
3.932062042E0,2.573209043E0,9.284776193E0,-1.058502738E0,9.692724167E0
3.942087042E0,4.332919823E0,8.009352279E0,2.875216269E-1,9.110795070E0
3.952112042E0,5.060937055E0,7.241846167E0,2.944232125E0,9.312675373E0
3.962136042E0,6.745797043E0,6.982605768E0,7.165099708E0,1.206653284E1
3.972161042E0,9.755111017E0,5.938318781E0,1.181144812E1,1.642973304E1
3.982186042E0,1.320067873E1,3.373549609E0,1.315500964E1,1.893919308E1
3.992210042E0,1.166253708E1,-1.185467425E-1,1.693233902E1,2.056047006E1
4.002235042E0,6.297040783E0,-3.294926193E0,1.469764429E1,1.632574681E1
4.012260042E0,4.108001995E0,-2.745024505E0,9.363595490E0,1.058715072E1
4.022284042E0,2.496704950E0,-1.382457197E-2,3.542729146E0,4.334126963E0
4.032309042E0,5.688174310E-1,1.979813718E0,1.694019651E0,2.667005475E0
4.042333042E0,-3.862463084E-1,3.284641818E0,9.104073840E-1,3.430291487E0
4.052358042E0,-1.099242336E0,4.091219901E0,1.956326330E-1,4.240835545E0
4.062383042E0,-9.342877051E-1,4.112750226E0,-3.507101476E-1,4.232092337E0
4.072407042E0,2.711032301E-2,3.462082009E0,-5.970252764E-1,3.513287063E0
4.082432042E0,7.316278884E-1,2.958960092E0,-7.760313517E-1,3.145305844E0
4.092457042E0,6.654771683E-1,2.387092022E0,-6.338282365E-1,2.557891010E0
4.102481042E0,6.535348150E-1,2.280175684E0,-6.918542504E-1,2.470823994E0
4.112506042E0,6.131171063E-1,2.096714615E0,-7.258324206E-1,2.301946452E0
4.122531042E0,5.927647027E-1,1.717058119E0,-7.332361650E-1,1.958901185E0
4.132555042E0,7.626134536E-1,1.261551834E0,-8.357103735E-1,1.694551308E0
4.142580042E0,1.008321349E0,7.626941451E-1,-8.391789418E-1,1.517443771E0
4.152604042E0,1.233283031E0,2.270947462E-1,-6.307508469E-1,1.403711398E0
4.162629042E0,1.517322641E0,-3.605403404E-1,-6.179395974E-2,1.560793333E0
4.172654042E0,1.697681470E0,-8.847381804E-1,7.066050214E-1,2.040630951E0
4.182678042E0,1.468431732E0,-1.445752721E0,1.494126737E0,2.545369794E0
4.192703042E0,1.017021714E0,-1.984150013E0,2.345335740E0,3.236013624E0
4.202728042E0,7.977499571E-1,-2.266824883E0,3.313536419E0,4.093216784E0
4.212752042E0,7.140081811E-1,-2.631286512E0,4.580104140E0,5.330181078E0
4.222777042E0,6.436869344E-1,-3.131093058E0,5.953015172E0,6.756956878E0
4.232802042E0,2.706582570E-1,-3.563524476E0,6.634512835E0,7.535829293E0
4.242826042E0,-3.756584626E-1,-3.620345671E0,7.109306161E0,7.986880251E0
4.252851042E0,-1.006858668E0,-3.316840388E0,7.435853274E0,8.204090959E0
4.262875042E0,-2.081532174E0,-2.671398704E0,6.734011395E0,7.537642648E0
4.272900042E0,-3.257751350E0,-2.148618887E0,5.917025560E0,7.088067329E0
4.282925042E0,-3.501715021E0,-1.776215277E0,4.187891625E0,5.740678101E0
4.292949042E0,-3.122380122E0,-1.443446726E0,1.482089074E0,3.745581944E0
4.302974042E0,-2.217237571E0,-1.158081625E0,2.202102345E-1,2.511132820E0
4.312999042E0,-9.943503043E-1,-6.195220732E-1,-2.717125100E-1,1.202650329E0
4.323023042E0,-1.942310554E-1,-1.292500753E-2,-9.525032437E-1,9.721909215E-1
4.333048042E0,8.326727450E-2,3.717921375E-1,-1.873757213E0,1.912100658E0
4.343073042E0,1.334281987E-1,5.911504327E-1,-2.578394061E0,2.648655858E0
4.353097042E0,5.457527965E-2,6.803605979E-1,-2.918409067E0,2.997162072E0
4.363122042E0,-8.215279520E-2,7.242515527E-1,-2.802861069E0,2.896086940E0
4.373147042E0,-2.401229274E-1,8.864020787E-1,-2.664569741E0,2.818385987E0
4.383171042E0,-3.665242347E-1,9.390713853E-1,-2.588521439E0,2.777883785E0
4.393196042E0,-4.519830456E-1,1.008849718E0,-2.470089594E0,2.706179785E0
4.403220042E0,-6.087919208E-1,1.048465481E0,-2.097051269E0,2.422298803E0
4.413245042E0,-8.331118709E-1,1.096543920E0,-1.549234405E0,2.072826862E0
4.423270042E0,-1.108528884E0,1.206058468E0,-9.658746564E-1,1.901664315E0
4.433294042E0,-1.461937230E0,1.197245252E0,-3.608211529E-1,1.923758967E0
4.443319042E0,-1.822000291E0,1.079754736E0,1.410880512E-1,2.122607168E0
4.453344042E0,-2.099265902E0,9.537975249E-1,5.569841284E-1,2.372104206E0
4.463368042E0,-2.267010824E0,6.190040099E-1,8.238288313E-1,2.490220469E0
4.473393042E0,-2.327224574E0,3.400327664E-1,8.861864626E-1,2.513348951E0
4.483418042E0,-2.314268314E0,1.491856226E-1,7.337033576E-1,2.432368145E0
4.493442042E0,-1.971947459E0,-7.059990305E-2,4.727479702E-1,2.029051939E0
4.503467042E0,-1.465171032E0,-1.625151730E-1,2.889343143E-1,1.502205170E0
4.513492042E0,-1.004560712E0,-3.931311125E-1,-2.280110049E-1,1.102580298E0
4.523516042E0,-5.279266825E-1,-5.566950566E-1,-6.484696645E-1,1.004554067E0
4.533541042E0,-2.206025827E-1,-7.301699582E-1,-5.660093057E-1,9.498316701E-1
4.543565042E0,-7.624710739E-2,-8.474121138E-1,-5.275246865E-1,1.001100997E0
4.553590042E0,-1.790718564E-1,-8.575633918E-1,-3.667344421E-1,9.497240925E-1
4.563615042E0,-7.736614752E-1,-9.591029229E-1,-1.006013453E-1,1.236345876E0
4.573639042E0,-1.752114077E0,-1.160155706E0,1.792890805E-1,2.109030482E0
4.583664042E0,-2.548903922E0,-1.536667569E0,8.664754987E-1,3.099844869E0
4.593689042E0,-3.132345531E0,-1.993953016E0,1.278856230E0,3.927201346E0
4.603713042E0,-3.309064468E0,-2.397698287E0,1.440676754E0,4.332945215E0
4.613738042E0,-3.432207415E0,-2.621727777E0,1.833783892E0,4.692149575E0
4.623763042E0,-3.443934005E0,-2.852247822E0,2.105715088E0,4.942674894E0
4.633787042E0,-3.248494915E0,-3.162491436E0,1.981552972E0,4.947789757E0
4.643812042E0,-2.949513330E0,-3.560756112E0,1.475803317E0,4.853515057E0
4.653836042E0,-2.589929448E0,-3.893004845E0,9.298563927E-1,4.767373930E0
4.663861042E0,-2.367178599E0,-4.094606316E0,2.766955072E-1,4.737709975E0
4.673886042E0,-2.310048817E0,-4.141887194E0,-2.367613631E-1,4.748432479E0
4.683910042E0,-2.330656890E0,-3.990489332E0,-7.031960946E-1,4.674446641E0
4.693935042E0,-2.365882271E0,-3.707061341E0,-1.010914004E0,4.512388484E0
4.703960042E0,-2.266227590E0,-3.329138544E0,-1.025462462E0,4.155782020E0
4.713984042E0,-2.095814875E0,-2.992043346E0,-9.617137778E-1,3.777519922E0
4.724009042E0,-2.122242974E0,-2.834193082E0,-8.362547493E-1,3.638115951E0
4.734034042E0,-2.208098519E0,-2.808685773E0,-7.148355621E-1,3.643542880E0
4.744058042E0,-2.182349720E0,-2.824092601E0,-6.797627932E-1,3.633211634E0
4.754083042E0,-1.949299877E0,-2.669649217E0,-5.877539313E-1,3.357417406E0
4.764107042E0,-1.651016011E0,-2.332744053E0,-5.711168486E-1,2.914399276E0
4.774132042E0,-1.391669485E0,-1.896399094E0,-5.447283643E-1,2.414498389E0
4.784157042E0,-1.422941564E0,-1.488967738E0,-5.781814545E-1,2.139177742E0
4.794181042E0,-1.397172446E0,-1.243774982E0,-5.951635230E-1,1.962979029E0
4.804206042E0,-1.275596407E0,-1.206649256E0,-5.082323831E-1,1.827963013E0
4.814231042E0,-1.112805099E0,-1.201524172E0,-3.999653381E-1,1.685813689E0
4.824258875E0,-9.126081298E-1,-1.070600920E0,-3.195865881E-1,1.442627989E0
4.834283875E0,-8.024840091E-1,-8.801916048E-1,-2.160212892E-1,1.210530067E0
4.844308875E0,-8.262836386E-1,-7.048435476E-1,-1.258876294E-1,1.093342020E0
4.854332875E0,-1.035727541E0,-6.089942345E-1,-2.375343651E-1,1.224756340E0
4.864357875E0,-1.331364080E0,-5.452692318E-1,-5.010584342E-1,1.523452790E0
4.874382875E0,-1.455018366E0,-5.038924335E-1,-7.072388595E-1,1.694453550E0
4.884406875E0,-1.623996466E0,-4.896171874E-1,-8.445507789E-1,1.894823351E0
4.894431875E0,-1.407140194E0,-4.848081449E-1,-5.285637367E-1,1.579386618E0
4.904455875E0,-1.554166532E0,-6.358434793E-1,8.607627690E-2,1.681410022E0
4.914480875E0,-2.106837461E0,-5.145285188E-1,4.646220946E-1,2.217966946E0
4.924505875E0,-2.625819658E0,-5.089809729E-1,5.968615544E-1,2.740480655E0
4.934529875E0,-2.460680547E0,-4.290087506E-1,8.232932264E-1,2.629982699E0
4.944554875E0,-1.987188372E0,-1.808820082E-1,1.269002502E0,2.364741694E0
4.954579875E0,-1.672340222E0,-1.183594854E-1,1.964402504E0,2.582558418E0
4.964603875E0,-9.346331294E-1,3.537156165E-2,2.582773626E0,2.746909142E0
4.974628875E0,5.965490207E-2,-1.191998765E-1,2.268626702E0,2.272539204E0
4.984653875E0,8.338379489E-1,-6.513695911E-1,1.303240873E0,1.678691408E0
4.994677875E0,1.387195926E0,-8.668408035E-1,8.117128158E-1,1.826089596E0
5.004702875E0,1.881296320E0,-8.089728105E-1,6.684384906E-1,2.154187287E0
5.014726875E0,2.050905335E0,-5.747429994E-1,9.487428993E-1,2.331663633E0
5.024751875E0,2.057888957E0,-7.101077959E-1,1.185840477E0,2.478987229E0
5.034776875E0,2.318409604E0,-6.654778992E-1,1.246642165E0,2.715142835E0
5.044800875E0,8.686989024E-2,2.029795133E-1,1.601609085E0,1.616755616E0
5.054825875E0,-2.229734240E0,5.770260447E-1,2.055590417E0,3.087090183E0
5.064850875E0,-1.754601483E0,2.014564598E-1,1.440559809E0,2.279127823E0
5.074874875E0,-1.065858390E0,-5.256338431E-1,9.835227227E-1,1.542615308E0
5.084899875E0,-9.988593847E-1,-2.712897563E-1,6.967729282E-1,1.247722211E0
5.094924875E0,-8.427473514E-1,-7.536724761E-2,8.327546060E-2,8.501988724E-1
5.104948875E0,-8.951743640E-1,-2.992461714E-1,-3.062520128E-1,9.923082729E-1
5.114973875E0,-5.889803848E-1,-2.577297708E-1,-2.836063313E-1,7.026770806E-1
5.124997875E0,-2.960231861E-1,-1.098647967E-1,-1.311957318E-1,3.419244366E-1
5.135022875E0,-2.125303553E-1,-7.751039833E-2,-2.746437192E-2,2.278844126E-1
5.145047875E0,-4.276692997E-1,-3.200593355E-1,3.646499097E-2,5.354145158E-1
5.155071875E0,-3.131717540E-1,-2.980330203E-1,-1.762502825E-1,4.668665664E-1
5.165096875E0,-4.242542334E-1,-1.457895049E-1,-1.785149091E-1,4.828186068E-1
5.175121875E0,-7.582998164E-1,1.368974979E-1,2.951674461E-3,7.705635917E-1
5.185145875E0,-6.881719664E-1,5.425021832E-1,-8.891568482E-2,8.807924120E-1
5.195170875E0,-2.886247042E-1,5.948555209E-1,-2.150769639E-1,6.952808145E-1
5.205195875E0,-1.569395605E-1,5.479577816E-1,1.738219339E-1,5.959042043E-1
5.215219875E0,-7.433595957E-1,7.682604021E-1,8.251374382E-1,1.350429312E0
5.225244875E0,-1.328809285E0,1.400951940E0,1.481240058E0,2.433613068E0
5.235269875E0,-2.066449720E0,1.365782253E0,2.503071983E0,3.521497545E0
5.245293875E0,-2.289302018E0,4.611842242E-1,2.411936111E0,3.357235533E0
5.255318875E0,-1.805385866E0,-1.141658331E0,1.080731514E0,2.393905277E0
5.265342875E0,-1.603721830E0,-2.049648769E0,-8.180324864E-1,2.728032429E0
5.275367875E0,-1.211378923E0,-1.633583707E0,-1.555390354E0,2.560326888E0
5.285392875E0,-7.358063087E-2,-1.211550246E0,-1.951004779E0,2.297757114E0
5.295416875E0,2.037611252E0,-1.182963793E0,-1.685265784E0,2.896788517E0
5.305441875E0,2.449857351E0,-1.448011355E0,-2.619221075E0,3.867668156E0
5.315466875E0,1.950028440E0,-2.025180071E0,-3.975745286E0,4.869344495E0
5.325490875E0,1.961787483E0,-1.709021267E0,-4.344040350E0,5.063600535E0
5.335515875E0,1.452024737E0,-9.248538074E-1,-3.709002324E0,4.089062074E0
5.345540875E0,6.981351833E-1,-5.156001672E-1,-9.684684813E-1,1.300448948E0
5.355564875E0,6.664463443E-1,-9.662333831E-2,2.138719112E0,2.242232423E0
5.365589875E0,2.937280078E-1,1.165376392E-1,2.221493466E0,2.243856142E0
5.375614875E0,-6.178877033E-1,-8.716385901E-1,1.482584918E0,1.827456452E0
5.385638875E0,-1.677256268E0,-2.094082053E0,2.138553636E0,3.431002752E0
5.395663875E0,-2.681061813E0,-2.872552863E0,2.571583225E0,4.696029458E0
5.405687875E0,-3.949542158E0,-3.086213339E0,1.921103872E0,5.367889354E0
5.415712875E0,-4.883443947E0,-1.067110717E0,1.205059690E0,5.141878929E0
5.425737875E0,-4.512458872E0,1.036075012E0,7.720049590E-1,4.693796774E0
5.435761875E0,-3.398323969E0,1.188038592E0,3.609807819E-1,3.618058681E0
5.445786875E0,-2.087285103E0,8.807543993E-1,2.200009042E-1,2.276156368E0
5.455811875E0,-1.502821839E0,1.029076333E0,1.467066407E-2,1.821451840E0
5.465835875E0,-9.148288292E-1,1.106951598E0,1.066286552E-1,1.440008089E0
5.475860875E0,2.460157514E-2,9.546433246E-1,2.154114246E-1,9.789541341E-1
5.485885875E0,1.076505438E0,9.662234429E-1,5.175604463E-2,1.447456524E0
5.495909875E0,1.938428003E0,9.820616497E-1,-2.013079405E-2,2.173097663E0
5.505934875E0,2.350184982E0,8.429332928E-1,-9.312977314E-2,2.498515387E0
5.515958875E0,2.626036590E0,5.719006678E-1,-7.480167568E-1,2.789743288E0
5.525983875E0,2.597695720E0,2.110613886E-1,-2.451200164E0,3.577841837E0
5.536008875E0,3.018606954E0,2.885133147E-2,-4.120825816E0,5.108231176E0
5.546032875E0,3.629004813E0,9.911381364E-2,-4.921035989E0,6.115234639E0
5.556057875E0,4.562748727E0,7.091076297E-1,-4.624855805E0,6.535350090E0
5.566082875E0,5.787291632E0,2.646716730E0,-2.748819348E0,6.932089273E0
5.576106875E0,5.988696637E0,4.252719705E0,-4.459671378E-3,7.345075369E0
5.586131875E0,6.001279260E0,6.076024218E0,3.419468670E0,9.199249374E0
5.596156875E0,4.059971211E0,8.194428349E0,5.732638292E0,1.079329255E1
5.606180875E0,-2.482200932E0,4.749664916E0,4.625580275E0,7.079310076E0
5.616205875E0,-5.163341682E0,1.487978389E0,5.072937296E0,7.389781446E0
5.626230875E0,-4.397043021E0,6.305504335E-1,3.870896523E0,5.891979384E0
5.636254875E0,-1.686021829E0,-4.905968884E-1,1.165706760E0,2.107659167E0
5.646279875E0,-6.562769399E-1,-1.723182785E0,-1.766818070E-1,1.852370048E0
5.656303875E0,-2.758794698E0,-2.073459508E0,-7.891764772E-1,3.540195196E0
5.666328875E0,-3.807157779E0,-2.112723415E0,-1.946059788E0,4.769192729E0
5.676353875E0,-3.641360857E0,-1.793486782E0,-2.466546766E0,4.749732274E0
5.686377875E0,-3.538397529E0,-1.432577337E0,-2.095415803E0,4.354687392E0
5.696402875E0,-3.900526704E0,-1.776504276E0,-1.548604075E0,4.557219612E0
5.706427875E0,-4.425509898E0,-2.401416824E0,-1.190399551E-1,5.036478048E0
5.716451875E0,-3.984025528E0,-3.072174174E0,1.217226577E0,5.176133122E0
5.726476875E0,-2.982308024E0,-4.246583052E0,2.270149317E0,5.664027427E0
5.736501875E0,-1.448589790E0,-5.389997887E0,4.378066467E0,7.093515038E0
5.746525875E0,-1.278378220E-1,-6.707834580E0,6.446771019E0,9.304420661E0
5.756550875E0,-2.010521248E-2,-7.699392546E0,7.383206699E0,1.066737039E1
5.766575875E0,-1.361011949E0,-7.645801646E0,4.349689345E0,8.901147888E0
5.776599875E0,-1.876445032E0,-7.188151186E0,3.803323760E0,8.346007132E0
5.786624875E0,-3.095185014E0,-7.043846582E0,4.772576938E0,9.053918244E0
5.796648875E0,-4.730755020E0,-5.774098560E0,5.159793007E0,9.074344115E0
5.806673875E0,-6.570637851E0,-4.978026461E0,6.129028058E0,1.027224484E1
5.816698500E0,-7.602406535E0,-3.705800974E0,6.393830913E0,1.060238745E1
5.826722500E0,-6.862574710E0,-8.715481044E-1,5.967197594E0,9.135752562E0
5.836747500E0,-5.047120669E0,1.843748425E0,5.021781176E0,7.354666647E0
5.846772500E0,-3.405507274E0,2.668077193E0,4.883173513E0,6.523917478E0
5.856796500E0,-2.571447861E0,2.544614697E0,4.555014322E0,5.816834494E0
5.866821500E0,-2.036041128E0,2.681501231E0,3.294818312E0,4.710810974E0
5.876846500E0,-1.419362483E0,3.212635696E0,1.510610622E0,3.823292093E0
5.886870500E0,-8.784390481E-1,4.711610651E0,-8.005902421E-1,4.859205164E0
5.896895500E0,-1.041394297E0,5.467893324E0,-3.198238097E0,6.419586156E0
5.906919500E0,-1.491005785E0,5.575792580E0,-3.752626061E0,6.884385485E0
5.916944500E0,-2.009418755E0,5.877523525E0,-3.715962850E0,7.238192207E0
5.926969500E0,-2.419645080E0,5.358363281E0,-5.252483069E0,7.883864392E0
5.936993500E0,-1.842343485E0,4.284672107E0,-7.154388193E0,8.540369723E0
5.947018500E0,-6.438771882E-1,3.017336939E0,-8.482557501E0,9.026221901E0
5.957043500E0,-8.167083845E-2,2.100567492E0,-9.366668202E0,9.599662865E0
5.967067500E0,2.347677404E0,2.794638129E0,-9.648675905E0,1.031593613E1
5.977092500E0,8.199921808E0,7.232353798E0,-9.666466058E0,1.459404759E1
5.987117500E0,2.023288409E1,1.953027214E1,-1.076271491E1,3.011041615E1
5.997141500E0,1.858847164E1,2.375556489E1,-1.237594066E1,3.260401890E1
6.007166500E0,6.583294734E0,2.055231749E1,-1.140181091E1,2.440776138E1
6.017190500E0,8.628923834E0,1.625459761E1,-4.812389460E0,1.902181280E1
6.027215500E0,1.261840598E1,9.874582497E0,-9.277889342E0,1.851515000E1
6.037240500E0,1.177369967E1,6.856990619E0,-6.083526195E0,1.492138114E1
6.047264500E0,5.062617545E0,6.535738159E0,-3.957348191E0,9.165510046E0
6.057289500E0,1.559159469E0,6.598279393E0,-4.728823392E0,8.266198635E0
6.067314500E0,1.922232092E0,6.166254941E0,-2.300491104E0,6.856379186E0
6.077338500E0,2.782896336E0,5.811062903E0,1.789598823E-1,6.445540374E0
6.087363500E0,1.817356432E0,5.058313994E0,8.912443042E-2,5.375617921E0
6.097388500E0,7.015107809E-1,4.212921216E0,2.739806449E-1,4.279706526E0
6.107412500E0,-4.957108632E-2,3.766471683E0,2.163283265E0,4.343795658E0
6.117437500E0,-9.403172077E-1,2.739091335E0,-8.759865797E-1,3.025585940E0
6.127462500E0,-3.063499245E0,2.172634133E0,-1.287407783E0,3.970237461E0
6.137486500E0,-4.092563299E0,1.330201800E0,8.757947910E-1,4.391529085E0
6.147511500E0,-4.320243059E0,3.507294434E-1,2.483463346E0,4.995508124E0
6.157535500E0,-4.312918544E0,4.373195444E-1,3.563071024E0,5.611416032E0
6.167560500E0,-4.276109152E0,1.225335642E0,3.033671136E0,5.384210014E0
6.177585500E0,-4.466946484E0,1.151320270E0,2.800955461E0,5.396712031E0
6.187609500E0,-4.656931291E0,2.198097733E-1,3.808648235E0,6.020060362E0
6.197634500E0,-4.304369915E0,-8.912201113E-1,4.060629315E0,5.984194523E0
6.207659500E0,-3.826457392E0,-1.693347221E0,4.026178690E0,5.806833546E0
6.217683500E0,-3.816870297E0,-2.618062742E0,3.470604326E0,5.785140082E0
6.227708500E0,-3.669484502E0,-3.008505597E0,3.113327755E0,5.675300181E0
6.237733500E0,-3.592833937E0,-3.201031312E0,2.394006209E0,5.374599788E0
6.247757500E0,-3.807691922E0,-3.842054839E0,1.997840976E0,5.766391569E0
6.257782500E0,-3.753786149E0,-4.345647165E0,2.734504779E0,6.360273274E0
6.267806500E0,-3.522039650E0,-4.778551915E0,2.607488637E0,6.483696376E0
6.277831500E0,-3.484402877E0,-5.453564723E0,2.440507945E0,6.916538920E0
6.287856500E0,-3.177181689E0,-6.219102661E0,2.426233723E0,7.393127313E0
6.297880500E0,-2.732723717E0,-6.872955272E0,1.683766558E0,7.585536429E0
6.307905500E0,-2.892985373E0,-5.236416675E0,1.473967876E0,6.161331452E0
6.317930500E0,-2.393671748E0,-4.210085025E0,-9.785748088E-1,4.940859137E0
6.327954500E0,-2.127416883E0,-3.725267232E0,-2.332080102E0,4.882838943E0
6.337979500E0,-2.420353470E0,-3.868695046E0,-1.028584290E0,4.677915981E0
6.348004500E0,-3.149448637E0,-4.508824827E0,-7.461801463E-1,5.550253404E0
6.358028500E0,-3.305532165E0,-5.012056087E0,-1.208197891E0,6.124295164E0
6.368053500E0,-4.010245612E0,-6.694471353E0,-1.111406592E0,7.882464157E0
6.378077500E0,-4.546221280E0,-1.020536066E1,-2.005425400E-1,1.117397563E1
6.388102500E0,-3.573428198E0,-8.779285569E0,-6.262169158E-1,9.499336388E0
6.398127500E0,-1.944766384E0,-5.387961887E0,-7.654239178E-1,5.779110948E0
6.408151500E0,-2.107128945E-1,-1.030751122E0,5.089474976E-2,1.053298664E0
6.418176500E0,7.184985504E-1,1.260048807E0,6.940539730E-1,1.608003134E0
6.428201500E0,1.176282546E0,2.142808070E0,8.623608130E-1,2.592090512E0
6.438225500E0,1.595155513E0,2.357671903E0,7.787982541E-1,2.951214095E0
6.448250500E0,2.086280990E0,2.342605967E0,5.557585520E-1,3.185786976E0
6.458275500E0,1.688174774E0,2.084941831E0,-4.198183894E-2,2.683035405E0
6.468299500E0,6.962267252E-1,1.915907890E0,-9.862498641E-2,2.040872751E0
6.478324500E0,2.776642446E-1,1.859463694E0,-1.358366668E-2,1.880129564E0
6.488348500E0,-3.818569498E-1,1.628858864E0,4.172824520E-1,1.724273927E0
6.498373500E0,-1.290145449E0,1.095440258E0,7.850249541E-1,1.865671144E0
6.508398500E0,-7.029236144E-1,9.315460919E-1,4.717340630E-1,1.258734585E0
6.518422500E0,1.195767442E0,1.202370264E0,-1.849170256E-1,1.705798444E0
6.528447500E0,2.063400104E0,1.346716968E0,-9.092706853E-1,2.626411956E0
6.538472500E0,2.275144886E0,1.881130259E0,-9.191437089E-1,3.091886231E0
6.548496500E0,2.057592211E0,2.151991415E0,-9.142887658E-1,3.114590937E0
6.558521500E0,1.373673948E0,1.849586285E0,-1.150862433E0,2.575351215E0
6.568546500E0,7.281151736E-1,1.009259973E0,-7.582926536E-1,1.457314361E0
6.578570500E0,3.433286226E-1,4.769301912E-1,-6.864566857E-1,9.036369468E-1
6.588595500E0,-1.374510831E-1,-4.112288296E-2,-7.437716782E-2,1.616040062E-1
6.598620500E0,-4.692427106E-1,-5.576220596E-1,4.942049128E-1,8.805507246E-1
6.608644500E0,-3.652569969E-1,-7.523655503E-1,3.381912589E-1,9.021307681E-1
6.618669500E0,3.612936080E-2,-7.366499157E-1,7.169037223E-2,7.410114294E-1
6.628693500E0,1.769016623E-1,-7.001127116E-1,-2.632241070E-2,7.225959289E-1
6.638718500E0,-1.491800129E-2,-6.020187986E-1,-4.065802932E-2,6.035745654E-1
6.648743500E0,-2.032667577E-2,-3.702168976E-1,-1.843153471E-1,4.140602277E-1
6.658767500E0,1.216159460E-1,-2.467992783E-1,-3.513264441E-1,4.462405096E-1
6.668792500E0,3.261924800E-1,-6.851928100E-2,-3.994390887E-1,5.202384179E-1
6.678817500E0,3.815219043E-1,-1.933454946E-2,-3.365937996E-1,5.091445514E-1
6.688841500E0,4.803094433E-1,8.562209442E-2,-3.246140242E-1,5.860056050E-1
6.698866500E0,-1.029927103E-1,-2.797364978E-1,1.651698089E-1,3.407947658E-1
6.708891500E0,-5.800452545E-2,-4.046448648E-1,2.356211561E-1,4.718255194E-1
6.718915500E0,7.409482040E-1,-7.179723009E-2,-4.839114743E-1,8.878791574E-1
6.728940500E0,1.194236056E0,2.051545313E-1,-5.745263600E-1,1.341032690E0
6.738965500E0,9.636961301E-1,3.559605087E-1,-6.722929752E-1,1.227760546E0
6.748989500E0,4.266324422E-1,3.900098687E-1,-8.865811497E-1,1.058370953E0
6.759014500E0,1.890422362E-1,5.401967722E-1,-7.809184545E-1,9.681854948E-1
6.769038500E0,5.321229368E-2,6.035688955E-1,-6.236663604E-1,8.695324542E-1
6.779063500E0,-4.519532248E-2,5.604063575E-1,-3.438215429E-1,6.590228797E-1
6.789088500E0,-3.881220952E-2,4.628533119E-1,2.502900660E-2,4.651516173E-1
6.799112500E0,3.082684252E-1,4.686867866E-1,4.183472300E-1,6.997936344E-1
6.809137500E0,6.628212167E-1,5.112663572E-1,8.028525299E-1,1.159869578E0
6.819159000E0,5.929263783E-1,5.301506710E-1,9.100477803E-1,1.208639064E0
6.829183000E0,2.111409107E-1,4.267412004E-1,1.090008121E0,1.189456279E0
6.839208000E0,-7.640264332E-3,2.017442890E-1,1.291385643E0,1.307071540E0
6.849232000E0,-1.093904413E-1,1.321805491E-1,1.444051182E0,1.454208301E0
6.859257000E0,-2.296711756E-1,7.846641809E-2,1.264603057E0,1.287682694E0
6.869282000E0,-1.892015728E-1,-5.720608816E-2,8.806316078E-1,9.025418551E-1
6.879306000E0,-1.391779120E-1,-2.677540912E-1,5.511006600E-1,6.283109755E-1
6.889331000E0,-1.782949077E-1,-4.486815615E-1,7.928941369E-2,4.892760252E-1
6.899356000E0,-2.479282294E-1,-4.724387987E-1,-2.812662756E-1,6.031397378E-1
6.909380000E0,-3.317613682E-1,-4.711787237E-1,-4.717147672E-1,7.447078734E-1
6.919405000E0,-5.097563137E-1,-4.577647725E-1,-6.063281965E-1,9.148956051E-1
6.929430000E0,-7.729213639E-1,-5.090441228E-1,-8.709913033E-1,1.270889139E0
6.939454000E0,-1.082944977E0,-7.726203784E-1,-1.024470189E0,1.679062608E0
6.949479000E0,-1.245514675E0,-1.124517365E0,-1.150710406E0,2.034694215E0
6.959504000E0,-1.244648995E0,-1.477102714E0,-1.214705257E0,2.281773962E0
6.969528000E0,-1.202278609E0,-1.751747895E0,-1.204687808E0,2.442410132E0
6.979553000E0,-1.144286508E0,-1.983861014E0,-1.123362393E0,2.550889885E0
6.989577000E0,-1.087598191E0,-2.116103690E0,-8.763777584E-1,2.535508357E0
6.999602000E0,-1.022267982E0,-2.127918282E0,-6.036688828E-1,2.436695336E0
7.009627000E0,-9.302719836E-1,-2.025971931E0,-2.149319530E-1,2.239679435E0
7.019651000E0,-7.963555424E-1,-1.672758882E0,1.954186249E-1,1.862925889E0
7.029676000E0,-6.538988042E-1,-1.166413103E0,6.332826912E-1,1.479577690E0
7.039701000E0,-5.508490835E-1,-7.017056394E-1,1.040367014E0,1.370470372E0
7.049725000E0,-4.820103984E-1,-2.527638768E-1,9.876485181E-1,1.127684884E0
7.059750000E0,-2.861340827E-1,7.564908341E-2,1.050293832E0,1.091197797E0
7.069775000E0,-1.127995142E-1,2.768545514E-1,8.774887294E-1,9.270159886E-1
7.079799000E0,-2.894810289E-2,3.479021685E-1,6.584461838E-1,7.452686016E-1
7.089824000E0,-7.058758736E-3,3.778466369E-1,4.672404778E-1,6.009422362E-1
7.099848000E0,1.958972195E-1,4.183421136E-1,2.313760775E-1,5.166437205E-1
7.109873000E0,3.759321123E-1,5.064152147E-1,5.088831782E-2,6.327487208E-1
7.119898000E0,2.669812354E-1,5.575390291E-1,1.141815037E-1,6.286224343E-1
7.129922000E0,1.873123375E-1,5.676592438E-1,1.860975784E-1,6.260632856E-1
7.139947000E0,2.299622208E-1,6.753110155E-1,2.397872972E-1,7.526124757E-1
7.149972000E0,2.370753586E-3,6.514534986E-1,4.737870204E-1,8.055255564E-1
7.159996000E0,-1.521746644E-1,5.327564827E-1,5.373655504E-1,7.718473509E-1
7.170021000E0,-3.716139436E-2,4.831767717E-1,4.901317424E-1,6.892531370E-1
7.180046000E0,2.227642983E-2,4.254991056E-1,4.656687462E-1,6.311838951E-1
7.190070000E0,1.419268343E-1,4.293546134E-1,4.076602739E-1,6.088312650E-1
7.200095000E0,3.160817671E-1,4.834700096E-1,3.328159136E-1,6.666463575E-1
7.210119000E0,4.794126266E-1,6.334785730E-1,2.075334710E-1,8.210978690E-1
7.220144000E0,3.791091970E-1,7.557733807E-1,3.377644122E-1,9.104954609E-1
7.230169000E0,1.076106951E-1,7.326723473E-1,5.233725786E-1,9.068118251E-1
7.240193000E0,-1.415298083E-1,6.407745825E-1,6.398760116E-1,9.165500872E-1
7.250218000E0,-1.003785664E-1,5.475423369E-1,7.009531027E-1,8.951054237E-1
7.260243000E0,6.567095608E-2,4.621165627E-1,8.025408733E-1,9.284052161E-1
7.270267000E0,3.124439219E-1,4.099665619E-1,5.870160127E-1,7.812052133E-1
7.280292000E0,1.238261935E-1,3.144993643E-1,5.512702292E-1,6.466387260E-1
7.290317000E0,-2.266430488E-1,1.914091891E-1,5.919732821E-1,6.621456909E-1
7.300341000E0,-3.662169635E-1,1.062936097E-1,5.103046364E-1,6.370431836E-1
7.310366000E0,-5.396395326E-1,-6.893443331E-2,6.617013288E-1,8.566279412E-1
7.320391000E0,-7.401450889E-1,-2.445523395E-1,8.030361325E-1,1.119145937E0
7.330415000E0,-7.540569305E-1,-3.627241293E-1,8.352309018E-1,1.182278016E0
7.340440000E0,-4.381345001E-1,-3.920764209E-1,7.617851955E-1,9.622902078E-1
7.350464000E0,-1.744999185E-2,-1.294314806E-1,6.052417839E-1,6.191725344E-1
7.360489000E0,2.462322445E-1,1.839817634E-1,3.795258111E-1,4.883845296E-1
7.370514000E0,3.428868654E-1,6.396105480E-1,1.810830063E-1,7.479733356E-1
7.380538000E0,1.773384494E-1,9.159894285E-1,3.767010212E-2,9.337583174E-1
7.390563000E0,-1.156659655E-1,9.931529407E-1,1.835201257E-1,1.016568254E0
7.400588000E0,-1.450281975E-1,1.027613068E0,8.489923239E-2,1.041263499E0
7.410612000E0,1.304550357E-1,9.573479542E-1,8.766905844E-2,9.701646693E-1
7.420637000E0,6.477142042E-1,1.206713722E0,-3.221581936E-2,1.369937792E0
7.430662000E0,1.044040820E0,1.706411509E0,-4.383809602E-1,2.047935384E0
7.440686000E0,1.241581253E0,2.117058394E0,-5.509609115E-1,2.515356472E0
7.450711000E0,1.602721518E0,2.465614135E0,-8.098574942E-1,3.050219417E0
7.460735000E0,1.864217773E0,2.735182471E0,-1.155501614E0,3.505954226E0
7.470760000E0,2.089742103E0,3.422487296E0,-7.597626436E-1,4.081382195E0
7.480785000E0,2.237731184E0,3.911510698E0,-2.233817643E-1,4.511901618E0
7.490809000E0,2.016921610E0,3.787233392E0,-2.345464379E-1,4.297222542E0
7.500834000E0,1.036271771E0,2.634029734E0,-9.498743355E-2,2.832136019E0
7.510859000E0,5.762296540E-1,1.550776608E0,-1.904596013E-1,1.665299842E0
7.520883000E0,9.804286686E-1,1.233936457E0,-5.390302527E-1,1.665650974E0
7.530908000E0,9.865591818E-1,6.561765870E-1,-1.686038786E-1,1.196784860E0
7.540933000E0,2.741376427E-1,1.277170770E-1,2.770814234E-1,4.101673001E-1
7.550957000E0,-2.053422269E-1,-3.318224716E-1,3.464820260E-1,5.218442077E-1
7.560982000E0,-3.067788470E-1,-6.387695722E-1,4.357046896E-1,8.318523931E-1
7.571006000E0,-4.295227209E-1,-9.754847015E-1,8.683752590E-1,1.374822083E0
7.581031000E0,-4.366338122E-1,-1.411819575E0,7.086644107E-1,1.638929176E0
7.591056000E0,-1.466967005E-1,-1.381646919E0,5.193532026E-1,1.483305727E0
7.601080000E0,-2.097048345E-1,-1.347460295E0,7.717687315E-1,1.566924485E0
7.611105000E0,-5.280637997E-1,-1.573229185E0,7.285402662E-1,1.812366510E0
7.621130000E0,-4.223362005E-1,-1.664813393E0,4.024539131E-1,1.764069345E0
7.631154000E0,-1.102223539E-1,-1.554297363E0,2.441534132E-1,1.577212779E0
7.641179000E0,1.078559858E-1,-1.373954614E0,4.168561900E-1,1.439844880E0
7.651204000E0,-1.995800883E-2,-9.985234621E-1,4.937663716E-1,1.114115190E0
7.661228000E0,4.419939548E-2,-6.196681805E-1,4.345592201E-1,7.581450760E-1
7.671253000E0,3.190650165E-1,-1.810347667E-1,2.913889754E-1,4.684907753E-1
7.681277000E0,5.566211624E-1,2.711204794E-1,4.546619475E-2,6.208064172E-1
7.691302000E0,6.214355014E-1,4.306608814E-1,-4.203914165E-2,7.572437960E-1
7.701327000E0,5.341875887E-1,4.684900278E-1,1.482286710E-1,7.258174873E-1
7.711351000E0,4.522650276E-1,4.754467526E-1,3.894023430E-1,7.630383048E-1
7.721376000E0,5.733018069E-1,3.977290705E-1,4.598823416E-1,8.356764586E-1
7.731401000E0,7.354241931E-1,3.360204801E-1,5.367363900E-1,9.704867126E-1
7.741425000E0,8.723297310E-1,2.974421592E-1,6.940931493E-1,1.153774804E0
7.751450000E0,1.175678894E0,3.846424171E-1,7.273217064E-1,1.434979970E0
7.761475000E0,1.545027041E0,5.796714713E-1,2.900306672E-1,1.675483620E0
7.771499000E0,2.016493448E0,9.691660541E-1,1.315506577E-2,2.237342558E0
7.781524000E0,1.906644000E0,1.184359816E0,-2.319064200E-1,2.256497309E0
7.791549000E0,1.484472399E0,1.379170184E0,-6.352368307E-1,2.123509956E0
7.801573000E0,9.369967201E-1,1.306101331E0,-1.276441330E0,2.052599817E0
7.811598000E0,6.059509049E-1,1.033829535E0,-1.750617190E0,2.121471318E0
7.821625917E0,4.422040160E-1,7.746709970E-1,-2.034797133E0,2.221724312E0
7.831650917E0,3.490610866E-1,5.419243321E-1,-2.235331487E0,2.326420530E0
7.841675917E0,1.611704595E-1,3.210089234E-1,-2.228739336E0,2.257498987E0
7.851699917E0,-4.556567051E-1,-7.232011735E-2,-1.885825866E0,1.941440813E0
7.861724917E0,-1.315269473E0,-5.994086015E-1,-1.202295712E0,1.880090273E0
7.871749917E0,-2.077087267E0,-1.339685691E0,-4.322928393E-1,2.509168461E0
7.881773917E0,-2.847547245E0,-2.242003745E0,4.276296848E-1,3.649379845E0
7.891798917E0,-3.609877986E0,-3.150266955E0,1.397752343E0,4.990902982E0
7.901823917E0,-4.385069093E0,-3.944552729E0,2.354793026E0,6.350856429E0
7.911847917E0,-4.826546153E0,-4.550910746E0,2.974603148E0,7.270116937E0
7.921872917E0,-4.914064354E0,-5.196847397E0,2.998829332E0,7.755528912E0
7.931896917E0,-4.550930042E0,-5.952068508E0,2.578137369E0,7.923690811E0
7.941921917E0,-3.458043922E0,-5.827338628E0,1.424459501E0,6.924234840E0
7.951946917E0,-1.614408494E0,-4.005738871E0,4.132519662E-2,4.319023785E0
7.961970917E0,-6.543037239E-1,-2.145951826E0,-7.507427287E-1,2.365763565E0
7.971995917E0,-5.718772790E-1,-1.036571002E0,-9.981220508E-1,1.548473665E0
7.982020917E0,-7.434477425E-1,-4.358415145E-1,-1.481534173E0,1.713947455E0
7.992044917E0,-1.072329503E0,-1.930735990E-1,-2.140090869E0,2.401490559E0
8.002069917E0,-1.259149797E0,6.133816928E-2,-2.491545952E0,2.792314777E0
8.012094917E0,-1.163792235E0,2.160356149E-1,-2.618020642E0,2.873171738E0
8.022118917E0,-9.040872748E-1,2.531025767E-1,-2.633154405E0,2.795520853E0
8.032143917E0,-5.638032974E-1,2.567021227E-1,-2.577382493E0,2.650786799E0
8.042167917E0,-2.991431142E-1,2.341625682E-1,-2.174615754E0,2.207548955E0
8.052192917E0,-1.994858019E-1,2.578505158E-1,-1.439702607E0,1.476152117E0
8.062217917E0,-3.614348182E-1,2.793524820E-1,-6.949374872E-1,8.316315579E-1
8.072241917E0,-4.378552955E-1,3.351586005E-1,1.250304276E-1,5.654035330E-1
8.082266917E0,-3.254402357E-1,4.923612857E-1,8.324926507E-1,1.020477827E0
8.092291917E0,-3.348973761E-1,7.441055542E-1,1.674394056E0,1.862644567E0
8.102315917E0,-4.088028198E-1,1.066081315E0,2.589729474E0,2.830255794E0
8.112340917E0,-4.721288963E-1,1.464104208E0,3.316437807E0,3.655853738E0
8.122365917E0,-4.913267671E-1,2.002229604E0,3.812992131E0,4.334655046E0
8.132389917E0,-3.311240217E-1,2.583881966E0,3.653508739E0,4.487116584E0
8.142414917E0,2.159521459E-1,3.321329295E0,3.149206855E0,4.582070212E0
8.152439917E0,4.872701150E-1,4.004724087E0,3.040508870E0,5.051726572E0
8.162463917E0,9.594672775E-1,4.974866041E0,3.113354652E0,5.946666862E0
8.172488917E0,2.008042175E0,5.669814638E0,3.701510287E0,7.062592287E0
8.182512917E0,3.306519760E0,5.561364575E0,2.944005838E0,7.108376695E0
8.192537917E0,3.464744831E0,3.602770987E0,1.114320844E0,5.121145035E0
8.202562917E0,1.258856121E0,-4.253264666E-2,-3.254875982E-1,1.300949629E0
8.212586917E0,-2.622846057E-1,-2.539870558E0,-1.428508113E0,2.925811186E0
8.222611917E0,-8.869213115E-1,-4.535246933E0,-1.541932402E0,4.871616743E0
8.232636917E0,-1.346432793E0,-5.411329114E0,-1.688244356E0,5.826279521E0
8.242660917E0,-1.763821226E0,-5.718586264E0,-2.295703404E0,6.409644943E0
8.252685917E0,-2.023788873E0,-5.463242449E0,-3.000151972E0,6.553140569E0
8.262710917E0,-1.875009394E0,-4.348182225E0,-3.659255968E0,5.984354863E0
8.272734917E0,-1.442234306E0,-2.702371698E0,-3.746436199E0,4.839280605E0
8.282759917E0,-7.107618801E-1,-1.174430221E0,-3.105035818E0,3.394954525E0
8.292783917E0,1.701773643E-2,-7.584423423E-2,-2.832449149E0,2.833515508E0
8.302808917E0,4.126863578E-1,7.660928392E-1,-3.193096640E0,3.309542932E0
8.312833917E0,6.268851795E-1,9.339225465E-1,-3.154876315E0,3.349394111E0
8.322857917E0,9.640332951E-1,9.203035042E-1,-2.590251630E0,2.913026303E0
8.332882917E0,1.050006149E0,1.240697885E0,-2.869316429E0,3.297699338E0
8.342907917E0,9.364735405E-1,1.641393248E0,-3.475268649E0,3.955837038E0
8.352931917E0,6.359161310E-1,2.289890979E0,-3.876097037E0,4.546660121E0
8.362956917E0,2.422901431E-1,3.031517899E0,-4.298667710E0,5.265676535E0
8.372981917E0,1.432280956E-2,3.546808164E0,-4.653222402E0,5.850857375E0
8.383005917E0,-2.583409511E-2,3.704669245E0,-4.920440742E0,6.159219002E0
8.393030917E0,5.876360368E-2,3.667142985E0,-5.292282727E0,6.438916624E0
8.403054917E0,3.429276498E-1,3.459668570E0,-5.530460871E0,6.532450033E0
8.413079917E0,5.676061803E-1,3.355838393E0,-5.614967755E0,6.565949359E0
8.423104917E0,5.773941270E-1,3.259773610E0,-5.898690446E0,6.764174520E0
8.433128917E0,7.357240091E-1,2.865455805E0,-6.224111971E0,6.891421958E0
8.443153917E0,1.162493057E0,2.262000345E0,-6.389301660E0,6.876860575E0
8.453178917E0,1.624171005E0,1.843456357E0,-6.411059150E0,6.865707699E0
8.463202917E0,2.283712373E0,1.843202880E0,-5.233370275E0,6.000075291E0
8.473227917E0,3.121341071E0,2.057488715E0,-3.871443238E0,5.381830789E0
8.483252917E0,4.430930559E0,2.678980789E0,-9.709248966E-1,5.268090626E0
8.493276917E0,6.605182616E0,3.548077009E0,1.496984271E0,7.645799485E0
8.503301917E0,4.535286109E0,2.155945302E0,1.424325015E0,5.219733900E0
8.513326917E0,1.657995248E0,-8.239168319E-1,5.417515469E-1,1.929062447E0
8.523350917E0,5.310595476E-1,-2.779908993E0,1.504713120E0,3.205320550E0
8.533375917E0,1.924260199E-2,-3.971887878E0,2.965304906E0,4.956742557E0
8.543399917E0,-4.592886665E-1,-4.498863803E0,4.601621309E0,6.451793570E0
8.553424917E0,-1.473457706E0,-4.543288901E0,6.773162012E0,8.287839000E0
8.563449917E0,-2.523622608E0,-4.919565414E0,8.730412787E0,1.033396837E1
8.573473917E0,-3.718331849E0,-5.632776035E0,1.110085004E1,1.299165229E1
8.583498917E0,-5.088454052E0,-6.195287536E0,1.311725300E1,1.537323254E1
8.593523917E0,-6.639227445E0,-6.774594580E0,1.577949730E1,1.841105668E1
8.603547917E0,-7.935724724E0,-7.531879758E0,1.830168793E1,2.132268090E1
8.613572917E0,-8.660270757E0,-8.093460968E0,2.048437752E1,2.366673028E1
8.623597917E0,-9.415928071E0,-7.936759096E0,2.173828017E1,2.498408836E1
8.633621917E0,-1.015312865E1,-6.927917345E0,2.260417329E1,2.572995744E1
8.643646917E0,-1.066570727E1,-4.840404932E0,2.191769146E1,2.485099656E1
8.653670917E0,-1.053256149E1,-2.434900173E0,1.946927749E1,2.226917952E1
8.663695917E0,-1.008740828E1,-1.120209867E0,1.648741386E1,1.936092693E1
8.673720917E0,-9.120610936E0,-7.300856853E-1,1.317837161E1,1.604331784E1
8.683744917E0,-7.763102054E0,-2.859077954E-1,9.742698548E0,1.246064492E1
8.693769917E0,-6.107005690E0,3.179465903E-1,6.730917633E0,9.094056340E0
8.703794917E0,-3.956203599E0,7.655443704E-1,4.009948574E0,5.684830047E0
8.713818917E0,-1.737354535E0,1.027210048E0,1.453250021E0,2.487065920E0
8.723843917E0,6.753680259E-1,7.724461314E-1,-2.854598987E-1,1.065026925E0
8.733868917E0,4.276768134E0,-6.366080028E-1,-1.676202015E0,4.637420470E0
8.743892917E0,6.969589866E0,-1.631347732E0,-3.277945002E0,7.872826796E0
8.753917917E0,8.701597708E0,-2.265336474E0,-2.431559951E0,9.314614099E0
8.763942917E0,9.414869140E0,-2.367824716E0,-1.273669749E0,9.791250657E0
8.773966917E0,9.473699731E0,-1.862925977E0,-1.883879328E0,9.837198844E0
8.783991917E0,1.020055658E1,-1.724275337E0,-9.137572539E-1,1.038553958E1
8.794015917E0,1.319389713E1,-3.304220635E-1,1.446225176E0,1.327703535E1
8.804040917E0,1.230102146E1,2.182984143E0,1.071622721E0,1.253909582E1
8.814065917E0,7.125081364E0,1.163285574E0,-1.479691131E0,7.369498193E0
8.824086417E0,3.505221596E0,-3.131979203E-1,-2.721046243E0,4.448456365E0
8.834111417E0,2.073294324E0,-1.268980283E-1,-3.832993702E0,4.359643699E0
8.844136417E0,1.630826745E0,7.056342374E-1,-5.037327168E0,5.341552260E0
8.854160417E0,1.349194433E0,1.251843701E0,-5.867885560E0,6.149757655E0
8.864185417E0,1.176227362E0,1.484342591E0,-6.570932550E0,6.838416360E0
8.874210417E0,1.117686794E0,1.448182824E0,-7.122104546E0,7.353287049E0
8.884234417E0,1.113690514E0,1.573584842E0,-7.489065276E0,7.733212432E0
8.894259417E0,1.156904946E0,1.781379684E0,-7.934114401E0,8.213520193E0
8.904284417E0,1.227810183E0,2.079411973E0,-8.164146788E0,8.513798493E0
8.914308417E0,5.787822559E-1,2.215396867E0,-8.587475261E0,8.887502660E0
8.924333417E0,2.300234704E-1,2.215548310E0,-8.986857632E0,9.258789079E0
8.934357417E0,3.017775773E-1,2.259053641E0,-9.089234192E0,9.370622778E0
8.944382417E0,2.608983770E-2,2.182244616E0,-9.230025204E0,9.484526215E0
8.954407417E0,-2.900618036E-1,1.961173964E0,-9.489514695E0,9.694391590E0
8.964431417E0,-2.561757271E-1,2.163080367E0,-9.620584711E0,9.864086013E0
8.974456417E0,8.097194999E-2,2.479751241E0,-9.685845485E0,9.998566169E0
8.984481417E0,5.319682780E-1,2.682256399E0,-9.659534184E0,1.003912796E1
8.994505417E0,7.719033636E-1,2.776563509E0,-9.633143946E0,1.005497897E1
9.004530417E0,9.306921060E-1,2.993657762E0,-9.586609465E0,1.008619133E1
9.014555417E0,1.154909584E0,3.056438147E0,-9.756117908E0,1.028870579E1
9.024579417E0,1.653317329E0,2.939105579E0,-9.621898581E0,1.019572126E1
9.034604417E0,2.052197278E0,2.867411698E0,-9.321849879E0,9.966466208E0
9.044628417E0,1.089507015E0,3.154779251E0,-1.045811474E1,1.097778764E1
9.054653417E0,-2.435198381E0,4.272503467E0,-1.428901631E1,1.511160031E1
9.064678417E0,-2.642757872E0,4.818270589E0,-1.381341314E1,1.486641461E1
9.074702417E0,3.803929532E-1,4.034707147E0,-1.142912676E1,1.212635555E1
9.084727417E0,2.711093405E0,3.464307167E0,-9.424020617E0,1.040017385E1
9.094752417E0,3.730226548E0,2.996155108E0,-8.344238691E0,9.618620216E0
9.104776417E0,4.073923837E0,2.865552284E0,-8.213352277E0,9.605592171E0
9.114801417E0,4.415390999E0,2.818692405E0,-8.046916546E0,9.601748302E0
9.124826417E0,4.740397956E0,2.742861035E0,-7.843059804E0,9.565994278E0
9.134850417E0,5.060740004E0,2.680439084E0,-7.644249794E0,9.551460516E0
9.144875417E0,5.400331671E0,2.606052268E0,-7.423294625E0,9.542556978E0
9.154900417E0,5.735411627E0,2.713547189E0,-7.444419445E0,9.781496090E0
9.164924417E0,6.492086940E0,3.413067139E0,-8.353619379E0,1.111661715E1
9.174949417E0,6.290463835E0,2.618201321E0,-7.154334984E0,9.879748098E0
9.184973417E0,6.552199241E0,2.253145176E0,-5.196015923E0,8.660632745E0
9.194998417E0,6.967334595E0,2.221920313E0,-5.618566132E0,9.222199663E0
9.205023417E0,7.225393272E0,2.167520158E0,-5.386068558E0,9.268990564E0
9.215047417E0,7.456857643E0,2.126742114E0,-5.024255717E0,9.239637625E0
9.225072417E0,7.687429728E0,2.087963526E0,-4.037921653E0,8.930900223E0
9.235097417E0,7.975758855E0,2.035099288E0,-3.595841160E0,8.982451340E0
9.245121417E0,8.182261462E0,1.989496999E0,-4.098033369E0,9.364901411E0
9.255146417E0,8.300143084E0,2.088687412E0,-3.144648365E0,9.118322415E0
9.265171417E0,6.035995933E0,2.609645675E0,3.009464248E0,7.231899648E0
9.275195417E0,-3.099177259E1,-4.960883009E0,5.051682784E1,5.947310504E1
9.285220417E0,-7.587331594E1,3.284866351E-1,7.047173764E1,1.035525653E2
9.295244417E0,-7.105307250E1,4.248972225E0,4.977783802E1,8.685865549E1
9.305269417E0,-2.244663994E1,-2.869392443E1,2.225599966E1,4.269101152E1
9.315294417E0,-6.253970777E0,-3.856887530E1,9.925770192E0,4.031366029E1
9.325318417E0,-1.050279448E1,-2.298663966E1,1.145106434E1,2.774565136E1
9.335343417E0,-1.228225891E1,-1.273358327E1,9.546194680E0,2.010293162E1
9.345368417E0,-1.226423779E1,-5.749985812E0,7.994052454E0,1.572827836E1
9.355392417E0,-1.250957527E1,-2.283256436E0,8.309161245E0,1.519028946E1
9.365417417E0,-1.362865048E1,-2.537113304E0,1.014098047E1,1.717604561E1
9.375442417E0,-1.221659702E1,-3.007175063E0,1.271313088E1,1.788608513E1
9.385466417E0,-5.017474701E0,-2.942148470E0,1.193135113E1,1.327359897E1
9.395491417E0,-1.115702541E0,-4.145329158E0,6.052650558E0,7.420453137E0
9.405515417E0,1.349824471E0,-3.297955635E0,5.007561332E0,6.146072565E0
9.415540417E0,3.573054268E0,-2.687809500E0,3.542395855E0,5.704349665E0
9.425565417E0,5.129449466E0,-1.789850545E0,1.497781831E0,5.635438511E0
9.435589417E0,6.684077927E0,-9.920251590E-1,-2.092747718E-1,6.760533085E0
9.445614417E0,6.268232721E0,2.857300401E-1,-1.021601545E0,6.357362096E0
9.455639417E0,7.585191747E0,-1.654197773E-1,3.196152395E-1,7.593724478E0
9.465663417E0,7.669036726E0,1.186234872E0,-7.191508073E-1,7.793488010E0
9.475688417E0,5.344707109E0,2.914777654E0,-3.131109138E0,6.845850369E0
9.485713417E0,3.272123806E0,3.481493303E0,-4.705000666E0,6.705566426E0
9.495737417E0,1.654008762E0,3.949876911E0,-6.439398850E0,7.733248357E0
9.505762417E0,8.830428533E-1,4.187579091E0,-7.395561281E0,8.544583664E0
9.515786417E0,8.581439473E-2,4.451335003E0,-8.218687862E0,9.347116004E0
9.525811417E0,-6.178814176E-1,4.828916907E0,-8.479370184E0,9.777521908E0
9.535836417E0,-1.160540306E0,5.028745794E0,-8.944655353E0,1.032676123E1
9.545860417E0,-1.636744858E0,5.155171952E0,-8.916273553E0,1.042855051E1
9.555885417E0,-2.048309025E0,5.418859159E0,-8.929912183E0,1.064438519E1
9.565910417E0,-2.190246092E0,5.606236108E0,-8.787490967E0,1.065115293E1
9.575934417E0,-2.235751317E0,5.877162167E0,-8.738092520E0,1.076540199E1
9.585959417E0,-2.277548823E0,6.174587224E0,-8.659177912E0,1.087630995E1
9.595984417E0,-2.353800169E0,6.288745923E0,-8.590897052E0,1.090377057E1
9.606008417E0,-2.365789885E0,6.402677166E0,-8.609178371E0,1.098677336E1
9.616033417E0,-2.414494414E0,6.540903590E0,-8.528920659E0,1.101615589E1
9.626058417E0,-2.466307907E0,6.795736942E0,-8.533964467E0,1.118451004E1
9.636082417E0,-2.598778625E0,6.884314658E0,-8.498128052E0,1.124124633E1
9.646107417E0,-2.675989938E0,6.940676554E0,-8.485537242E0,1.128442535E1
9.656131417E0,-2.626802575E0,7.140990468E0,-8.607486187E0,1.148837043E1
9.666156417E0,-2.610959544E0,7.248609057E0,-8.653899046E0,1.158660484E1
9.676181417E0,-2.531168732E0,7.346836433E0,-8.637311665E0,1.161834642E1
9.686205417E0,-2.425982292E0,7.387924232E0,-8.546848222E0,1.155488767E1
9.696230417E0,-2.253052936E0,7.444316534E0,-8.434531395E0,1.147324784E1
9.706255417E0,-2.000369312E0,7.514325832E0,-8.254865754E0,1.134060751E1
9.716279417E0,-1.420878812E0,7.716188089E0,-8.101136023E0,1.127771520E1
9.726304417E0,-2.603971062E-1,8.113805185E0,-7.961001652E0,1.137010064E1
9.736329417E0,2.892017147E-1,8.233559085E0,-7.733992860E0,1.129999019E1
9.746353417E0,6.453628926E-1,8.262633196E0,-7.456645973E0,1.114850527E1
9.756378417E0,1.091829017E0,8.391076058E0,-7.168984598E0,1.109038269E1
9.766402417E0,1.501551677E0,8.428576591E0,-6.880684707E0,1.098359608E1
9.776427417E0,1.703134144E0,8.310204973E0,-6.493660426E0,1.068306128E1
9.786452417E0,1.964630692E0,8.169831451E0,-5.955254071E0,1.029907621E1
9.796476417E0,2.265307238E0,8.055456405E0,-4.963030692E0,9.729011688E0
9.806501417E0,2.884240277E0,8.106261107E0,-4.355481597E0,9.643678295E0
9.816526417E0,3.558756656E0,8.180010284E0,-3.699296531E0,9.657231074E0
9.826550167E0,3.976625876E0,8.077306280E0,-3.003423489E0,9.490889461E0
9.836575167E0,4.061583289E0,7.836289898E0,-2.290587675E0,9.118700021E0
9.846600167E0,3.815906383E0,7.193333573E0,-7.814695546E-1,8.180212961E0
9.856624167E0,3.186962911E0,6.695171265E0,5.994321366E-1,7.439178029E0
9.866649167E0,2.204486840E0,4.704796014E0,3.046947239E0,6.023184808E0
9.876673167E0,-8.163648021E0,-9.385853502E0,2.030964166E1,2.381640064E1
9.886698167E0,-3.310240460E1,-1.833868326E1,5.154687335E1,6.394651395E1
9.896723167E0,-2.360662462E1,1.394829437E1,3.146239393E1,4.173379773E1
9.906747167E0,-4.632801353E1,-1.889766421E1,3.121388258E1,5.897213762E1
9.916772167E0,-6.390988933E1,-6.861694938E1,4.549999166E1,1.042257595E2
9.926797167E0,-5.946376945E1,-6.043203562E1,1.774753444E1,8.661954621E1
9.936821167E0,-2.641991185E1,-1.651915839E1,-9.985010673E0,3.271994460E1
9.946846167E0,-1.189344480E1,2.632418826E0,-1.352138682E1,1.819921865E1
9.956871167E0,-1.124929564E1,5.897259632E0,-7.181656099E0,1.459111058E1
9.966895167E0,-1.098943836E1,3.691443720E0,8.720392413E0,1.450654184E1
9.976920167E0,-7.848434565E0,1.451333596E0,2.259181227E1,2.396026452E1
9.986944167E0,-1.476745303E0,-1.557763008E0,9.821748226E0,1.005356357E1
9.996969167E0,1.149618731E0,-2.893060217E0,2.714517242E-1,3.124917069E0
1.000699417E1,3.348420907E0,-4.725944808E-1,1.336186425E0,3.636022865E0
1.001701817E1,4.589074938E0,-1.382150510E0,2.841746807E-4,4.792697456E0
1.002704317E1,5.984795374E0,-5.685186383E-1,-5.087071770E-1,6.033222365E0
1.003706817E1,6.718734375E0,1.464195132E0,-4.033590621E-1,6.888247783E0
1.004709217E1,7.209325123E0,2.585028897E0,-6.148013967E-1,7.683405748E0
1.005711717E1,7.627247261E0,3.626859762E0,-1.631837436E0,8.601854796E0
1.006714217E1,1.053577512E1,4.473488933E0,-2.283443547E0,1.167170832E1
1.007716617E1,1.217048354E1,4.179733882E0,-2.087972297E0,1.303650540E1
1.008719117E1,9.451030076E0,3.282398241E0,-3.139056673E0,1.048569428E1
1.009721617E1,5.823629154E0,3.117922204E0,-5.078940048E0,8.332570276E0
1.010724017E1,4.281188629E0,3.416850580E0,-6.687374003E0,8.644328488E0
1.011726517E1,3.945889695E0,3.597454699E0,-7.371526301E0,9.102259379E0
1.012728917E1,3.500021083E0,3.802901883E0,-8.045233133E0,9.562321187E0
1.013731417E1,3.206452265E0,3.928191050E0,-8.633139092E0,1.001214820E1
1.014733917E1,3.225300180E0,3.830266853E0,-9.101442593E0,1.038796239E1
1.015736317E1,3.421742945E0,3.895171531E0,-9.156694103E0,1.052262956E1
1.016738817E1,3.530949930E0,4.010145040E0,-9.129622080E0,1.057822622E1
1.017741317E1,3.562044253E0,3.901785901E0,-9.069142574E0,1.049578199E1
1.018743717E1,3.661271211E0,3.809375044E0,-9.053017707E0,1.048205012E1
1.019746217E1,3.884949429E0,3.946242282E0,-8.790732079E0,1.038954430E1
1.020748717E1,3.955483806E0,3.718107316E0,-8.962970002E0,1.047878836E1
1.021751117E1,3.116588162E0,3.221150996E0,-1.029587088E1,1.122915369E1
1.022753617E1,3.026001051E0,3.014447245E0,-1.012452992E1,1.098861595E1
1.023756017E1,3.221252153E0,2.731647537E0,-9.690187628E0,1.057062439E1
1.024758517E1,3.638616466E0,2.454229022E0,-9.277905130E0,1.026363939E1
1.025761017E1,4.177878853E0,2.987493920E0,-8.948754836E0,1.031794576E1
1.026763417E1,4.724713969E0,3.544448812E0,-8.710790700E0,1.052444365E1
1.027765917E1,5.099353847E0,3.776687646E0,-8.505753406E0,1.061200359E1
1.028768417E1,5.326237509E0,3.762962477E0,-8.311793661E0,1.056478142E1
1.029770817E1,5.590486048E0,3.604548541E0,-7.934255319E0,1.035368108E1
1.030773317E1,5.861964669E0,3.326507005E0,-7.743074756E0,1.026564588E1
1.031775817E1,5.975027601E0,3.193148680E0,-7.685854488E0,1.024546302E1
1.032778217E1,6.044137012E0,3.066267609E0,-7.618007491E0,1.019645171E1
1.033780717E1,6.033465843E0,2.993891651E0,-7.641798642E0,1.018642154E1
1.034783217E1,6.006752254E0,2.916856339E0,-7.719049716E0,1.020651028E1
1.035785617E1,6.083313357E0,3.018480654E0,-7.464831491E0,1.009166171E1
1.036788117E1,5.983787314E0,2.987698280E0,-7.144413428E0,9.786454663E0
1.037790517E1,6.073734448E0,3.008534541E0,-6.968077776E0,9.720886694E0
1.038793017E1,6.147383637E0,3.100417103E0,-6.952218373E0,9.784490386E0
1.039795517E1,6.126818395E0,2.997697019E0,-6.994116012E0,9.769429352E0
1.040797917E1,6.128654421E0,2.773339646E0,-6.839942477E0,9.593572374E0
1.041800417E1,5.871054751E0,2.413831486E0,-7.163160771E0,9.571140923E0
1.042802917E1,5.980585379E0,2.716527807E0,-6.698473188E0,9.381709218E0
1.043805317E1,4.659550844E0,6.367237777E0,-2.799657964E0,8.372049670E0
1.044807817E1,-6.033506774E0,1.633380809E0,3.551323033E1,3.605912735E1
1.045810317E1,-3.734090154E1,3.000969413E0,6.646036527E1,7.629108006E1
1.046812717E1,-4.663625535E1,-8.678992372E0,6.688989238E1,8.200318850E1
1.047815217E1,-2.952852324E1,-1.820167598E1,5.358030107E1,6.382854656E1
1.048817617E1,-1.251551019E1,-2.475306012E1,4.255147469E1,5.079350332E1
1.049820117E1,-1.058462159E1,-2.700212847E1,1.125800916E1,3.111096152E1
1.050822617E1,-4.009684280E0,-1.395142848E1,9.479855679E0,1.733746199E1
1.051825017E1,9.423869759E-2,-6.044224135E0,3.741025186E0,7.108923672E0
1.052827517E1,-9.388178355E-1,-4.610233088E0,1.801701974E0,5.038031169E0
1.053830017E1,-2.839075214E0,-3.513473772E0,4.128739437E0,6.119749616E0
1.054832417E1,-2.151409909E0,-3.092320463E0,3.341670882E0,5.035650377E0
1.055834917E1,-8.990474135E-1,-3.690143300E0,1.844020028E0,4.222067466E0
1.056837417E1,7.157176146E-1,-3.542495842E0,1.445681385E0,3.892495750E0
1.057839817E1,1.324624726E0,-1.205458617E0,2.186836435E0,2.826661411E0
1.058842317E1,-2.499570671E-1,-1.006808528E0,-7.991834021E-1,1.309517490E0
1.059844717E1,-7.542528123E-2,-9.866511293E-1,-1.464193085E0,1.767209896E0
1.060847217E1,2.021920395E0,-8.051528245E-2,-8.334726441E-1,2.188451837E0
1.061849717E1,3.683516065E0,9.289334098E-1,-2.637509412E-1,3.807987978E0
1.062852117E1,3.789590112E0,1.339519338E0,-2.413398499E0,4.688261681E0
1.063854617E1,3.925678209E0,1.230011806E0,-5.307307148E0,6.715012108E0
1.064857117E1,3.992737294E0,1.463489227E0,-6.572813015E0,7.828513444E0
1.065859517E1,3.939246966E0,1.645456771E0,-7.169595047E0,8.344356643E0
1.066862017E1,3.957403447E0,1.524789828E0,-7.608336781E0,8.710500252E0
1.067864517E1,4.053880459E0,1.705820794E0,-7.661088021E0,8.833801052E0
1.068866917E1,5.714382116E0,2.967035682E0,-8.337745943E0,1.053448960E1
1.069869417E1,9.504279499E0,5.277905009E0,-9.080980262E0,1.416516193E1
1.070871917E1,9.918348906E0,6.420491293E0,-8.890962126E0,1.478666835E1
1.071874317E1,8.967247825E0,6.598229692E0,-8.506519391E0,1.401103282E1
1.072876817E1,6.433969710E0,5.378017527E0,-8.899938771E0,1.222816212E1
1.073879217E1,3.987356394E0,4.113196954E0,-9.150943952E0,1.079616485E1
1.074881717E1,2.676614128E0,3.376516778E0,-9.446804293E0,1.038302654E1
1.075884217E1,2.246353196E0,2.933903604E0,-9.429891806E0,1.012801819E1
1.076886617E1,1.875600109E0,2.773255739E0,-9.542305112E0,1.011258671E1
1.077889117E1,1.649196504E0,2.765514610E0,-9.692484414E0,1.021333316E1
1.078891617E1,1.466598045E0,2.751514037E0,-9.737557676E0,1.022456693E1
1.079894017E1,1.329003559E0,2.707245644E0,-9.682089234E0,1.014092113E1
1.080896517E1,1.235323563E0,2.667971651E0,-9.696549398E0,1.013248081E1
1.081899017E1,1.047897059E0,2.895156152E0,-1.025789672E1,1.071001692E1
1.082901442E1,9.128886500E-1,2.909380381E0,-1.036842079E1,1.080749784E1
1.083903942E1,8.634185012E-1,2.727243414E0,-1.028899806E1,1.067927101E1
1.084906442E1,8.471810026E-1,2.696678556E0,-1.029102120E1,1.067215574E1
1.085908842E1,7.192964760E-1,2.789363941E0,-1.040514832E1,1.079652954E1
1.086911342E1,6.277597768E-1,2.814176893E0,-1.050254890E1,1.089115271E1
1.087913742E1,-8.447252452E-1,3.101859026E0,-1.117135460E1,1.162472596E1
1.088916242E1,-3.351243066E0,3.691291400E0,-1.209981877E1,1.308671374E1
1.089918742E1,-2.375113563E0,3.304274429E0,-1.224266040E1,1.290124519E1
1.090921142E1,-5.372187853E-2,2.591888850E0,-1.131570715E1,1.160887600E1
1.091923642E1,1.255209651E0,2.291917186E0,-1.048357819E1,1.080434391E1
1.092926142E1,1.266486299E0,2.181225154E0,-1.058763758E1,1.088392394E1
1.093928542E1,1.350645858E0,2.015687409E0,-1.036166609E1,1.064196241E1
1.094931042E1,1.490833438E0,1.874481683E0,-1.057813352E1,1.084588284E1
1.095933542E1,1.295109150E0,1.500535723E0,-1.047090026E1,1.065686011E1
1.096935942E1,-4.656020880E-1,1.174957055E0,-9.190938322E0,9.277427263E0
1.097938442E1,-1.812755405E0,1.065963420E0,-7.675987312E0,7.958840454E0
1.098940842E1,-2.490096427E0,2.015793390E0,-7.073484364E0,7.765190548E0
1.099943342E1,-4.332283353E0,2.619675404E0,-4.246738003E0,6.608037677E0
1.100945842E1,-7.681928667E0,2.549338662E0,8.888105176E0,1.202121330E1
1.101948242E1,-1.514136727E1,5.426633617E0,4.782379210E1,5.045616361E1
1.102950742E1,3.490626069E0,1.100415931E1,6.903573164E1,6.999434432E1
1.103953242E1,2.013226287E1,5.926261237E0,6.610403127E1,6.935540016E1
1.104955642E1,-1.218244869E0,-8.318546610E0,5.443419569E1,5.507961510E1
1.105958142E1,-6.603620825E0,-8.740094606E0,2.639537226E1,2.857818641E1
1.106960642E1,-4.937088935E0,-9.203702794E0,1.484486432E1,1.815083990E1
1.107963042E1,-5.804618102E0,-1.634065810E1,1.253228117E1,2.139553154E1
1.108965542E1,-1.486332515E1,-2.152687994E1,1.027597865E1,2.810552849E1
1.109967942E1,-8.573108068E0,-8.587166528E0,7.044539477E0,1.403079283E1
1.110970442E1,-6.091512322E0,-3.372582626E-1,5.919360353E0,8.500534836E0
1.111972942E1,-6.201727660E0,1.411611852E0,6.883324724E0,9.371991957E0
1.112975342E1,-1.273321255E0,7.883859336E-2,7.491577240E0,7.599427089E0
1.113977842E1,1.267983040E0,-3.265957917E0,6.652206509E0,7.518385036E0
1.114980342E1,3.290117735E0,-4.246543876E0,5.419895870E0,7.631073374E0
1.115982742E1,5.431139481E0,-4.215501008E0,3.933232520E0,7.920734995E0
1.116985242E1,5.919679027E0,-3.981805340E0,1.832823195E0,7.365908933E0
1.117987742E1,7.057106313E0,-3.680629587E0,-9.286512816E-1,8.013250082E0
1.118990142E1,8.326707569E0,-3.155421568E0,-2.412048962E0,9.225438982E0
1.119992642E1,7.607024081E0,-1.779113011E0,-3.844250177E0,8.706912075E0
1.120995042E1,6.361516861E0,-1.329364479E-2,-5.307298962E0,8.284714585E0
1.121997542E1,6.023519729E0,7.132635382E-1,-6.991578906E0,9.256009421E0
1.123000042E1,5.858898389E0,1.121301688E0,-8.385615928E0,1.029089706E1
1.124002442E1,5.137506344E0,1.253130966E0,-8.332514439E0,9.868895862E0
1.125004942E1,4.121677463E0,1.432436273E0,-9.013788738E0,1.001441392E1
1.126007442E1,3.880302646E0,1.486040037E0,-8.989874795E0,9.903681762E0
1.127009842E1,4.893623365E0,7.465779032E-1,-8.139188533E0,9.526348628E0
1.128012342E1,5.302403673E0,5.410424258E-1,-7.890335712E0,9.521849047E0
1.129014842E1,4.295958111E0,8.380340570E-1,-8.207175863E0,9.301359730E0
1.130017242E1,3.729544762E0,1.460602310E0,-8.520556802E0,9.415027958E0
1.131019742E1,3.131529552E0,2.342374417E0,-8.806851098E0,9.636068779E0
1.132022142E1,2.785724342E0,2.856726789E0,-8.958268256E0,9.806718013E0
1.133024642E1,2.528335756E0,3.126816989E0,-8.977857013E0,9.837244671E0
1.134027142E1,2.378313744E0,3.258486345E0,-9.086350345E0,9.941623213E0
1.135029542E1,2.246659298E0,3.416703230E0,-1.132514689E1,1.204077618E1
1.136032042E1,2.170191312E0,3.454655460E0,-9.914350580E0,1.072094782E1
1.137034542E1,2.081517848E0,3.603243442E0,-9.645459936E0,1.050480734E1
1.138036942E1,2.069816839E0,3.708824569E0,-9.443945004E0,1.035507695E1
1.139039442E1,2.074909910E0,3.777151038E0,-8.981627882E0,9.962015886E0
1.140041942E1,2.047624316E0,3.872896563E0,-8.919594771E0,9.937367056E0
1.141044342E1,2.008874964E0,3.953296655E0,-8.767111081E0,9.824783447E0
1.142046842E1,1.959767562E0,4.064147000E0,-8.716063135E0,9.814669445E0
1.143049342E1,1.892613752E0,4.158378389E0,-8.709653417E0,9.835250901E0
1.144051742E1,1.819883599E0,4.242926496E0,-8.678536874E0,9.830127356E0
1.145054242E1,1.771318526E0,4.339235400E0,-8.644192083E0,9.833035643E0
1.146056642E1,1.754178583E0,4.532346129E0,-8.698558910E0,9.964147281E0
1.147059142E1,1.334030557E0,5.261848555E0,-1.004696660E1,1.141964210E1
1.148061642E1,8.383813816E-1,6.041297604E0,-1.180691770E1,1.328922367E1
1.149064042E1,1.512038805E0,5.941109072E0,-1.077257449E1,1.239481341E1
1.150066542E1,2.557717430E0,5.431949905E0,-8.787483366E0,1.064273753E1
1.151069042E1,3.263918116E0,5.138910846E0,-8.000828792E0,1.005359774E1
1.152071442E1,3.697683284E0,5.244527932E0,-7.243728386E0,9.677269028E0
1.153073942E1,4.112396177E0,5.397755973E0,-6.793734271E0,9.602207934E0
1.154076442E1,4.492533900E0,5.542261137E0,-6.392988914E0,9.579656915E0
1.155078842E1,4.867483095E0,5.652467703E0,-5.654425936E0,9.360305309E0
1.156081342E1,5.197039770E0,5.771493040E0,-4.983142775E0,9.227733536E0
1.157083742E1,5.474410046E0,5.907824382E0,-4.455671006E0,9.204594417E0
1.158086242E1,5.706412361E0,6.045359080E0,-3.963286916E0,9.209622772E0
1.159088742E1,5.889043710E0,6.164990188E0,-3.420610339E0,9.186322166E0
1.160091142E1,6.067770288E0,6.257540503E0,-2.676958529E0,9.118155316E0
1.161093642E1,6.166436205E0,6.357471172E0,-2.187355667E0,9.122877835E0
1.162096142E1,6.200738896E0,6.443704154E0,-1.740670053E0,9.110456537E0
1.163098542E1,6.423984420E0,6.063412943E0,1.016313762E0,8.891875280E0
1.164101042E1,-3.538865891E0,-3.475392026E0,1.336314830E1,1.425396976E1
1.165103542E1,-6.465035265E1,-6.592496614E1,5.830096174E0,9.251896713E1
1.166105942E1,-7.268457664E1,-7.241690515E1,1.903495216E1,1.043531755E2
1.167108442E1,-3.858957912E1,-2.025698866E1,2.315200594E1,4.935095323E1
1.168110842E1,-9.650621858E0,5.505104420E0,3.797060223E1,3.956270100E1
1.169113342E1,-2.836788368E-1,1.071275630E1,3.893964490E1,4.038736890E1
1.170115842E1,-3.325803877E0,1.235110754E1,8.812027053E0,1.553263177E1
1.171118242E1,-8.458342427E0,5.724062766E0,-3.307489228E0,1.073535915E1
1.172120742E1,-5.050672853E-1,7.194934541E0,3.504274932E0,8.018860194E0
1.173123242E1,6.683706629E-1,3.122407896E0,1.283914071E0,3.441596396E0
1.174125642E1,2.854514787E0,3.781685261E-1,2.134084024E0,3.584073203E0
1.175128142E1,4.082303190E0,-1.723273855E-1,2.621918396E0,4.854827714E0
1.176130542E1,4.157166261E0,-6.376618172E-1,1.522613786E0,4.472918137E0
1.177133042E1,5.611679281E0,-7.437183224E-1,1.930647113E0,5.980924642E0
1.178135542E1,6.794160533E0,-1.134544901E0,1.974191328E0,7.165559356E0
1.179137942E1,6.652842101E0,-1.264546047E0,7.415626001E-1,6.812437143E0
1.180140442E1,8.140188407E0,-6.071440293E-1,1.980878788E-1,8.165202384E0
1.181142942E1,8.146861249E0,3.626731123E-1,-9.987710917E-1,8.215864148E0
1.182145342E1,7.697098099E0,-1.073560050E0,-1.606910756E0,7.935994739E0
1.183147875E1,6.613593251E0,-4.933405774E0,-9.123439819E-1,8.301233629E0
1.184150375E1,6.909467626E0,-4.196957733E0,-2.847132093E0,8.570960170E0
1.185152775E1,7.434062272E0,-1.972378398E0,-4.557904601E0,8.940360886E0
1.186155275E1,6.497773358E0,-1.000060841E0,-5.525102482E0,8.587661948E0
1.187157675E1,6.412331504E0,-2.999886216E-1,-6.152765999E0,8.891823094E0
1.188160175E1,6.396058118E0,3.621252282E-1,-6.342170178E0,9.014644569E0
1.189162675E1,6.461385550E0,9.422024962E-1,-6.493249367E0,9.208666359E0
1.190165075E1,6.544535880E0,7.930667759E-1,-7.071353053E0,9.667674943E0
1.191167575E1,6.437490318E0,7.644249210E-1,-7.095779797E0,9.611228745E0
1.192170075E1,6.257998924E0,1.127903341E0,-7.411121891E0,9.765216033E0
1.193172475E1,6.131946988E0,1.259778081E0,-7.507845363E0,9.775252256E0
1.194174975E1,6.053603654E0,1.240696131E0,-7.530826675E0,9.741601228E0
1.195177475E1,6.026778383E0,1.275076005E0,-7.578325362E0,9.766211741E0
1.196179875E1,5.983549917E0,1.282155960E0,-7.595259483E0,9.753704944E0
1.197182375E1,5.994276634E0,1.301898060E0,-7.668992288E0,9.820373396E0
1.198184775E1,6.531985416E0,2.023110157E0,-7.899640971E0,1.044816422E1
1.199187275E1,6.474222527E0,2.410428699E0,-7.934550018E0,1.052058971E1
1.200189775E1,6.291781797E0,2.199229316E0,-8.020285403E0,1.042823598E1
1.201192175E1,6.082432766E0,2.074266716E0,-8.120950482E0,1.035608070E1
1.202194675E1,5.891823476E0,2.031454426E0,-8.249258274E0,1.033879360E1
1.203197175E1,5.690316730E0,1.974831890E0,-8.392770581E0,1.033045321E1
1.204199575E1,5.448929635E0,1.847058534E0,-8.564289882E0,1.031743769E1
1.205202075E1,5.141291247E0,1.589562067E0,-8.710051612E0,1.023838768E1
1.206204575E1,4.839867865E0,1.313448504E0,-8.889049501E0,1.020610939E1
1.207206975E1,4.623695717E0,9.982520051E-1,-9.043037095E0,1.020546859E1
1.208209475E1,4.029667724E0,7.978323298E-1,-9.808945162E0,1.063438591E1
1.209211875E1,2.911420182E0,8.035414050E-1,-1.364308843E1,1.397340002E1
1.210214375E1,2.182170649E0,7.022082075E-1,-1.599397084E1,1.615741527E1
1.211216875E1,2.610961883E0,7.563980095E-1,-1.418375707E1,1.444189131E1
1.212219275E1,3.636801490E0,9.005659354E-1,-1.203230915E1,1.260213504E1
1.213221775E1,4.976754692E0,8.054469395E-1,-9.622483887E0,1.086319604E1
1.214224275E1,5.571202515E0,4.401195933E-1,-7.975522628E0,9.738632548E0
1.215226675E1,6.003545641E0,2.933290084E-1,-7.236780140E0,9.407422015E0
1.216229175E1,6.259382375E0,4.663847378E-1,-7.240298409E0,9.582238961E0
1.217231675E1,6.551259009E0,4.787731605E-1,-6.878856282E0,9.511407997E0
1.218234075E1,6.776032995E0,6.074925233E-1,-6.650517249E0,9.513834663E0
1.219236575E1,7.061977628E0,5.257418704E-1,-6.316198601E0,9.489061982E0
1.220238975E1,7.022575580E0,7.387326939E-1,-5.086040322E0,8.702304288E0
1.221241475E1,6.926273108E0,7.238383739E-1,-5.525737490E0,8.889936781E0
1.222243975E1,2.606947770E0,1.505426773E0,1.056255770E1,1.098317403E1
1.223246375E1,-5.198694883E1,-1.100980860E0,6.562496655E1,8.372867635E1
1.224248875E1,-6.839395997E1,-2.059280828E1,6.895738363E1,9.928201383E1
1.225251375E1,5.436224220E0,1.457854119E0,4.656904511E1,4.690792934E1
1.226253775E1,1.843420572E1,5.315499097E0,1.375841423E1,2.360865166E1
1.227256275E1,4.313904093E0,-4.831958336E0,1.023809571E1,1.211512252E1
1.228258675E1,-9.202529258E-1,-6.718389389E0,7.344325638E0,9.996136279E0
1.229261175E1,-1.780499269E1,-1.268282944E1,4.869272343E0,2.239602063E1
1.230263675E1,-1.660245081E1,-1.066036642E1,4.693067669E0,2.028077092E1
1.231266075E1,-1.682558523E0,-6.333782932E-1,5.368547376E0,5.661578594E0
1.232268575E1,-5.436752808E-1,6.069496094E-1,5.766548050E0,5.823834394E0
1.233271075E1,-9.827049896E-1,-1.089916978E0,5.665352043E0,5.852336447E0
1.234273475E1,8.774381509E-1,-2.730273149E0,5.360182350E0,6.079131846E0
1.235275975E1,3.128379950E0,-3.104493781E0,3.695339136E0,5.751536671E0
1.236278375E1,3.739183897E0,-2.952131421E0,1.668668463E0,5.047873868E0
1.237280875E1,5.444591585E0,-1.783044094E0,8.507891732E-1,5.791948376E0
1.238283375E1,6.306346042E0,-2.923248222E-1,-7.886970055E-1,6.362192796E0
1.239285775E1,6.586255764E0,2.808606981E-1,-2.379844837E0,7.008659584E0
1.240288275E1,6.821074097E0,7.911108823E-1,-3.942219105E0,7.917954265E0
1.241290775E1,6.254942000E0,2.600438064E-1,-5.844752805E0,8.564639955E0
1.242293175E1,6.141127117E0,1.270383614E0,-6.778720375E0,9.234628672E0
1.243295675E1,5.324437736E0,1.766803160E0,-7.823530104E0,9.626985712E0
1.244298175E1,4.053899463E0,-4.653717077E-1,-8.301826497E0,9.250459171E0
1.245300575E1,4.998129188E0,-1.544901765E0,-7.954300743E0,9.520447319E0
1.246303075E1,6.370115191E0,-1.780839547E0,-7.329455000E0,9.872723415E0
1.247305475E1,6.368551061E0,-1.652862269E0,-7.495160998E0,9.973356240E0
1.248307975E1,5.192706399E0,-4.931097293E-1,-7.950738620E0,9.509027371E0
1.249310475E1,3.975447955E0,1.154713556E0,-8.368260223E0,9.336237411E0
1.250312875E1,3.421333640E0,2.048731633E0,-8.616145329E0,9.494250129E0
1.251315375E1,3.063624668E0,2.832817816E0,-8.743639773E0,9.688234585E0
1.252317875E1,2.857322328E0,3.253422072E0,-8.724276718E0,9.739715105E0
1.253320275E1,2.742670708E0,3.458935622E0,-8.634185159E0,9.697197100E0
1.254322775E1,3.119630468E0,3.823550448E0,-8.446247461E0,9.782163793E0
1.255325175E1,2.913754683E0,3.532117911E0,-8.042068035E0,9.254225066E0
1.256327675E1,2.363009826E0,4.096547299E0,-8.149776671E0,9.422546100E0
1.257330175E1,1.988323025E0,4.931963850E0,-8.405417524E0,9.946292758E0
1.258332575E1,1.769060624E0,5.212491623E0,-8.122269030E0,9.811773468E0
1.259335075E1,1.606831818E0,5.486028464E0,-7.409273002E0,9.358191236E0
1.260337575E1,1.314593096E0,5.699683385E0,-8.152202681E0,1.003359129E1
1.261339975E1,1.114563649E0,5.944664179E0,-7.966454181E0,1.000228357E1
1.262342475E1,9.516451648E-1,6.283795086E0,-7.922817580E0,1.015690640E1
1.263344975E1,1.688368902E-1,7.274771254E0,-9.524370532E0,1.198601004E1
1.264347375E1,-6.787447929E-1,8.543249846E0,-1.041966579E1,1.349137678E1
1.265349875E1,1.240729460E-1,8.115479243E0,-9.405019505E0,1.242299438E1
1.266352275E1,1.392485756E0,7.660351857E0,-7.203483170E0,1.060708145E1
1.267354775E1,1.995098340E0,7.800678016E0,-6.090379132E0,1.009572746E1
1.268357275E1,1.862143181E0,8.021061328E0,-5.646518161E0,9.984396296E0
1.269359675E1,1.977599377E0,8.349424587E0,-5.921945407E0,1.042560443E1
1.270362175E1,1.649371189E0,8.595140376E0,-9.874319372E0,1.319465977E1
1.271364675E1,1.135646224E0,8.659698315E0,-9.890178190E0,1.319453265E1
1.272367075E1,1.180762755E0,8.895355139E0,-9.782014056E0,1.327438672E1
1.273369575E1,1.394526727E0,9.489351557E0,-8.733147529E0,1.297152125E1
1.274371975E1,1.080867169E0,1.074416053E1,-7.720920825E0,1.327470820E1
1.275374475E1,1.741043251E0,1.035382965E1,-4.897167070E0,1.158513122E1
1.276376975E1,2.698875063E0,9.955455337E0,-4.024167833E0,1.107198918E1
1.277379375E1,3.393096266E0,9.678815378E0,-1.820836549E0,1.041671806E1
1.278381875E1,3.409918413E0,8.973170469E0,2.331625919E0,9.878350636E0
1.279384375E1,3.809250498E0,8.739877090E0,-1.024110585E-1,9.534481052E0
1.280386775E1,3.867870589E0,8.566668529E0,-9.289570910E-1,9.445167751E0
1.281389275E1,3.853702201E0,9.097778143E0,1.100656047E0,9.941430055E0
1.282391662E1,3.260156018E0,1.044644136E1,4.776503928E0,1.194034104E1
1.283394162E1,-2.309808642E0,1.163155503E1,1.363747744E1,1.807232910E1
1.284396662E1,-2.891541696E1,-3.843367832E1,6.441788607E0,4.852572109E1
1.285399063E1,-6.525024423E1,-7.600264232E1,2.596465466E1,1.034802363E2
1.286401563E1,-6.202397985E1,-6.610098136E1,4.439193493E1,1.009304597E2
1.287404062E1,-4.436110373E1,-3.140673311E1,2.881238434E1,6.151783400E1
1.288406462E1,-2.621475177E1,-4.382924626E0,2.160882515E1,3.425440940E1
1.289408962E1,-1.309698655E1,1.396784629E0,1.835013211E1,2.258781558E1
1.290411463E1,7.543469524E-1,5.160981746E0,9.412035579E0,1.076063128E1
1.291413862E1,3.063072690E0,3.402862870E0,1.814361781E0,4.924814585E0
1.292416362E1,1.801420138E0,-4.153055084E-1,8.909811795E-1,2.052179486E0
1.293418762E1,1.598404226E0,-1.573904100E0,4.275609800E0,4.828344370E0
1.294421263E1,1.618663074E0,-1.790339665E0,5.778305047E0,6.262123879E0
1.295423763E1,1.880379184E0,-1.418417573E0,2.758945556E0,3.627604563E0
1.296426162E1,4.506273687E-1,-4.584362082E0,1.391574760E0,4.812059958E0
1.297428662E1,1.582509740E0,-2.739035202E0,1.964916474E0,3.723915636E0
1.298431162E1,2.664932268E0,-1.879239855E0,8.678747374E-1,3.374405575E0
1.299433563E1,3.550466766E0,-4.047635633E-1,-6.621387005E-3,3.573470532E0
1.300436062E1,4.393500193E0,9.865337464E-1,-1.192930811E0,4.658237510E0
1.301438462E1,4.724499376E0,1.960617017E0,-2.916868910E0,5.888381584E0
1.302440963E1,5.918320718E0,2.269316674E0,-3.270945300E0,7.132699450E0
1.303443463E1,6.308941036E0,2.485970924E0,-3.868013261E0,7.806683997E0
1.304445862E1,6.235913406E0,2.595507107E0,-3.924091567E0,7.811643091E0
1.305448362E1,6.063388969E0,2.837182471E0,-3.812096922E0,7.703659722E0
1.306450862E1,5.936345345E0,2.994236929E0,-3.659536634E0,7.589325347E0
1.307453263E1,5.770530004E0,3.248971463E0,-3.306541395E0,7.401894899E0
1.308455762E1,5.876387996E0,3.753089746E0,-3.427906203E0,7.769694940E0
1.309458262E1,5.925860703E0,4.152339385E0,-2.931905610E0,7.807292613E0
1.310460662E1,5.749830276E0,4.521303955E0,-3.601462673E0,8.153114192E0
1.311463163E1,5.541063627E0,4.804496303E0,-4.816978354E0,8.774386093E0
1.312465562E1,5.444396873E0,4.987222377E0,-5.774364608E0,9.373213482E0
1.313468062E1,5.305519069E0,5.100765949E0,-6.163175797E0,9.599535498E0
1.314470562E1,5.108979533E0,5.232706617E0,-6.417485824E0,9.729697565E0
1.315472963E1,4.894390812E0,5.387167250E0,-6.467810470E0,9.737001832E0
1.316475463E1,4.698564051E0,5.526692340E0,-6.596094874E0,9.804555061E0
1.317477962E1,4.489455341E0,5.660654390E0,-6.618934098E0,9.798393030E0
1.318480362E1,4.280191971E0,5.824326727E0,-6.416133948E0,9.664864198E0
1.319482862E1,4.058938008E0,5.944259552E0,-6.615550314E0,9.776231653E0
1.320485363E1,3.831477811E0,6.097650145E0,-6.652697675E0,9.804078022E0
1.321487762E1,3.609239177E0,6.202425817E0,-6.702386144E0,9.819301069E0
1.322490262E1,3.387852775E0,6.332239267E0,-6.711665676E0,9.829611219E0
1.323492663E1,3.168665804E0,6.456072770E0,-6.712662041E0,9.837741116E0
1.324495163E1,2.942939306E0,6.575233178E0,-6.716017174E0,9.848830884E0
1.325497663E1,2.723296251E0,6.738937674E0,-6.777089587E0,9.937734486E0
1.326500062E1,2.466542965E0,7.336628364E0,-7.670673947E0,1.089721014E1
1.327502562E1,2.286843410E0,7.979884066E0,-8.616405530E0,1.196455794E1
1.328505062E1,2.363722309E0,8.180388014E0,-8.408397850E0,1.196691630E1
1.329507462E1,2.606552205E0,8.268873344E0,-7.424095109E0,1.141427041E1
1.330509962E1,2.956614482E0,8.014562733E0,-6.817423096E0,1.092941182E1
1.331512362E1,3.173545305E0,7.843315328E0,-6.315399286E0,1.055808947E1
1.332514863E1,3.356677468E0,7.864730755E0,-5.325630568E0,1.007390760E1
1.333517363E1,3.610889262E0,7.768926466E0,-4.758044853E0,9.799680123E0
1.334519762E1,3.671804970E0,8.119288704E0,-5.717469445E0,1.058746701E1
1.335522262E1,3.542215468E0,8.610530832E0,-7.493070034E0,1.195134428E1
1.336524762E1,3.536988642E0,9.601515187E0,-1.059708668E1,1.473083938E1
1.337527163E1,3.915627430E0,9.390094487E0,-6.530827668E0,1.208957082E1
1.338529662E1,4.060023836E0,8.285986975E0,-2.860269909E0,9.660358050E0
1.339532062E1,4.021686567E0,7.942216887E0,-2.172879131E0,9.163742448E0
1.340534562E1,4.130841511E0,8.084933973E0,-1.991859859E0,9.295026339E0
1.341537063E1,4.374131876E0,7.995646405E0,-5.614351751E-1,9.131188343E0
1.342539462E1,-2.881449401E-1,7.755910563E-1,5.924790663E-1,1.017644553E0
1.343541962E1,-3.259428390E1,-4.928502065E1,2.860616064E0,5.915727958E1
1.344544462E1,-7.013968128E1,-7.366596864E1,1.427589165E1,1.027134407E2
1.345546863E1,-2.633894429E1,-4.496431653E1,5.201676028E0,5.236971626E1
1.346549363E1,-4.952798649E0,-1.262846553E0,2.523098814E1,2.574349934E1
1.347551862E1,-1.197479594E1,1.566798856E0,2.804338426E1,3.053329326E1
1.348554262E1,-1.833784945E1,5.155466652E0,3.421980050E1,3.916440099E1
1.349556763E1,-8.562344513E0,9.772317034E0,2.020279198E1,2.402009009E1
1.350559162E1,-8.271291168E0,4.080647258E0,1.033801761E0,9.280877421E0
1.351561662E1,-1.662456498E1,-3.524720306E0,-9.420720448E0,1.943064043E1
1.352564162E1,-1.297949611E1,-1.301087344E0,-1.952726784E0,1.318989346E1
1.353566563E1,-6.290557390E0,-4.252361856E0,3.889667255E0,8.531307343E0
1.354569063E1,-2.499585289E-1,-6.319971224E0,1.192826848E1,1.350141120E1
1.355571562E1,8.870167673E-1,-4.691666091E0,1.320944956E1,1.404592778E1
1.356573962E1,1.895358582E0,-1.779366780E0,9.981532749E0,1.031452986E1
1.357576462E1,4.501411142E0,1.300888538E-2,5.975552680E0,7.481316819E0
1.358578863E1,5.051862761E0,1.338928185E0,3.845168189E0,6.488402303E0
1.359581362E1,5.248257871E0,2.616718467E0,1.515928080E0,6.057182857E0
1.360583862E1,5.333617864E0,3.500142705E0,-5.556082785E-1,6.403684801E0
1.361586262E1,5.168344560E0,4.043673559E0,-2.196844529E0,6.920202831E0
1.362588763E1,4.743803959E0,4.582284567E0,-3.892396735E0,7.658443719E0
1.363591263E1,4.570078212E0,4.890849153E0,-4.528693081E0,8.081774640E0
1.364593662E1,4.537284395E0,4.978379633E0,-5.136608212E0,8.470888818E0
1.365596162E1,4.220054527E0,5.092785670E0,-6.193071442E0,9.060875232E0
1.366598563E1,4.128331009E0,5.204973273E0,-6.670365622E0,9.414278582E0
1.367601063E1,3.976033846E0,5.196517614E0,-7.088139240E0,9.646468698E0
1.368603562E1,3.786760937E0,5.052131149E0,-7.522404930E0,9.820904412E0
1.369605962E1,3.606650030E0,4.981413168E0,-7.680363368E0,9.839226751E0
1.370608463E1,3.541239860E0,4.876897112E0,-7.606853927E0,9.705087936E0
1.371610963E1,3.313569163E0,4.919363101E0,-7.888978574E0,9.869947155E0
1.372613362E1,3.167389064E0,4.938313926E0,-7.969103554E0,9.895752088E0
1.373615862E1,3.071649971E0,4.957064778E0,-7.679773968E0,9.642948354E0
1.374618263E1,2.952030557E0,4.929591635E0,-8.128415623E0,9.954220142E0
1.375620763E1,2.844642056E0,4.945576753E0,-8.166581569E0,9.962116862E0
1.376623262E1,2.757478489E0,4.944564600E0,-8.175911971E0,9.944744504E0
1.377625662E1,2.624523915E0,4.919850174E0,-8.330808222E0,1.002474025E1
1.378628162E1,2.557052309E0,4.927748008E0,-8.360380515E0,1.003579490E1
1.379630663E1,2.506208138E0,4.942462526E0,-8.332448366E0,1.000693314E1
1.380633062E1,2.479929873E0,4.979351440E0,-8.311091995E0,1.000091211E1
1.381635562E1,2.464994330E0,5.017617958E0,-8.346327317E0,1.004558942E1
1.382637888E1,2.445528072E0,5.049492300E0,-8.385018927E0,1.008893069E1
1.383640388E1,2.463743026E0,5.110844795E0,-8.479309373E0,1.020242381E1
1.384642887E1,2.471524501E0,5.159071460E0,-8.717280525E0,1.042666924E1
1.385645287E1,2.559962761E0,5.241756352E0,-8.802182681E0,1.055972722E1
1.386647788E1,2.700780670E0,5.378232704E0,-8.834989654E0,1.069002551E1
1.387650288E1,2.938492498E0,5.516727515E0,-8.575942213E0,1.061205944E1
1.388652687E1,3.197835224E0,5.671581082E0,-8.102646943E0,1.039451151E1
1.389655187E1,3.461270708E0,5.825531253E0,-7.688941233E0,1.024875732E1
1.390657687E1,3.760619205E0,5.996196275E0,-7.461018521E0,1.028413457E1
1.391660088E1,4.071613602E0,6.190095794E0,-7.024469494E0,1.020972551E1
1.392662587E1,4.004663860E0,6.532854897E0,-8.907759422E0,1.175005122E1
1.393664987E1,3.333964251E0,7.220565811E0,-1.240553342E1,1.473598140E1
1.394667487E1,3.933107389E0,8.191829846E0,-1.265395589E1,1.557876791E1
1.395669988E1,5.905703012E0,8.831025826E0,-1.027548865E1,1.478005454E1
1.396672387E1,7.075315127E0,8.647703921E0,-7.122096945E0,1.325017480E1
1.397674887E1,7.402206057E0,8.276403973E0,-5.979473823E0,1.261132921E1
1.398677387E1,6.490508192E0,6.450748880E0,-4.865131345E0,1.036380050E1
1.399679788E1,5.625650033E0,5.680850673E0,-5.237761534E0,9.557936417E0
1.400682288E1,5.861022683E0,5.601546056E0,-5.448887535E0,9.768279300E0
1.401684687E1,5.904707816E0,5.362583216E0,-5.611543626E0,9.752553256E0
1.402687187E1,5.998120594E0,5.118192991E0,-5.431894941E0,9.574906412E0
1.403689687E1,5.772154360E0,5.069971004E0,-5.546624329E0,9.475622058E0
1.404692088E1,-3.126655606E0,1.716058684E0,1.459931050E0,3.853859280E0
1.405694587E1,-3.097094481E1,3.659815254E0,4.723444422E1,5.660111651E1
1.406696987E1,-5.974019774E1,-3.131677253E1,6.524544484E1,9.384348427E1
1.407699488E1,-5.279360264E1,-7.636564682E1,5.806019913E1,1.094982339E2
1.408701988E1,3.767943720E0,-5.700747578E1,1.898580865E1,6.020390872E1
1.409704387E1,1.061905935E1,-1.612823343E1,2.646928574E1,3.276442313E1
1.410706887E1,3.146818852E0,2.617874461E-1,4.718504811E0,5.677612985E0
1.411709387E1,-5.348536450E0,2.303248943E0,1.073357473E1,1.221152834E1
1.412711788E1,-7.775126853E0,-8.768736023E-1,1.395140977E1,1.599572879E1
1.413714287E1,-2.683492500E0,-7.277579087E-1,9.505146641E0,9.903462841E0
1.414716687E1,3.045203599E0,1.222807744E-1,6.745481293E0,7.402008878E0
1.415719187E1,5.398299179E0,6.624524036E-1,5.343637068E0,7.624626832E0
1.416721688E1,4.340520618E0,9.194664752E-1,3.531487289E0,5.670708978E0
1.417724087E1,3.389601093E0,2.048148373E0,1.080372494E0,4.105059324E0
1.418726587E1,3.623223378E0,2.924978414E0,-7.577471083E-1,4.717777766E0
1.419729087E1,4.149058512E0,3.581549103E0,-2.117522371E0,5.875889848E0
1.420731488E1,4.568429005E0,4.347539616E0,-3.087732738E0,7.021804450E0
1.421733988E1,4.813847755E0,4.763721330E0,-4.045924153E0,7.888958953E0
1.422736387E1,4.847812184E0,4.893987939E0,-4.635142812E0,8.302827820E0
1.423738887E1,4.465944271E0,4.974298861E0,-5.798904787E0,8.849610394E0
1.424741387E1,4.585705480E0,4.612679856E0,-7.460674120E0,9.897836558E0
1.425743787E1,4.145018378E0,4.483884406E0,-8.174381170E0,1.020327909E1
1.426746287E1,3.107571171E0,4.649639813E0,-7.961140231E0,9.729126516E0
1.427748787E1,2.487625394E0,4.813527328E0,-8.098574942E0,9.743984890E0
1.428751188E1,2.050710477E0,4.969311771E0,-8.163307128E0,9.774408228E0
1.429753688E1,1.971885332E0,5.029611767E0,-8.250635878E0,9.861963227E0
1.430756087E1,1.906505129E0,5.108999999E0,-8.203535972E0,9.850616490E0
1.431758587E1,1.843006998E0,5.181960386E0,-8.170013300E0,9.848781932E0
1.432761087E1,1.778400674E0,5.260407216E0,-8.131919859E0,9.846964691E0
1.433763488E1,1.709988397E0,5.342167663E0,-8.092005011E0,9.845981960E0
1.434765987E1,1.641185964E0,5.408612498E0,-8.053585296E0,9.839045515E0
1.435768487E1,1.581466889E0,5.477828913E0,-8.005077964E0,9.827966236E0
1.436770887E1,1.523572876E0,5.555365916E0,-7.966485171E0,9.830984221E0
1.437773388E1,1.449559551E0,5.623998780E0,-7.930504330E0,9.829724518E0
1.438775787E1,1.388945267E0,5.694905040E0,-7.881571321E0,9.822437521E0
1.439778287E1,1.326448034E0,5.770479718E0,-7.840855989E0,9.825320514E0
1.440780787E1,1.259653243E0,5.834699103E0,-7.803527949E0,9.824738590E0
1.441783188E1,1.223658806E0,5.920135109E0,-7.752741957E0,9.831090908E0
1.442785688E1,1.163478386E0,5.989832166E0,-7.702424912E0,9.826450064E0
1.443788187E1,1.078183005E0,6.040688324E0,-7.664971157E0,9.818562871E0
1.444790587E1,1.024553804E0,6.121144842E0,-7.609346010E0,9.819382433E0
1.445793087E1,9.679970495E-1,6.197084970E0,-7.605296229E0,9.858063255E0
1.446795487E1,9.211169980E-1,6.328442670E0,-7.697716734E0,1.000762140E1
1.447797987E1,8.763125619E-1,6.498282650E0,-7.881895257E0,1.025279835E1
1.448800487E1,8.802722233E-1,6.699695256E0,-8.000168642E0,1.047203390E1
1.449802888E1,8.772063088E-1,7.009884199E0,-8.369340788E0,1.095234370E1
1.450805388E1,9.576616573E-1,7.437568848E0,-8.630989655E0,1.143365771E1
1.451807888E1,1.201390563E0,7.754709545E0,-8.544063778E0,1.160085709E1
1.452810287E1,1.562610642E0,7.918825686E0,-8.191685420E0,1.150014184E1
1.453812787E1,2.017482943E0,7.869222001E0,-7.367777651E0,1.096718012E1
1.454815188E1,2.627471789E0,7.697627272E0,-6.285052822E0,1.027905456E1
1.455817687E1,3.082887150E0,7.548328561E0,-5.363373760E0,9.759469008E0
1.456820187E1,3.448686330E0,7.530556533E0,-4.688199277E0,9.517454048E0
1.457822587E1,3.764848204E0,7.618025032E0,-4.176994169E0,9.468667683E0
1.458825088E1,4.019507017E0,7.747730893E0,-3.611704071E0,9.446066745E0
1.459827588E1,4.273169465E0,7.841266463E0,-3.126244254E0,9.461439645E0
1.460829987E1,4.478275757E0,7.938348954E0,-2.748803560E0,9.519887546E0
1.461832487E1,4.649614378E0,8.004319580E0,-2.189158364E0,9.512121748E0
1.462834888E1,4.879693251E0,7.940710645E0,-1.939786311E0,9.519929763E0
1.463837388E1,2.790879539E0,5.951055186E0,-6.239677843E-1,6.602529987E0
1.464839887E1,-1.867160969E1,-3.206516000E0,3.408523969E1,3.899633724E1
1.465842287E1,-1.127553327E1,2.051584489E0,9.073346722E0,1.461753297E1
1.466844787E1,-2.799775727E1,-2.170538140E1,6.530400236E0,3.602282778E1
1.467847187E1,-5.235476676E1,-6.417551664E1,6.446416795E1,1.049530728E2
1.468849687E1,-3.746354806E1,-4.909100068E1,6.163590248E1,8.724923068E1
1.469852187E1,-8.623975920E0,-1.682758498E1,1.332030809E1,2.312944410E1
1.470854588E1,-3.093450145E0,-8.501926988E0,2.371278082E0,9.352815407E0
1.471857088E1,-2.817731123E0,-6.077972510E0,1.761552068E0,6.927079053E0
1.472859487E1,-2.465474387E0,-8.050599707E0,4.424465293E0,9.511393837E0
1.473861987E1,-5.581494200E0,-1.203147768E1,8.426106727E0,1.571333215E1
1.474864487E1,-8.314203299E0,-1.455390336E1,1.671307662E1,2.367000232E1
1.475866888E1,-6.172631330E0,-8.455469690E0,1.684735091E1,1.983505931E1
1.476869387E1,-2.021254982E0,-2.635153276E0,1.563013954E1,1.597907276E1
1.477871887E1,-1.130432262E0,-2.169666086E0,9.078441401E0,9.402309626E0
1.478874287E1,-1.527247705E0,-2.467777897E0,3.453816969E0,4.511237631E0
1.479876788E1,-7.112061954E-1,-2.062465281E0,2.342012182E0,3.200718411E0
1.480879187E1,1.014182013E0,-1.138309923E0,7.092520559E-1,1.681473495E0
1.481881687E1,2.854272712E0,2.994823989E-1,-1.204797735E0,3.112571285E0
1.482884175E1,4.147052917E0,1.504728908E0,-2.276178381E0,4.964196310E0
1.483886575E1,5.049053759E0,2.492053198E0,-2.748661473E0,6.265653429E0
1.484889075E1,5.625117937E0,2.921091185E0,-3.878028957E0,7.430601194E0
1.485891575E1,6.130993307E0,3.108089527E0,-4.717231287E0,8.336760189E0
1.486893975E1,6.622775719E0,3.845530132E0,-4.434782120E0,8.849663986E0
1.487896475E1,6.769464233E0,4.018395754E0,-5.144560425E0,9.404235876E0
1.488898975E1,7.165882650E0,4.309542070E0,-6.191925387E0,1.040490111E1
1.489901375E1,7.430029448E0,4.470439903E0,-6.091652071E0,1.059709373E1
1.490903875E1,7.703158738E0,4.718954169E0,-5.890592637E0,1.078453822E1
1.491906275E1,7.880707687E0,4.873439069E0,-6.013166649E0,1.104600087E1
1.492908775E1,8.656605722E0,5.756314838E0,-3.137924652E0,1.085903100E1
1.493911275E1,8.570511904E0,5.657096944E0,-3.821484042E0,1.095719674E1
1.494913675E1,8.311159823E0,5.368583629E0,-4.868453733E0,1.102718956E1
1.495916175E1,8.034035715E0,5.378487643E0,-4.897107428E0,1.083768981E1
1.496918575E1,7.934862844E0,5.422194411E0,-4.988999931E0,1.082831293E1
1.497921075E1,7.820965515E0,5.446183197E0,-5.536814455E0,1.102201104E1
1.498923575E1,7.617445573E0,5.484197701E0,-5.540798163E0,1.089964888E1
1.499925975E1,7.242936088E0,5.503359026E0,-5.324834762E0,1.054044349E1
1.500928475E1,6.886275814E0,5.479646813E0,-5.181883788E0,1.021270010E1
1.501930975E1,6.610584859E0,5.462230881E0,-5.024548078E0,9.938907473E0
1.502933375E1,6.425728059E0,5.446987190E0,-4.903896046E0,9.747196877E0
1.503935875E1,6.439777749E0,5.498520455E0,-4.781467044E0,9.724550980E0
1.504938375E1,6.477779388E0,5.543915314E0,-4.629455225E0,9.701983225E0
1.505940775E1,6.478561161E0,5.719535851E0,-4.717436232E0,9.845763032E0
1.506943275E1,6.554926967E0,5.700552281E0,-4.437440849E0,9.754703744E0
1.507945675E1,6.619928709E0,5.694394578E0,-4.199778430E0,9.689567823E0
1.508948175E1,6.650578060E0,5.779035949E0,-4.109699149E0,9.721989103E0
1.509950675E1,6.684586051E0,5.816426554E0,-3.982808430E0,9.714796524E0
1.510953075E1,6.712311208E0,5.863100199E0,-3.872366221E0,9.717318861E0
1.511955575E1,6.704818586E0,5.895928806E0,-3.846912121E0,9.721898047E0
1.512958075E1,6.736443837E0,5.940508563E0,-3.734348542E0,9.727007586E0
1.513960475E1,6.758370895E0,5.983221304E0,-3.628293207E0,9.728259141E0
1.514962975E1,6.777319967E0,6.032282951E0,-3.528606366E0,9.735068897E0
1.515965375E1,6.807385181E0,6.064769497E0,-3.420791311E0,9.737747955E0
1.516967875E1,6.824002383E0,6.111887530E0,-3.319448831E0,9.743763043E0
1.517970375E1,6.882909572E0,6.057340025E0,-3.046448472E0,9.661607560E0
1.518972775E1,7.160452341E0,5.502076732E0,-1.705425230E0,9.189853171E0
1.519975275E1,7.241818686E0,5.178212906E0,-1.506664044E0,9.029278117E0
1.520977775E1,7.298486976E0,4.898882058E0,-1.614310992E0,8.937167199E0
1.521980175E1,7.314859765E0,4.696902857E0,-2.138027971E0,8.952051912E0
1.522982675E1,7.386178254E0,4.466988584E0,-2.427856033E0,8.966833394E0
1.523985075E1,7.519343913E0,4.295457004E0,-2.463144856E0,9.003253097E0
1.524987575E1,7.194331108E0,5.390447538E0,-2.057966433E0,9.222285541E0
1.525990075E1,6.553276298E0,6.601605290E0,-2.759801003E0,9.702737975E0
1.526992475E1,-3.110667272E0,3.352241478E0,-1.560932052E0,4.832213020E0
1.527994975E1,-2.715090737E1,-5.574046016E0,1.560841362E1,3.180981508E1
1.528997375E1,-7.085944546E1,-4.092064882E1,6.044720564E1,1.017321246E2
1.529999875E1,-7.682378786E1,-7.313769376E1,5.019361715E1,1.173474151E2
1.531002375E1,-2.535938130E1,-5.771383814E1,-2.112211930E0,6.307492983E1
1.532004775E1,1.685397697E1,-1.172713595E1,4.779776497E1,5.202123215E1
1.533007275E1,1.084915547E1,-2.962360248E0,7.803772947E0,1.368863123E1
1.534009775E1,3.593457835E0,-4.428806850E0,5.964545297E0,8.252458417E0
1.535012175E1,-1.904778738E0,-6.708833869E0,1.834101981E-1,6.976408333E0
1.536014675E1,-1.732632909E0,-6.067386126E0,-2.307812988E0,6.718719520E0
1.537017075E1,2.055726072E-1,-2.520111355E0,-9.189811563E-1,2.690306247E0
1.538019575E1,2.436940852E0,-2.643052572E-1,-1.115377436E0,2.693066061E0
1.539022075E1,3.485384625E0,1.079787188E0,-6.547764713E-1,3.707098405E0
1.540024475E1,4.294926369E0,1.770860835E0,5.041241294E-1,4.672952146E0
1.541026975E1,5.333992086E0,3.015413205E0,1.415132607E0,6.288623750E0
1.542029475E1,6.273144382E0,4.137151242E0,1.829952797E0,7.734150766E0
1.543031875E1,6.992602168E0,5.249412112E0,1.328497921E0,8.844078207E0
1.544034375E1,6.801716890E0,6.130709717E0,1.152652851E0,9.229169133E0
1.545036775E1,5.910263840E0,6.423598503E0,2.135941100E-1,8.731520992E0
1.546039275E1,4.790508886E0,6.572456920E0,-1.214975984E0,8.223279880E0
1.547041775E1,3.672533240E0,6.655370438E0,-2.408236578E0,7.973773227E0
1.548044175E1,2.807563692E0,6.793822564E0,-3.032340310E0,7.951951123E0
1.549046675E1,2.413729452E0,6.889957221E0,-3.489652800E0,8.091679494E0
1.550049175E1,2.324444515E0,6.841331776E0,-4.007849423E0,8.262549230E0
1.551051575E1,2.285281034E0,6.844696848E0,-4.599359021E0,8.557247674E0
1.552054075E1,2.324916386E0,7.025671096E0,-4.980744832E0,8.920376093E0
1.553056475E1,2.304341203E0,7.044699106E0,-5.167673884E0,9.035630982E0
1.554058975E1,2.505292756E0,7.057372361E0,-5.576219426E0,9.336874184E0
1.555061475E1,2.625261541E0,6.885471237E0,-6.271272689E0,9.676289240E0
1.556063875E1,2.692339337E0,6.490293015E0,-6.981081399E0,9.904952904E0
1.557066375E1,2.617324531E0,6.348524348E0,-7.550517758E0,1.020609952E1
1.558068875E1,2.529599631E0,6.345958005E0,-7.692907984E0,1.028838620E1
1.559071275E1,2.634007222E0,6.338864163E0,-7.798376552E0,1.038912267E1
1.560073775E1,2.921256953E0,6.170456166E0,-7.985875708E0,1.050630679E1
1.561076175E1,3.168050092E0,6.096404688E0,-7.976376321E0,1.052735820E1
1.562078675E1,3.335816942E0,6.080134225E0,-7.631982336E0,1.031226751E1
1.563081175E1,3.495723379E0,6.053519454E0,-7.471068131E0,1.023142408E1
1.564083575E1,3.684703927E0,6.162510969E0,-7.420856920E0,1.032582694E1
1.565086075E1,3.868441570E0,6.174158623E0,-7.574815278E0,1.051013327E1
1.566088575E1,4.030111820E0,6.136347018E0,-7.713605958E0,1.064876861E1
1.567090975E1,4.296353967E0,6.243287914E0,-7.371967766E0,1.057275792E1
1.568093475E1,4.465786689E0,6.013037426E0,-6.951682768E0,1.021889246E1
1.569095875E1,4.648944579E0,5.796669397E0,-6.070216763E0,9.594873285E0
1.570098375E1,4.885095493E0,5.735812746E0,-5.806773970E0,9.512220023E0
1.571100875E1,5.098690773E0,5.740540804E0,-5.768942485E0,9.603705208E0
1.572103275E1,5.314469402E0,5.714576828E0,-5.622553933E0,9.618372320E0
1.573105775E1,5.510569228E0,5.715065655E0,-5.468960441E0,9.640429294E0
1.574108275E1,5.710838703E0,5.707145602E0,-5.269608395E0,9.641263519E0
1.575110675E1,5.911993446E0,5.652857128E0,-5.115092797E0,9.647312296E0
1.576113175E1,6.086491318E0,5.625360011E0,-4.920422616E0,9.638496280E0
1.577115575E1,6.268011696E0,5.592753013E0,-4.739981049E0,9.645427789E0
1.578118075E1,6.440099931E0,5.545591126E0,-4.551895710E0,9.640965855E0
1.579120575E1,6.590733562E0,5.522650745E0,-4.280273539E0,9.605112269E0
1.580122975E1,6.740149217E0,5.528471063E0,-3.975104723E0,9.580973924E0
1.581125475E1,6.904999768E0,5.471822069E0,-3.811940217E0,9.599518049E0
1.582127975E1,7.046339250E0,5.443978797E0,-3.632121086E0,9.616657712E0
1.583130375E1,7.139947325E0,5.417768653E0,-3.404506523E0,9.587582054E0
1.584132875E1,5.952651476E0,4.990243049E0,-2.596542065E0,8.190153599E0
1.585135275E1,-1.973452590E1,-1.197665068E1,2.464240273E1,3.376595455E1
1.586137775E1,-7.003063773E1,-3.394694135E1,6.716761173E1,1.028016202E2
1.587140275E1,-7.614449109E1,-6.367254850E1,3.816864508E1,1.063438876E2
1.588142675E1,-2.309036693E1,-6.058566771E1,1.510918770E1,6.657383667E1
1.589145175E1,1.763469955E1,-6.256386847E0,3.630550934E1,4.084378793E1
1.590147675E1,6.749918160E0,-3.553427212E0,1.633802802E1,1.803106763E1
1.591150075E1,3.151571761E0,-3.623715422E0,1.911202197E0,5.168792108E0
1.592152575E1,5.072518051E-1,-4.011740161E0,-1.126967787E0,4.197787501E0
1.593154975E1,-1.780176035E-1,-4.816842699E0,1.430174569E0,5.027828871E0
1.594157475E1,1.151217359E-1,-4.075084802E0,6.348726661E0,7.544925406E0
1.595159975E1,1.930580747E0,-2.267935562E0,6.997558268E0,7.605030930E0
1.596162375E1,3.197514504E0,-8.621216619E-1,3.754563829E0,5.006406127E0
1.597164875E1,3.497929534E0,-3.157981771E-1,2.642891189E0,4.395465089E0
1.598167275E1,3.891762604E0,7.267767459E-1,2.507950900E0,4.686559327E0
1.599169775E1,4.549371467E0,1.695401348E0,2.141443915E0,5.306312139E0
1.600172275E1,5.095526844E0,2.592841362E0,1.426164549E0,5.892466841E0
1.601174675E1,5.505357020E0,3.916386107E0,4.162211823E-1,6.769067596E0
1.602177175E1,5.462396357E0,5.276727380E0,-4.546145850E-1,7.608436122E0
1.603179675E1,5.289072021E0,6.122429475E0,-1.325821066E0,8.198550300E0
1.604182075E1,4.875794035E0,6.043224261E0,-2.734876077E0,8.232464643E0
1.605184575E1,4.512463257E0,5.936625427E0,-4.095442468E0,8.507555178E0
1.606186975E1,4.340044363E0,6.041691121E0,-5.211415150E0,9.082778459E0
1.607189475E1,5.212273521E0,6.674099069E0,-5.960563928E0,1.035566106E1
1.608191975E1,5.915363781E0,7.120386050E0,-6.248367391E0,1.116841624E1
1.609194375E1,5.807883772E0,7.169414953E0,-6.702725283E0,1.140432159E1
1.610196875E1,5.091954195E0,6.818069798E0,-6.939061553E0,1.098019347E1
1.611199375E1,4.133845811E0,6.335904887E0,-6.980415986E0,1.029361838E1
1.612201775E1,3.337664077E0,5.839663973E0,-7.232195338E0,9.876554370E0
1.613204275E1,2.729440213E0,5.446835162E0,-7.484579292E0,9.650740093E0
1.614206675E1,2.449781922E0,5.220827998E0,-7.673806885E0,9.599259792E0
1.615209175E1,2.332877662E0,5.102047074E0,-7.870483246E0,9.665283703E0
1.616211675E1,2.230094721E0,4.971951204E0,-8.078483325E0,9.744511997E0
1.617214075E1,2.082412911E0,4.825014475E0,-8.182593584E0,9.724815987E0
1.618216575E1,1.933318267E0,4.666000323E0,-8.305189816E0,9.720362977E0
1.619218975E1,1.782739454E0,4.516517132E0,-8.439313833E0,9.736483191E0
1.620221475E1,1.599357176E0,4.357905560E0,-8.465576017E0,9.654805102E0
1.621223975E1,1.419679694E0,4.203928491E0,-8.612622381E0,9.688434831E0
1.622226375E1,1.245641852E0,4.051550051E0,-8.744076560E0,9.717281324E0
1.623228875E1,1.100812314E0,3.887520157E0,-8.866464631E0,9.743654128E0
1.624231375E1,9.364225236E-1,3.719928724E0,-9.000431358E0,9.783788708E0
1.625233775E1,7.627948634E-1,3.558373956E0,-9.031768926E0,9.737388312E0
1.626236275E1,5.695343728E-1,3.413937497E0,-9.008202308E0,9.650235616E0
1.627238675E1,3.197265193E-1,3.274415622E0,-9.003376016E0,9.585656076E0
1.628241175E1,1.467529068E-1,3.095361892E0,-9.317498966E0,9.819296749E0
1.629243675E1,-2.117989417E-2,2.864094281E0,-9.457332205E0,9.881529085E0
1.630246075E1,-3.179435571E-1,2.757725534E0,-9.440372356E0,9.840059372E0
1.631248575E1,-5.280168758E-1,2.596890851E0,-9.540450960E0,9.901658873E0
1.632251075E1,-6.543966946E-1,2.418612462E0,-9.812874491E0,1.012770591E1
1.633253475E1,-8.873787099E-1,2.273939190E0,-9.832004242E0,1.013047619E1
1.634255975E1,-9.220480210E-1,2.291796733E0,-1.055651753E1,1.084170499E1
1.635258375E1,-8.962261319E-1,2.351734202E0,-1.146629868E1,1.173924531E1
1.636260875E1,-9.170444123E-1,1.966321853E0,-1.090963205E1,1.112328475E1
1.637263375E1,-4.797396322E-1,2.163805714E0,-9.300689390E0,9.561120667E0
1.638265775E1,-2.418747532E-1,2.288970335E0,-9.329962891E0,9.609687619E0
1.639268275E1,-1.449203163E-1,2.257336752E0,-9.417726089E0,9.685563267E0
1.640270675E1,3.098207147E-1,2.441282263E0,-9.340221831E0,9.658964324E0
1.641273175E1,6.246616150E0,5.090262011E0,-5.546061827E0,9.782115438E0
1.642275675E1,1.553070997E1,7.861493737E0,6.154667514E0,1.846309747E1
1.643278075E1,-7.447744757E-1,-2.346727962E0,3.294789076E0,4.113083539E0
1.644280575E1,-1.547071052E1,-2.161608506E1,2.911225762E1,3.942234850E1
1.645282975E1,-2.808300967E1,-4.464588653E1,6.898948719E1,8.684157966E1
1.646285475E1,-2.297098082E1,-2.600762000E1,5.972513064E1,6.907353681E1
1.647287975E1,-3.079701295E0,-4.324308628E0,1.880185642E1,1.953699081E1
1.648290375E1,1.236159861E0,1.381112337E-1,-1.237304746E0,1.754448332E0
1.649292875E1,-6.733094552E0,-6.675805287E0,-3.046201134E0,9.958929652E0
1.650295375E1,-3.515429081E1,-2.372251877E1,-7.412526977E-1,4.241617044E1
1.651297775E1,-3.381598477E1,-1.990283216E1,4.820013059E0,3.953322754E1
1.652300275E1,-1.330783247E1,-1.670677449E1,1.755624161E1,2.764844188E1
1.653302675E1,4.618393462E0,-1.025991284E1,1.957070797E1,2.257449845E1
1.654305175E1,5.647475935E0,-1.381784767E-1,6.808269280E0,8.846785197E0
1.655307675E1,4.562411343E0,1.328572473E0,-8.873933280E-1,4.834063404E0
1.656310075E1,5.297611880E0,-2.846246240E-1,-9.106325018E-1,5.382838875E0
