"Time (s)","Linear Acceleration x (m/s^2)","Linear Acceleration y (m/s^2)","Linear Acceleration z (m/s^2)","Absolute acceleration (m/s^2)"
7.542833337E-3,1.133720809E0,1.314021385E-1,-7.352242184E-1,1.357624413E0
1.756683332E-2,9.621473488E-1,1.980760382E-1,-8.515861487E-1,1.300061770E0
2.759083333E-2,7.697904722E-1,3.058906549E-1,-8.720391244E-1,1.202746315E0
3.761483333E-2,4.666009386E-1,3.691202523E-1,-7.020044321E-1,9.202045529E-1
4.763858333E-2,2.064549521E-1,4.666836767E-1,-4.172514617E-1,6.591783398E-1
5.766258333E-2,2.076960236E-1,4.395846096E-1,-1.308063072E-1,5.034705127E-1
6.768658334E-2,3.942121165E-1,2.342589010E-1,1.467323685E-1,4.814673545E-1
7.771058333E-2,5.968587770E-1,1.627125165E-1,2.503695881E-1,6.673834680E-1
8.773458333E-2,6.170566678E-1,2.042976218E-1,1.306308907E-1,6.629938757E-1
9.775858333E-2,3.875158851E-1,3.085610783E-1,-3.013736808E-1,5.798315236E-1
1.077825833E-1,9.529412001E-2,4.797612669E-1,-7.917153382E-1,9.306261437E-1
1.178065833E-1,-8.943784118E-2,1.853352477E-1,-8.670005786E-1,8.910882587E-1
1.278305833E-1,-1.409079570E-1,3.635652512E-2,-1.054898515E0,1.064888598E0
1.378545833E-1,2.335407168E-2,6.387790740E-2,-8.773098046E-1,8.799422100E-1
1.478785833E-1,1.125289343E-1,1.568427891E-2,-5.882983071E-1,5.991691379E-1
1.579025833E-1,5.913186863E-2,-3.926405311E-2,-3.390467066E-1,3.463970453E-1
1.679255833E-1,2.970049337E-2,-5.353944540E-2,-1.261501694E-1,1.402228824E-1
1.779495833E-1,-2.190703198E-2,-7.542162672E-2,2.011032879E-2,8.107259186E-2
1.879735833E-1,-1.940047681E-2,-1.042159478E-1,1.241124147E-1,1.632214256E-1
1.979975833E-1,5.213582128E-2,-1.399802962E-1,1.492934489E-1,2.111898697E-1
2.080215833E-1,6.523066074E-2,-1.782528077E-1,9.332448542E-2,2.115149218E-1
2.180455833E-1,9.844942376E-2,-2.454819006E-1,-5.499540210E-2,2.701446775E-1
2.280695833E-1,2.213323152E-1,-3.242909655E-1,-4.032321775E-1,5.628044181E-1
2.380935833E-1,3.215595849E-1,-3.897033285E-1,-8.782494521E-1,1.013208444E0
2.481175833E-1,2.779289773E-1,-3.971487343E-1,-1.075569592E0,1.179754881E0
2.581415833E-1,9.199775219E-2,-3.347712225E-1,-8.164420438E-1,8.871938732E-1
2.681655833E-1,-3.351141617E-2,-2.833891073E-1,-3.168682176E-1,4.264245167E-1
2.781895833E-1,-1.257753628E-1,-2.034401277E-1,3.235743892E-1,4.023775749E-1
2.882135833E-1,-1.730686663E-1,-3.877259463E-2,1.137826066E0,1.151565992E0
2.982375833E-1,-1.606885028E-1,-1.870904356E-2,1.883943647E0,1.890876646E0
3.082615833E-1,4.875744626E-2,-3.172816157E-1,2.605602325E0,2.625301581E0
3.182855833E-1,4.184197354E-1,-5.890771562E-1,3.125706310E0,3.208134490E0
3.283095833E-1,8.802667415E-1,-8.497089002E-1,3.097805736E0,3.330656862E0
3.383325833E-1,1.152769357E0,-1.119393011E0,2.707775987E0,3.148645534E0
3.483565833E-1,1.050683696E0,-1.149661123E0,2.100459026E0,2.614877635E0
3.583805833E-1,6.144283444E-1,-8.751333247E-1,1.408982506E0,1.768788350E0
3.684045833E-1,1.482060130E-1,-5.756022477E-1,7.773370349E-1,9.785376006E-1
3.784285833E-1,-1.732223019E-2,-3.891636305E-1,2.832057971E-1,4.816159408E-1
3.884525833E-1,-9.327873096E-2,-2.716984767E-1,5.052111268E-2,2.916733905E-1
3.984765833E-1,9.966286719E-3,-2.273694192E-1,1.016433191E-1,2.492539748E-1
4.085005833E-1,3.352422157E-1,-3.218477064E-1,1.686757994E-1,4.943933804E-1
4.185245833E-1,5.284570250E-1,-4.508201806E-1,3.478508592E-1,7.768564106E-1
4.285485833E-1,6.506142770E-1,-4.707150395E-1,3.844474125E-1,8.903209527E-1
4.385725833E-1,7.839723091E-1,-4.569493783E-1,3.220769173E-1,9.628856923E-1
4.485965833E-1,9.068740578E-1,-4.898395278E-1,2.729035878E-1,1.066226846E0
4.586205833E-1,9.866489366E-1,-5.269921513E-1,2.975782531E-1,1.157475558E0
4.686445833E-1,9.201750116E-1,-4.478448249E-1,3.124839753E-1,1.070015548E0
4.786685833E-1,7.827730452E-1,-3.459344342E-1,2.962000644E-1,9.056151231E-1
4.886925833E-1,7.353731762E-1,-3.108441237E-1,2.942915332E-1,8.508850005E-1
4.987165833E-1,8.222983226E-1,-3.094673967E-1,3.388291901E-1,9.416739463E-1
5.087395833E-1,9.690852164E-1,-3.229338267E-1,2.442469686E-1,1.050270915E0
5.187635833E-1,9.397058813E-1,-3.678360575E-1,1.508020306E-1,1.020339042E0
5.287875833E-1,9.200485656E-1,-5.116569512E-1,-1.358775973E-1,1.061482416E0
5.388115833E-1,1.087892014E0,-7.005905753E-1,-6.488029557E-1,1.447508709E0
5.488355833E-1,1.253379180E0,-7.209206133E-1,-1.121108292E0,1.829636495E0
5.588595833E-1,1.475333785E0,-8.756939265E-1,-1.250039982E0,2.122745766E0
5.688835833E-1,2.188071659E0,-7.848002748E-1,-1.231399643E0,2.630572967E0
5.789075833E-1,3.458875688E0,-8.311400436E-1,-1.003952894E0,3.696286814E0
5.889315833E-1,3.398158201E0,-1.748724592E0,-1.221056503E0,4.012043848E0
5.989555833E-1,2.128568931E0,-1.990962312E0,-2.053937994E0,3.565585212E0
6.089795833E-1,7.823567234E-1,-1.809831066E0,-2.752127702E0,3.385524689E0
6.190035833E-1,-2.177533807E-1,-1.867003240E0,-3.048011432E0,3.580990272E0
6.290275833E-1,-3.666521426E-1,-2.218018028E0,-3.207354491E0,3.916779365E0
6.390515833E-1,-1.233642635E-1,-2.698559313E0,-3.727214647E0,4.603213023E0
6.490755833E-1,-4.335447282E-1,-2.584090419E0,-5.225946651E0,5.846024523E0
6.590995833E-1,-1.791430755E0,-2.059902885E0,-5.195595508E0,5.869125721E0
6.691235833E-1,-2.676098404E0,-3.254698811E0,-5.051570401E0,6.578216364E0
6.791475833E-1,-2.851808111E0,-2.653682810E0,-5.311351082E0,6.586751269E0
6.891705833E-1,-2.140964443E0,-2.672103878E0,-5.480773571E0,6.462410295E0
6.991945833E-1,-1.748091193E0,-3.517682598E0,-5.314978110E0,6.609001890E0
7.092185833E-1,-1.990734855E0,-3.827973575E0,-5.590846236E0,7.062150422E0
7.192425833E-1,-2.358886662E0,-3.625888247E0,-5.679203512E0,7.138961017E0
7.292665833E-1,-2.624306399E0,-3.583764905E0,-5.448289365E0,7.029524306E0
7.392905833E-1,-2.505027877E0,-3.598399609E0,-5.124929568E0,6.744519812E0
7.493145833E-1,-1.756282557E0,-3.397042260E0,-4.474691706E0,5.886194900E0
7.593385833E-1,-9.260305595E-1,-3.544519856E0,-3.656908311E0,5.176304859E0
7.693625833E-1,-1.866823000E-1,-3.762289755E0,-2.621980376E0,4.589602986E0
7.793865833E-1,-4.128514320E-1,-3.783881768E0,-1.758410651E0,4.192876764E0
7.894105833E-1,-1.311562631E0,-3.632397075E0,-1.065719080E0,4.006277849E0
7.994345833E-1,-1.646303447E0,-2.746048644E0,6.808579767E-1,3.273326410E0
8.094585833E-1,-2.286696938E0,-2.937296450E0,1.429810580E0,3.987612270E0
8.194825833E-1,-2.428668503E0,-3.009949859E0,1.894525061E0,4.306675523E0
8.295065833E-1,-1.884111462E0,-2.351639185E0,2.393335826E0,3.848134513E0
8.395305833E-1,-8.522755355E-1,-1.317812719E0,2.879518943E0,3.279425757E0
8.495545833E-1,3.363183957E-1,-4.737387078E-1,3.361397048E0,3.411235633E0
8.595785833E-1,1.297114745E0,-1.256374417E-1,3.971601364E0,4.179941246E0
8.696025833E-1,2.086199421E0,7.905435562E-4,4.778444619E0,5.213996703E0
8.796255833E-1,2.245768767E0,4.535100460E-2,5.796998010E0,6.216970323E0
8.896495833E-1,1.772329656E0,1.613414906E-1,6.787447929E0,7.016881991E0
8.996735833E-1,1.327963486E0,4.373432256E-1,5.595573710E0,5.767599263E0
9.096975833E-1,2.307451630E0,3.235288686E0,4.315811162E0,5.866655938E0
9.197215833E-1,2.946562825E0,5.534200165E0,3.125715666E0,7.005690714E0
9.297455833E-1,2.604180282E0,6.506224923E0,1.686664438E0,7.208158893E0
9.397695833E-1,2.153939999E0,6.752419599E0,5.796906209E-1,7.111305730E0
9.497935833E-1,1.862114822E0,5.876425418E0,2.743075043E-3,6.164402228E0
9.598175833E-1,2.013733124E0,4.374581527E0,1.035239006E0,4.925830328E0
9.698415833E-1,3.029034879E0,3.718327756E0,2.892280784E0,5.600562626E0
9.798655833E-1,4.216300907E0,3.304144036E0,2.762376117E0,6.027045957E0
9.898895833E-1,4.318765175E0,3.355103398E0,1.254420716E0,5.610884314E0
9.999135833E-1,2.557734679E0,3.868630727E0,6.534146547E-1,4.683509485E0
1.009937583E0,3.787878925E-1,4.092066578E0,4.293095899E-1,4.131923991E0
1.019961583E0,-8.547255188E-1,4.003570431E0,2.362643498E-1,4.100603949E0
1.029985583E0,-5.384069395E-1,3.737871197E0,-7.663185418E-1,3.853415009E0
1.040009583E0,2.106997383E-1,3.472913391E0,-2.209063309E0,4.121344745E0
1.050034208E0,3.116823220E-1,3.067529730E0,-3.205593309E0,4.447776184E0
1.060058208E0,1.337141275E-1,2.215895050E0,-3.119891839E0,3.829072398E0
1.070081208E0,9.928104401E-2,1.212681828E0,-2.240669995E0,2.549716841E0
1.080105208E0,-2.205815327E-1,3.475304317E-1,-1.658928756E0,1.709233229E0
1.090129208E0,-1.001164942E0,-5.143588033E-1,-1.851795655E0,2.167035618E0
1.100153208E0,-9.296564180E-1,-1.440512447E0,-1.544796953E0,2.307755358E0
1.110177208E0,1.170862250E0,-2.965654569E0,-6.795686656E-1,3.260036657E0
1.120201208E0,3.957765682E0,-5.125796710E0,-4.883904415E-1,6.494322623E0
1.130225208E0,7.132177545E0,-7.848484266E0,-1.792624757E-1,1.060654500E1
1.140249208E0,1.071622019E1,-1.097971678E1,3.744363946E-1,1.534704396E1
1.150273208E0,1.470813303E1,-1.411612700E1,1.063840954E0,2.041386726E1
1.160297208E0,1.703937581E1,-1.593645177E1,1.229418314E0,2.336283999E1
1.170321208E0,1.759020341E1,-1.562784626E1,5.098128855E-1,2.353518098E1
1.180345208E0,1.732812301E1,-1.396902275E1,4.447538406E-1,2.226196869E1
1.190369208E0,1.583541306E1,-1.204450060E1,1.962926374E0,1.999208297E1
1.200393208E0,1.305645716E1,-1.035145451E1,4.097408009E0,1.715845087E1
1.210417208E0,9.619725755E0,-9.186076947E0,6.291428626E0,1.471411592E1
1.220441208E0,7.529664248E0,-9.493632304E0,7.856469809E0,1.444122626E1
1.230465208E0,7.932322814E0,-1.075234195E1,8.156558272E0,1.565452157E1
1.240489208E0,9.492828897E0,-1.259153218E1,8.146098188E0,1.774878584E1
1.250513208E0,1.011057729E1,-1.385926584E1,8.303586509E0,1.905918602E1
1.260537208E0,9.621309181E0,-1.400645663E1,7.801101939E0,1.869779690E1
1.270560208E0,8.809009890E0,-1.290236198E1,7.000633904E0,1.711953489E1
1.280584208E0,7.897160583E0,-1.127346101E1,6.435170728E0,1.519432430E1
1.290608208E0,6.349373363E0,-9.001986718E0,6.069612161E0,1.257738044E1
1.300632208E0,4.108777628E0,-5.960110769E0,5.382149169E0,9.020670909E0
1.310656208E0,1.118239648E0,-2.900200837E0,4.563889811E0,5.521839821E0
1.320680208E0,-1.815570400E0,-3.512919456E-1,4.219580610E0,4.607012311E0
1.330704208E0,-3.612308673E0,2.010285020E0,4.439570990E0,6.066284727E0
1.340728208E0,-4.385338649E0,3.963249786E0,3.936626244E0,7.101800484E0
1.350752208E0,-4.793449159E0,5.671290475E0,3.226895301E0,8.096514298E0
1.360776208E0,-5.282101555E0,7.524336265E0,2.564426233E0,9.544239885E0
1.370800208E0,-6.366533187E0,9.583750176E0,1.767363469E0,1.164064371E1
1.380824208E0,-7.874137756E0,1.131071830E1,8.107613276E-1,1.380549629E1
1.390848208E0,-9.303328239E0,1.245495993E1,-1.421417195E-1,1.554664425E1
1.400872208E0,-1.006397498E1,1.296908339E1,-7.518303108E-1,1.643307534E1
1.410896208E0,-9.239935650E0,1.292172094E1,-1.020560156E0,1.591819167E1
1.420920208E0,-8.275507010E0,1.246349804E1,-1.526088787E0,1.503834255E1
1.430944208E0,-8.643980414E0,1.075813303E1,-2.915340448E0,1.410514210E1
1.440968208E0,-8.649024222E0,9.873443459E0,-2.802436561E0,1.342177918E1
1.450992208E0,-8.177623451E0,9.023823729E0,-2.550500504E0,1.244218521E1
1.461016208E0,-7.589416945E0,7.615142940E0,-2.476988139E0,1.103291085E1
1.471039208E0,-6.762772095E0,6.513315842E0,-1.961982926E0,9.592066861E0
1.481063208E0,-6.614238199E0,6.698918746E0,-1.521046148E0,9.536101965E0
1.491087208E0,-6.654793317E0,5.976874736E0,-1.234545445E0,9.029585160E0
1.501111208E0,-6.538251293E0,4.966187019E0,-2.428225138E-1,8.214055408E0
1.511135208E0,-6.334229659E0,4.640943834E0,8.495092177E-1,7.898258730E0
1.521159208E0,-6.442017233E0,4.658079100E0,8.436462146E-1,7.994312094E0
1.531183208E0,-6.784903806E0,4.738222792E0,4.950124133E-1,8.290398794E0
1.541207208E0,-6.697240010E0,4.723764966E0,1.029788232E-1,8.196193253E0
1.551231208E0,-5.922649412E0,4.958180426E0,3.004673624E-1,7.729916548E0
1.561255208E0,-5.779689083E0,4.636453757E0,-5.504896259E-1,7.429976323E0
1.571279208E0,-5.934788817E0,4.836971154E0,-4.850464189E-1,7.671589032E0
1.581303208E0,-6.019584553E0,5.407071172E0,-2.816463447E-1,8.096365945E0
1.591327208E0,-5.900161605E0,5.731729635E0,-2.346838474E-1,8.229198508E0
1.601351208E0,-5.645177395E0,5.783809615E0,-9.601011157E-2,8.082678976E0
1.611375208E0,-5.581072031E0,5.696203707E0,-1.040944719E-1,7.975333055E0
1.621399208E0,-5.802169873E0,5.695646467E0,-7.551214892E-2,8.130883469E0
1.631423208E0,-6.479307851E0,5.967827924E0,-2.801997435E-1,8.813337180E0
1.641447208E0,-7.316865944E0,6.158783954E0,-7.037603509E-1,9.589704149E0
1.651471208E0,-7.903054576E0,6.219321932E0,-1.271213919E0,1.013677571E1
1.661495208E0,-8.272417926E0,6.299428201E0,-1.890341671E0,1.056830571E1
1.671518208E0,-8.608573769E0,6.424969091E0,-2.359633352E0,1.099798344E1
1.681542208E0,-9.201322392E0,6.749952074E0,-1.908505461E0,1.157015903E1
1.691566208E0,-9.857305144E0,6.938280365E0,-1.796542976E0,1.218744296E1
1.701590208E0,-1.027531674E1,7.119513645E0,-1.663377317E0,1.261096479E1
1.711614208E0,-1.055879678E1,7.262754056E0,-1.206470039E0,1.287211544E1
1.721638208E0,-1.115274057E1,7.289755329E0,-6.417786956E-1,1.333926665E1
1.731662208E0,-1.197406153E1,7.051312891E0,-4.802215889E-2,1.389609546E1
1.741686208E0,-1.252028737E1,6.715152955E0,5.348682046E-1,1.421748779E1
1.751710208E0,-1.263811812E1,6.212614006E0,1.281062969E0,1.414071160E1
1.761734208E0,-1.122950048E1,4.746961455E0,2.355792900E0,1.241712866E1
1.771758208E0,-6.867631382E0,1.427237805E0,2.637021754E0,7.493680824E0
1.781782208E0,4.217070401E-1,-3.751926150E0,8.478402762E-1,3.869576178E0
1.791806208E0,9.581259263E0,-9.184459022E0,-1.210342065E0,1.332740577E1
1.801830208E0,1.924022334E1,-1.169073119E1,-3.703882502E0,2.281618144E1
1.811854208E0,2.482426050E1,-1.004672102E1,-6.858703269E0,2.764457131E1
1.821878208E0,2.455253337E1,-7.523994788E0,-7.769870206E0,2.682924292E1
1.831902208E0,2.393501126E1,-7.196873478E0,-2.588172945E0,2.512724400E1
1.841926208E0,2.849984365E1,-7.903345767E0,1.602020437E0,2.961875135E1
1.851950208E0,3.138258879E1,-7.292176076E0,1.624471991E-1,3.221907975E1
1.861974208E0,2.714444736E1,-5.991910266E0,-1.528846041E0,2.783992424E1
1.871998208E0,2.327415895E1,-6.089727752E0,-1.889728882E0,2.413177022E1
1.882022208E0,2.143269766E1,-7.307239088E0,-2.740393510E0,2.280934082E1
1.892045208E0,2.087165498E1,-9.308180258E0,-3.665414840E0,2.314526879E1
1.902069208E0,2.153500523E1,-1.249417487E1,-3.334388759E0,2.511929546E1
1.912093208E0,2.222722902E1,-1.516115074E1,-1.945328887E0,2.697581336E1
1.922117208E0,2.172597529E1,-1.661643735E1,-4.458034158E-1,2.735548817E1
1.932141208E0,1.945102950E1,-1.627770464E1,1.128398015E0,2.538857024E1
1.942165208E0,1.617618411E1,-1.495821260E1,2.018782779E0,2.212447831E1
1.952189208E0,1.283054765E1,-1.382841827E1,1.422291938E0,1.891747919E1
1.962213208E0,9.545164400E0,-1.277187084E1,9.334143504E-1,1.597191630E1
1.972237208E0,6.836647571E0,-1.217123198E1,2.521470686E-1,1.396217089E1
1.982261208E0,4.267837681E0,-1.123662122E1,-5.019776896E-1,1.203029827E1
1.992285208E0,2.570345954E0,-9.806301051E0,-4.616482008E-1,1.014807064E1
2.002309208E0,1.469807582E0,-7.928698710E0,-1.238259012E-1,8.064733747E0
2.012333208E0,2.087444293E-1,-5.131183165E0,3.628120568E-1,5.148227608E0
2.022357208E0,-1.004428273E0,-1.469221106E0,5.803103527E-1,1.871963386E0
2.032381208E0,-2.423794849E0,1.905664007E0,2.821198960E-1,3.096115051E0
2.042405208E0,-4.453904854E0,5.043624035E0,-2.287348902E-1,6.732587281E0
2.052429208E0,-7.006643087E0,7.796269215E0,-1.132206234E0,1.054309025E1
2.062453208E0,-9.292067671E0,9.988893224E0,-1.954764538E0,1.378193070E1
2.072477208E0,-1.099921374E1,1.124850393E1,-2.513181819E0,1.593196869E1
2.082501208E0,-1.187909339E1,1.150331389E1,-2.817567986E0,1.677431905E1
2.092525208E0,-1.202604795E1,1.143682169E1,-3.240745600E0,1.690943973E1
2.102548208E0,-1.183429203E1,1.110980563E1,-3.466847489E0,1.659811075E1
2.112572208E0,-1.142853970E1,1.052189500E1,-2.580513677E0,1.574740756E1
2.122596208E0,-1.118706372E1,9.806313915E0,-1.553602275E0,1.495753547E1
2.132620208E0,-1.098685506E1,9.048213050E0,-8.584741688E-1,1.425896635E1
2.142644208E0,-1.050894341E1,8.291700874E0,-3.864454061E-1,1.339177117E1
2.152668208E0,-9.733969240E0,7.682159632E0,-6.329786360E-2,1.240039275E1
2.162692208E0,-8.998666084E0,7.217583731E0,8.606048942E-2,1.153589670E1
2.172716208E0,-8.464123569E0,6.790590808E0,1.617450581E-1,1.085263437E1
2.182740208E0,-8.059919000E0,6.452928137E0,2.809118978E-1,1.032867307E1
2.192764208E0,-7.850682819E0,6.161548517E0,3.545394892E-1,9.986170393E0
2.202788208E0,-7.808006916E0,5.900793689E0,4.146091050E-1,9.795725541E0
2.212812208E0,-7.779121671E0,5.756011952E0,4.381798160E-1,9.687022717E0
2.222836208E0,-7.596312566E0,5.713620223E0,4.104815555E-1,9.514090381E0
2.232860208E0,-6.899503385E0,5.672870393E0,3.359997225E-1,8.938540220E0
2.242884208E0,-6.086357417E0,5.582382976E0,3.695639098E-1,8.267002104E0
2.252908208E0,-5.850890628E0,5.522857736E0,6.431902134E-1,8.071466556E0
2.262932208E0,-5.964941154E0,5.489308752E0,1.103602313E0,8.181135105E0
2.272956208E0,-6.254773015E0,5.457778226E0,1.552343370E0,8.445075404E0
2.282980208E0,-6.402012922E0,5.323434938E0,1.663764403E0,8.490750319E0
2.293004208E0,-6.117216682E0,5.100139128E0,1.498094072E0,8.104075821E0
2.303027208E0,-5.861951221E0,4.883129367E0,1.107040476E0,7.709277732E0
2.313051208E0,-6.168746440E0,4.787902198E0,8.710035825E-1,7.857231531E0
2.323075208E0,-6.601685981E0,4.752751076E0,8.599979532E-1,8.179883683E0
2.333099208E0,-6.912282475E0,4.775910143E0,8.184406952E-1,8.441493463E0
2.343123208E0,-7.126102288E0,4.862174700E0,7.690562081E-1,8.661034816E0
2.353147208E0,-7.362063167E0,4.878491648E0,4.709265625E-1,8.844287798E0
2.363171208E0,-7.300967950E0,5.019973801E0,-1.005976908E-1,8.860834603E0
2.373195208E0,-7.009936824E0,5.177682563E0,-5.460352170E-1,8.731882126E0
2.383219208E0,-7.496290680E0,5.600048000E0,-9.500262170E-1,9.405182687E0
2.393243208E0,-8.847539533E0,6.401891885E0,-1.114609112E0,1.097750103E1
2.403267208E0,-9.720855689E0,7.293358968E0,-1.110019047E0,1.220328901E1
2.413291208E0,-9.377914737E0,7.889221233E0,-8.752219100E-1,1.228621626E1
2.423315208E0,-7.761681765E0,7.902265202E0,-2.973053344E-1,1.108051847E1
2.433339208E0,-4.985913185E0,6.578188360E0,-3.404468223E-2,8.254274737E0
2.443363208E0,-4.467418939E-1,3.723553705E0,-2.123544272E-1,3.756264756E0
2.453387208E0,5.571967331E0,-4.658049864E-1,-5.706648588E-1,5.620449502E0
2.463411208E0,1.144575507E1,-5.387778869E0,-1.068940165E0,1.269551509E1
2.473435208E0,1.728781231E1,-1.010360975E1,-2.846393005E0,2.022506706E1
2.483459208E0,2.312078414E1,-1.415935313E1,-5.111725971E0,2.758962999E1
2.493483208E0,2.731664085E1,-1.663975838E1,-5.987013223E0,3.254112404E1
2.503507208E0,2.882653460E1,-1.668419722E1,-3.693265128E0,3.351077053E1
2.513531208E0,3.095428726E1,-1.679360915E1,-1.248739561E0,3.523850960E1
2.523554208E0,3.395232780E1,-1.549364915E1,-3.881184407E-1,3.732243780E1
2.533578208E0,3.185199157E1,-1.284188540E1,1.269933379E0,3.436678801E1
2.543602208E0,2.675968186E1,-1.032499937E1,2.674167945E0,2.880689778E1
2.553626208E0,2.366391563E1,-9.312321256E0,1.627213458E0,2.548230865E1
2.563650208E0,2.170473119E1,-9.562252303E0,-6.683414999E-1,2.372717230E1
2.573674208E0,1.938889231E1,-9.832729297E0,-3.102469475E0,2.195989588E1
2.583698208E0,1.661732145E1,-9.845958037E0,-4.325793529E0,1.979370484E1
2.593722208E0,1.382572036E1,-9.527028676E0,-2.963036771E0,1.704976263E1
2.603746208E0,1.203218519E1,-9.254095852E0,-1.784110626E0,1.528380912E1
2.613770208E0,1.030887508E1,-8.361804897E0,-9.421969414E-1,1.330715679E1
2.623794208E0,8.712029725E0,-7.723907583E0,4.366338122E-1,1.165113125E1
2.633818208E0,6.697292050E0,-6.194975295E0,1.829301417E0,9.304718340E0
2.643842208E0,3.218624414E0,-4.129044077E0,1.797014261E0,5.535143031E0
2.653866208E0,-1.704925293E-1,-2.678876708E0,1.683574769E0,3.168575725E0
2.663890208E0,-3.973326293E0,-1.161636951E0,1.756318810E0,4.496818653E0
2.673914208E0,-6.591138189E0,2.278718412E-2,1.555938238E0,6.772338273E0
2.683938208E0,-7.429179847E0,5.519822739E-1,1.359264801E0,7.572648046E0
2.693962208E0,-8.908174574E0,1.196898001E0,5.882195158E-1,9.007449210E0
2.703986208E0,-1.032110863E1,1.833929050E0,1.145718638E0,1.054520034E1
2.714010208E0,-1.231974541E1,2.262614303E0,5.763223323E-1,1.253904693E1
2.724034208E0,-1.232720295E1,3.634453248E0,-3.562737733E-2,1.285186571E1
2.734057208E0,-1.276841864E1,4.423491731E0,1.344978883E0,1.357971877E1
2.744081208E0,-1.378661418E1,4.841127940E0,2.599858021E0,1.484137837E1
2.754105208E0,-1.424756306E1,5.005239987E0,2.196574095E0,1.526009234E1
2.764129208E0,-1.474644282E1,5.707712197E0,2.481629659E0,1.600606260E1
2.774153208E0,-1.505450104E1,5.670352582E0,2.403383096E0,1.626552028E1
2.784177208E0,-1.418276538E1,5.170835474E0,2.079755497E0,1.523856149E1
2.794201208E0,-1.307433210E1,4.226981431E0,2.420627120E0,1.395223880E1
2.804225208E0,-1.227609595E1,3.603258938E0,2.734596288E0,1.308296692E1
2.814249208E0,-1.111421677E1,3.307933617E0,2.708076241E0,1.190806098E1
2.824273208E0,-9.775373958E0,2.921335598E0,2.800531246E0,1.057993918E1
2.834297208E0,-8.817395967E0,2.533478967E0,2.849779420E0,9.606572232E0
2.844321208E0,-8.227783206E0,2.415123867E0,2.419454753E0,8.909713860E0
2.854345208E0,-7.711262394E0,2.469290572E0,1.583171937E0,8.250296784E0
2.864369208E0,-7.452029012E0,2.654411958E0,9.356786115E-1,7.965810298E0
2.874393208E0,-7.532235854E0,2.871223206E0,6.927111599E-1,8.090633375E0
2.884417208E0,-7.475101540E0,3.054105985E0,5.903053638E-1,8.096491019E0
2.894441208E0,-7.430916470E0,3.154243062E0,5.012130931E-1,8.088200260E0
2.904465208E0,-7.330452535E0,3.268461110E0,5.881752232E-1,8.047628376E0
2.914489208E0,-7.385209955E0,3.167413330E0,8.054120024E-1,8.076046172E0
2.924513208E0,-7.824610670E0,2.877019551E0,1.136277577E0,8.413851696E0
2.934537208E0,-8.330040482E0,2.619725105E0,1.457770358E0,8.853114055E0
2.944560208E0,-8.582116288E0,2.626551145E0,1.343285676E0,9.075015554E0
2.954584208E0,-8.811179792E0,2.723949385E0,1.186877481E0,9.298680967E0
2.964608208E0,-8.922835883E0,2.905740782E0,1.014582986E0,9.438734466E0
2.974632208E0,-8.930258338E0,3.083935556E0,1.131659154E0,9.515294265E0
2.984656208E0,-8.879286405E0,3.393214965E0,1.427400066E0,9.612133260E0
2.994680208E0,-8.713352950E0,3.896864008E0,1.391073654E0,9.645887965E0
3.004704208E0,-8.921916701E0,4.354434360E0,1.308879197E0,1.001373362E1
3.014728208E0,-9.519982197E0,4.387726067E0,1.151096980E0,1.054548365E1
3.024752208E0,-9.725982528E0,4.669530872E0,7.691416506E-1,1.081623010E1
3.034776208E0,-9.702103084E0,4.901832856E0,7.178753833E-1,1.089376494E1
3.044800208E0,-1.049891193E1,4.217481460E0,7.878993722E-1,1.134174092E1
3.054827958E0,-1.121321364E1,3.771506721E0,9.133877099E-1,1.186569426E1
3.064851958E0,-1.082241732E1,3.788246714E0,4.244096231E-1,1.147412975E1
3.074875958E0,-9.090520579E0,3.734712532E0,-3.507684736E-1,9.834057180E0
3.084899958E0,-7.798624474E0,3.711728881E0,3.935350820E-1,8.645828175E0
3.094923958E0,-6.261364582E0,3.427690440E0,1.604056145E0,7.316197393E0
3.104947958E0,-3.302622591E0,2.674961997E0,2.650482044E0,5.008771579E0
3.114971958E0,5.402534902E-2,-1.111120078E0,2.148071734E0,2.419032604E0
3.124995958E0,7.736702460E0,-7.301188974E0,-5.503551400E-1,1.065208037E1
3.135019958E0,1.921880967E1,-1.125391143E1,-4.690421219E0,2.275990375E1
3.145042958E0,3.178019711E1,-1.226647494E1,-7.927208254E0,3.497553383E1
3.155066958E0,4.216671854E1,-1.107093217E1,-6.509735591E0,4.407918272E1
3.165090958E0,4.762629187E1,-7.253147081E0,1.721748902E0,4.820618465E1
3.175114958E0,4.652104649E1,-3.526127146E0,1.094936388E1,4.792212337E1
3.185138958E0,3.586377558E1,4.050816518E-1,1.136892149E1,3.762481716E1
3.195162958E0,3.015968340E1,2.196527464E0,7.251474777E0,3.109686675E1
3.205186958E0,2.939657965E1,-2.497890181E0,1.159767158E0,2.952530119E1
3.215210958E0,2.746964377E1,-7.230316043E0,-4.537691946E0,2.876542103E1
3.225234958E0,2.589240412E1,-9.825576982E0,-7.304352318E0,2.864109141E1
3.235258958E0,2.349728168E1,-1.114567012E1,-6.040995888E0,2.669909811E1
3.245282958E0,2.035591419E1,-1.058482624E1,-3.215344126E0,2.316765476E1
3.255306958E0,1.777196644E1,-9.334046001E0,-1.367061478E0,2.012053834E1
3.265330958E0,1.548054320E1,-8.063616194E0,-1.055013120E0,1.748662851E1
3.275354958E0,1.241683960E1,-6.454889878E0,-2.262215230E0,1.417607585E1
3.285378958E0,9.016217086E0,-4.712545036E0,-3.377614886E0,1.071953980E1
3.295402958E0,6.261835867E0,-3.144020374E0,-3.483721969E0,7.825073246E0
3.305426958E0,3.496182386E0,-1.584579508E0,-2.626264046E0,4.650961872E0
3.315450958E0,4.913812923E-1,1.668834816E-1,-1.530051445E0,1.615661813E0
3.325474958E0,-2.498189558E0,1.223453569E0,-7.050864264E-1,2.869657919E0
3.335498958E0,-5.334035940E0,2.323038699E0,1.028291710E-1,5.818850578E0
3.345522958E0,-7.557345552E0,3.584032123E0,5.302407912E-1,8.380925566E0
3.355546958E0,-8.949626071E0,4.562931745E0,7.978806424E-1,1.007733925E1
3.365570958E0,-1.060224393E1,5.273897912E0,1.055618892E0,1.188847790E1
3.375594958E0,-1.231613066E1,5.868876078E0,1.243740191E0,1.369955001E1
3.385618958E0,-1.400051819E1,6.212090095E0,1.337605544E0,1.537510200E1
3.395641958E0,-1.516414802E1,5.901954362E0,1.432267288E0,1.633511066E1
3.405665958E0,-1.572745708E1,5.331093037E0,1.611345284E0,1.668442067E1
3.415689958E0,-1.554106188E1,4.706759216E0,1.589599489E0,1.631579031E1
3.425713958E0,-1.491547062E1,3.876353145E0,1.699343541E0,1.550435893E1
3.435737958E0,-1.383559046E1,3.239259823E0,1.703707902E0,1.431149846E1
3.445761958E0,-1.277474416E1,2.934896753E0,1.605804609E0,1.320554110E1
3.455785958E0,-1.191830248E1,2.776646832E0,1.571895436E0,1.233801268E1
3.465809958E0,-1.123691942E1,2.765214356E0,1.354432662E0,1.165114829E1
3.475833958E0,-1.070369312E1,3.031126428E0,8.822360837E-1,1.115953020E1
3.485857958E0,-1.004555976E1,3.333000630E0,5.770476794E-1,1.059977114E1
3.495881958E0,-9.428722363E0,3.751380020E0,1.758854163E-1,1.014911785E1
3.505905958E0,-8.490829557E0,4.002854147E0,-1.739289379E-1,9.388678244E0
3.515929958E0,-8.020888250E0,3.786309240E0,4.887863711E-1,8.883113086E0
3.525953958E0,-7.764983103E0,3.942728398E0,1.052171446E0,8.771951583E0
3.535977958E0,-7.360393787E0,4.302140957E0,1.173758449E0,8.605900441E0
3.546001958E0,-7.010673573E0,4.422942970E0,1.405384129E0,8.407560468E0
3.556025958E0,-6.791759081E0,4.457000370E0,1.657482154E0,8.290964408E0
3.566049958E0,-6.678595578E0,4.502081233E0,1.650580101E0,8.221726643E0
3.576073958E0,-6.819144516E0,4.583448163E0,1.601774561E0,8.371045976E0
3.586097958E0,-7.281281544E0,4.475514117E0,1.585518132E0,8.692591977E0
3.596121958E0,-7.768953363E0,4.379114580E0,1.436492486E0,9.033094239E0
3.606145958E0,-8.171544101E0,4.447789251E0,1.364103956E0,9.403070872E0
3.616168958E0,-8.543603602E0,4.478984731E0,7.085246623E-1,9.672459560E0
3.626192958E0,-8.633647799E0,4.195377231E0,5.488115481E-1,9.614689727E0
3.636216958E0,-9.046292825E0,3.959227486E0,7.992102993E-1,9.907049675E0
3.646240958E0,-9.350645662E0,3.754767312E0,4.232682467E-1,1.008523713E1
3.656264958E0,-9.842105892E0,3.315357826E0,4.128497509E-1,1.039370438E1
3.666288958E0,-1.040084009E1,2.673299634E0,3.227710549E-1,1.074375105E1
3.676312958E0,-1.101147184E1,2.145400287E0,8.163882494E-2,1.121881987E1
3.686336958E0,-1.148864440E1,1.870274903E0,-1.216186503E-1,1.164051843E1
3.696360958E0,-1.151777990E1,1.813833339E0,-4.376769555E-1,1.166793925E1
3.706384958E0,-1.112800451E1,1.915294371E0,-8.986141348E-1,1.132732732E1
3.716408958E0,-1.079195333E1,2.251178903E0,-8.904607773E-1,1.106015296E1
3.726432958E0,-1.096335393E1,2.554633316E0,-5.111542368E-1,1.126865384E1
3.736456958E0,-1.098606218E1,2.687265708E0,-9.394136667E-2,1.131033970E1
3.746480958E0,-1.061505868E1,2.839456745E0,3.780610836E-1,1.099476765E1
3.756504958E0,-9.744663212E0,2.828473043E0,6.818951996E-1,1.016974444E1
3.766528958E0,-8.344702376E0,2.555415089E0,8.187715014E-1,8.765534255E0
3.776552958E0,-5.638009293E0,1.725925129E0,3.633506584E-1,5.907452077E0
3.786576958E0,2.251715970E-1,-6.505156052E-1,-1.030789202E0,1.239515704E0
3.796600958E0,9.483200287E0,-3.462332854E0,-2.131427050E0,1.031803362E1
3.806624958E0,2.257897179E1,-8.457520308E0,-3.119355065E0,2.431193108E1
3.816648958E0,3.743991829E1,-1.466657921E1,-4.769684905E0,4.049204763E1
3.826671958E0,4.753418653E1,-1.986968313E1,-5.498245636E0,5.181248789E1
3.836695958E0,4.488726427E1,-1.911650445E1,3.151493701E0,4.889007208E1
3.846719958E0,3.578445927E1,-1.449842147E1,1.103466540E1,4.015589111E1
3.856743958E0,2.739134721E1,-1.037301319E1,6.021407715E0,2.990221824E1
3.866767958E0,2.105050494E1,-7.855630733E0,3.054586626E0,2.267521095E1
3.876791958E0,1.936990055E1,-7.773158095E0,-1.806942395E-1,2.087217489E1
3.886815958E0,1.868320355E1,-9.168729427E0,-5.144939325E0,2.143823908E1
3.896839958E0,1.923487080E1,-9.192779025E0,-9.417360638E0,2.330609625E1
3.906863958E0,2.111828118E1,-8.747220608E0,-9.818422329E0,2.487764228E1
3.916887958E0,2.277467576E1,-7.949269799E0,-7.788615210E0,2.534835839E1
3.926911958E0,2.300556827E1,-7.854602793E0,-4.239424306E0,2.467637888E1
3.936935958E0,2.112065048E1,-6.796739155E0,-1.270591775E0,2.222367978E1
3.946959958E0,1.761613464E1,-5.359969511E0,5.359522418E-1,1.842131150E1
3.956983958E0,1.480069095E1,-3.871557258E0,-5.296174049E-2,1.529876508E1
3.967007958E0,1.227608542E1,-2.277276927E0,-4.770111386E-1,1.249463097E1
3.977031958E0,8.606952336E0,-9.483575678E-1,-9.435289371E-1,8.710296060E0
3.987055958E0,5.607358189E0,3.751054622E-1,-3.364734200E-1,5.629954203E0
3.997079958E0,2.989162130E0,1.562875082E0,5.845074841E-1,3.423348911E0
4.007103958E0,3.260080004E-1,3.076352594E0,1.746136469E0,3.552354018E0
4.017127958E0,-2.209592044E0,4.407416566E0,2.838655677E0,5.689075833E0
4.027151958E0,-4.108712139E0,5.362166310E0,3.470356404E0,7.594584686E0
4.037175958E0,-6.090505432E0,5.724591354E0,3.898261492E0,9.222887034E0
4.047199958E0,-8.088838159E0,5.958276497E0,3.848535893E0,1.075832655E1
4.057219250E0,-1.013773410E1,5.794507681E0,3.937033210E0,1.232275141E1
4.067243250E0,-1.250565062E1,5.637764879E0,3.834890538E0,1.424366791E1
4.077266250E0,-1.485477418E1,5.364519814E0,3.357796333E0,1.614673915E1
4.087290250E0,-1.646008982E1,4.353643524E0,2.646766723E0,1.723061644E1
4.097314250E0,-1.716390981E1,2.842271887E0,2.053054479E0,1.751837156E1
4.107338250E0,-1.709701766E1,1.650658892E0,1.430640593E0,1.723599200E1
4.117362250E0,-1.627034650E1,5.966824834E-1,6.338628081E-1,1.629361799E1
4.127386250E0,-1.535365394E1,-5.299390018E-2,2.287827643E-1,1.535544982E1
4.137410250E0,-1.493336778E1,-3.284147143E-1,1.298491180E-1,1.493754298E1
4.147434250E0,-1.427733123E1,-2.194682229E-1,7.966239296E-2,1.427924016E1
4.157458250E0,-1.310831612E1,1.034173644E-1,9.433086433E-2,1.310906346E1
4.167482250E0,-1.178774351E1,7.027439587E-1,3.014134419E-1,1.181251862E1
4.177506250E0,-1.063934802E1,1.674803800E0,5.575156403E-1,1.078478176E1
4.187530250E0,-9.640003899E0,2.770208170E0,5.449243192E-1,1.004493260E1
4.197554250E0,-8.576270242E0,3.746896375E0,5.871236014E-1,9.377438767E0
4.207578250E0,-7.489024345E0,4.598480477E0,4.897032145E-1,8.801779228E0
4.217602250E0,-6.685598788E0,5.270453317E0,3.202941012E-1,8.519242785E0
4.227626250E0,-6.154169916E0,5.792071146E0,3.429322544E-1,8.458102509E0
4.237650250E0,-5.836318781E0,6.125571769E0,5.291859535E-1,8.477339452E0
4.247674250E0,-5.844046462E0,6.330824241E0,5.678546870E-1,8.634504824E0
4.257698250E0,-6.316234853E0,6.374688299E0,6.737501744E-1,8.999189570E0
4.267722250E0,-6.844077044E0,6.319825628E0,9.813534057E-1,9.367210954E0
4.277746250E0,-7.089552512E0,6.277498804E0,1.243612722E0,9.550671110E0
4.287769250E0,-7.128429480E0,6.267374350E0,1.425126668E0,9.598201608E0
4.297793250E0,-7.146592686E0,6.236488187E0,1.497401762E0,9.602592565E0
4.307817250E0,-7.086027811E0,6.136055242E0,1.424631994E0,9.481167670E0
4.317841250E0,-7.056451424E0,6.066909578E0,1.309822061E0,9.397687607E0
4.327865250E0,-7.462324789E0,5.947645090E0,8.910934460E-1,9.584092075E0
4.337889250E0,-8.095741966E0,5.794458565E0,1.908578332E-1,9.957570726E0
4.347913250E0,-8.737680876E0,5.687139353E0,-4.287295461E-1,1.043429107E1
4.357937250E0,-9.437339405E0,5.607283344E0,-9.219106114E-1,1.101612095E1
4.367961250E0,-1.003156386E1,5.653752337E0,-1.250011915E0,1.158273365E1
4.377985250E0,-1.042035108E1,5.757048079E0,-1.376115307E0,1.198419845E1
4.388009250E0,-1.063440127E1,5.836764339E0,-1.339507059E0,1.220461337E1
4.398033250E0,-1.064311830E1,5.972438453E0,-1.238409870E0,1.226701460E1
4.408057250E0,-1.021789475E1,6.115826215E0,-1.268959233E0,1.197576557E1
4.418081250E0,-9.540053349E0,6.034821228E0,-1.384518925E0,1.137315162E1
4.428105250E0,-9.165576024E0,5.524782640E0,-1.132174732E0,1.076163680E1
4.438129250E0,-8.532621946E0,5.058420998E0,-8.963752359E-1,9.959756465E0
4.448153250E0,-7.251871219E0,4.671789359E0,-9.769387579E-1,8.681570210E0
4.458177250E0,-5.063402826E0,3.637583848E0,-8.537777583E-1,6.292773704E0
4.468201250E0,-1.647254205E-1,1.274227574E0,-2.336260861E0,2.666253024E0
4.478225250E0,8.900768491E0,-2.177852919E0,-5.449210886E0,1.066117359E1
4.488249250E0,1.844480789E1,-6.908972366E0,-7.331850019E0,2.101668056E1
4.498273250E0,2.799847531E1,-1.041056518E1,-9.133969485E0,3.123657929E1
4.508297250E0,3.370496017E1,-1.154038056E1,-6.991299409E0,3.630541270E1
4.518321250E0,3.472743939E1,-7.042435648E0,1.749931129E-1,3.543475086E1
4.528345250E0,3.023735079E1,-3.670060745E0,8.356956385E0,3.158489273E1
4.538368250E0,2.226482428E1,-2.873322941E0,1.344058415E1,2.616539102E1
4.548392250E0,1.654925518E1,-2.946006755E0,9.996575296E0,1.955730862E1
4.558416250E0,1.461185044E1,-3.764694130E0,4.415934205E0,1.572194549E1
4.568440250E0,1.303244265E1,-5.922176957E0,2.170627514E-1,1.431655886E1
4.578464250E0,1.321450038E1,-7.318604321E0,-4.290159427E0,1.570319896E1
4.588488250E0,1.376312592E1,-8.495356472E0,-6.844081721E0,1.756235096E1
4.598512250E0,1.301933787E1,-9.232629554E0,-5.860502865E0,1.700264982E1
4.608536250E0,1.337052632E1,-9.069466510E0,-4.271039032E0,1.671131267E1
4.618560250E0,1.544102070E1,-8.997222991E0,-3.175636854E0,1.815102783E1
4.628584250E0,1.602707543E1,-9.083313301E0,-1.559599764E0,1.848799824E1
4.638608250E0,1.536843103E1,-9.211255642E0,4.599606943E-1,1.792337766E1
4.648632250E0,1.499151717E1,-8.825911267E0,1.274598287E0,1.744324790E1
4.658656250E0,1.422574476E1,-8.218056362E0,5.953015172E-1,1.643966691E1
4.668680250E0,1.304554509E1,-7.705761918E0,3.627963424E-2,1.515144645E1
4.678704250E0,1.245730350E1,-7.572713789E0,6.453919094E-2,1.457856543E1
4.688728250E0,1.251685154E1,-7.654047974E0,2.648074965E-1,1.467399557E1
4.698752250E0,1.289302514E1,-7.797576068E0,6.546835005E-1,1.508180693E1
4.708776250E0,1.297748817E1,-7.976051801E0,1.333206099E0,1.529084825E1
4.718800250E0,1.246398336E1,-7.939884433E0,1.913913990E0,1.490153390E1
4.728824250E0,1.124612528E1,-7.575882980E0,2.213530143E0,1.373932504E1
4.738848250E0,9.530384393E0,-7.022198435E0,2.432179756E0,1.208532151E1
4.748872250E0,7.574420006E0,-6.032979355E0,2.679143926E0,1.004721307E1
4.758896250E0,5.463266423E0,-4.721804979E0,2.894790409E0,7.779622984E0
4.768920250E0,2.751343591E0,-3.048403196E0,2.860639161E0,5.004588895E0
4.778943250E0,-3.026284933E-1,-1.167998576E0,2.771671436E0,3.022907082E0
4.788967250E0,-3.101885338E0,5.997993417E-1,2.943466140E0,4.318037149E0
4.798991250E0,-5.618511168E0,2.172324230E0,2.728343568E0,6.612905483E0
4.809015250E0,-7.915499790E0,3.470362543E0,2.059109856E0,8.884733339E0
4.819039250E0,-1.015176508E1,4.662711556E0,1.412481480E0,1.126029827E1
4.829063250E0,-1.282634934E1,5.758202319E0,3.426912761E-1,1.406376794E1
4.839087250E0,-1.550582422E1,6.938635876E0,-5.260459987E-1,1.699564583E1
4.849111250E0,-1.751693662E1,7.946546166E0,-4.119610472E-1,1.923955240E1
4.859135250E0,-1.853526665E1,7.422174883E0,4.245814582E-1,1.997060488E1
4.869159250E0,-1.807441016E1,6.197460362E0,7.628557476E-1,1.912262447E1
4.879183250E0,-1.684450682E1,4.976973377E0,6.357817912E-1,1.757588953E1
4.889207250E0,-1.565863302E1,3.970847950E0,3.074852272E-1,1.615719557E1
4.899231250E0,-1.425564157E1,3.329276538E0,-7.043080889E-2,1.463941117E1
4.909255250E0,-1.285644379E1,2.879992275E0,-5.245350782E-1,1.318550870E1
4.919279250E0,-1.152938546E1,2.812076573E0,-1.005999493E0,1.190993445E1
4.929303250E0,-1.041996984E1,3.001911107E0,-1.244654696E0,1.091496253E1
4.939327250E0,-9.643081289E0,3.226034006E0,-1.186277264E0,1.023736128E1
4.949351250E0,-8.959925941E0,3.672432668E0,-1.127980524E0,9.748814012E0
4.959375250E0,-8.260384356E0,4.201055754E0,-1.062834356E0,9.328045671E0
4.969399250E0,-7.397586172E0,4.617107367E0,-9.927250707E-1,8.776529193E0
4.979423250E0,-6.398668315E0,4.686550362E0,-5.136089345E-1,7.947987458E0
4.989447250E0,-5.635783258E0,4.810898420E0,5.387160379E-2,7.410107873E0
4.999471250E0,-5.256456252E0,5.103207747E0,5.164669438E-1,7.344371977E0
5.009494250E0,-5.273067023E0,5.244443733E0,1.114685125E0,7.520102979E0
5.019518250E0,-5.598862184E0,5.388114499E0,1.704794315E0,7.955209568E0
5.029542250E0,-5.947837463E0,5.639829531E0,1.885168054E0,8.410606769E0
5.039566250E0,-6.289470393E0,5.947116501E0,1.822447311E0,8.845730422E0
5.049590250E0,-6.527310567E0,6.298783838E0,1.507616848E0,9.195290623E0
5.059618958E0,-6.834484102E0,6.561124431E0,1.224348485E0,9.552882075E0
5.069642958E0,-7.402793117E0,6.751650106E0,1.089956008E0,1.007839914E1
5.079666958E0,-8.100388164E0,6.976879590E0,9.009261239E-1,1.072869075E1
5.089690958E0,-8.812846833E0,7.242939012E0,6.682548881E-1,1.142685431E1
5.099714958E0,-9.469781511E0,7.495025343E0,4.747681101E-1,1.208625548E1
5.109738958E0,-9.826048268E0,7.622045578E0,1.873704442E-1,1.243711828E1
5.119762958E0,-1.008331991E1,7.555014852E0,1.660972138E-1,1.260076101E1
5.129786958E0,-1.038287745E1,7.331849434E0,4.004863250E-1,1.271693947E1
5.139810958E0,-1.071159154E1,6.870285434E0,7.495136440E-1,1.274757961E1
5.149834958E0,-1.085329062E1,6.253480781E0,1.040293339E0,1.256909501E1
5.159858958E0,-1.056103275E1,5.606957070E0,1.244563479E0,1.202174358E1
5.169882958E0,-1.002325263E1,5.115227283E0,1.099912720E0,1.130667730E1
5.179906958E0,-9.497800199E0,4.792616808E0,7.285619009E-1,1.066340410E1
5.189930958E0,-8.986630760E0,4.446478305E0,4.212076879E-1,1.003534342E1
5.199954958E0,-8.258030267E0,4.264711760E0,2.039333403E-1,9.296473476E0
5.209978958E0,-7.370481988E0,4.159960938E0,8.148445845E-2,8.463800533E0
5.220002958E0,-6.813565688E0,3.928173509E0,3.311319155E-1,7.871776981E0
5.230026958E0,-5.972284087E0,3.425287235E0,8.984024656E-1,6.943190682E0
5.240050958E0,-3.035703628E0,1.844189013E0,7.342746305E-1,3.627077179E0
5.250074958E0,3.590443595E0,-7.683035253E-1,-1.160615004E0,3.850792477E0
5.260097958E0,1.130517163E1,-2.916171337E0,-3.477165486E0,1.218202121E1
5.270121958E0,1.769296471E1,-4.190103334E0,-5.363587183E0,1.895695212E1
5.280145958E0,2.314988925E1,-4.670910230E0,-5.148984429E0,2.417119805E1
5.290169958E0,2.787619833E1,-4.798482442E0,-3.184118825E0,2.846482882E1
5.300193958E0,3.440177988E1,-5.433431005E0,-1.220812674E0,3.484960567E1
5.310217958E0,4.124428987E1,-7.130285386E0,1.345663007E0,4.187771753E1
5.320241958E0,4.105926993E1,-7.850836017E0,5.835288502E0,4.220840989E1
5.330265958E0,3.280747806E1,-6.974107425E0,8.933619318E0,3.470991710E1
5.340289958E0,2.677473727E1,-6.993920131E0,7.154450759E0,2.858299565E1
5.350313958E0,2.654369741E1,-9.367102650E0,4.596138375E0,2.852078141E1
5.360337958E0,2.654021481E1,-1.272946449E1,1.397695041E0,2.946821711E1
5.370361958E0,2.353972311E1,-1.447931979E1,-3.259794660E0,2.782796304E1
5.380385958E0,1.892266340E1,-1.460427362E1,-7.151071653E0,2.494974597E1
5.390409958E0,1.530797783E1,-1.513958036E1,-7.939310237E0,2.294719429E1
5.400433958E0,1.331762071E1,-1.549064134E1,-5.956821125E0,2.127916137E1
5.410457958E0,1.137067331E1,-1.379881030E1,-3.941068958E0,1.830932555E1
5.420481958E0,9.654025522E0,-1.208099073E1,-1.897127949E0,1.558042491E1
5.430505958E0,8.874594600E0,-1.072914020E1,-3.501429677E-1,1.392822598E1
5.440529958E0,8.204670331E0,-8.952206447E0,-1.507856949E-1,1.214419004E1
5.450553958E0,6.849985070E0,-6.900220839E0,-6.963998759E-1,9.747836471E0
5.460577958E0,4.904486030E0,-4.545776891E0,-1.272005632E0,6.807060238E0
5.470601958E0,2.377870817E0,-2.219023018E0,-1.388849373E0,3.536556992E0
5.480625958E0,-3.534103918E-1,-3.482151407E-1,-9.063956094E-1,1.033298452E0
5.490649958E0,-2.564156091E0,1.430488126E0,-2.968865275E-2,2.936336860E0
5.500673958E0,-4.177528605E0,2.943779551E0,4.032333469E-1,5.126419844E0
5.510697958E0,-5.470521063E0,3.998068786E0,8.903086766E-1,6.834018163E0
5.520721958E0,-6.561494560E0,4.890924582E0,1.375093213E0,8.298508027E0
5.530744958E0,-7.613391699E0,5.648084046E0,1.608957281E0,9.615265471E0
5.540768958E0,-8.757912242E0,6.180445549E0,1.798477235E0,1.086892149E1
5.550792958E0,-9.938101970E0,6.771052921E0,1.704375654E0,1.214569573E1
5.560816958E0,-1.122488352E1,7.420033633E0,1.526950082E0,1.354202664E1
5.570840958E0,-1.274188398E1,7.809628349E0,1.343346341E0,1.500501521E1
5.580864958E0,-1.387231799E1,7.546653918E0,1.174791067E0,1.583582413E1
5.590888958E0,-1.447232886E1,6.592297107E0,9.738444114E-1,1.593282952E1
5.600912958E0,-1.502972755E1,5.498673652E0,7.943033159E-1,1.602370244E1
5.610936958E0,-1.542253648E1,4.585102632E0,4.482148806E-1,1.609592167E1
5.620960958E0,-1.527940249E1,3.924907546E0,5.106146850E-2,1.577553952E1
5.630984958E0,-1.491842931E1,3.500290055E0,-1.743557847E-1,1.532455427E1
5.641008958E0,-1.443758938E1,3.295753866E0,-2.826251686E-1,1.481167977E1
5.651032958E0,-1.381990121E1,3.318586659E0,-2.692818955E-1,1.421531567E1
5.661056958E0,-1.311484395E1,3.506254215E0,-1.604675511E-1,1.357640233E1
5.671080958E0,-1.233354133E1,3.814031474E0,1.945099676E-1,1.291127073E1
5.681104958E0,-1.142684634E1,4.170260223E0,7.002860085E-1,1.218418188E1
5.691128958E0,-1.057755464E1,4.541083039E0,1.076688749E0,1.156137345E1
5.701152958E0,-9.716367366E0,4.794499026E0,1.238642589E0,1.090546887E1
5.711176958E0,-8.785574834E0,5.004290400E0,1.450971361E0,1.021442928E1
5.721200958E0,-8.059957591E0,5.112698362E0,1.607452208E0,9.679178866E0
5.731224958E0,-8.031496854E0,5.212099274E0,1.686818805E0,9.721948274E0
5.741248958E0,-8.470990539E0,5.370004503E0,1.603187249E0,1.015700932E1
5.751272958E0,-8.545121539E0,5.431768641E0,1.534698812E0,1.024102110E1
5.761296958E0,-8.329755138E0,5.362698407E0,1.627873024E0,1.003958791E1
5.771320958E0,-8.184913175E0,5.384237210E0,1.816731073E0,9.964101856E0
5.781344958E0,-8.057318158E0,5.501049376E0,2.011794187E0,9.961387252E0
5.791368958E0,-7.958006709E0,5.619075424E0,2.148243642E0,9.975912497E0
5.801392958E0,-7.826706312E0,5.613362110E0,2.075301965E0,9.852616105E0
5.811415958E0,-7.722643415E0,5.601891042E0,1.980147886E0,9.743787262E0
5.821439958E0,-7.700056790E0,5.603987269E0,1.848789017E0,9.701214806E0
5.831463958E0,-7.869788012E0,5.537179906E0,1.720212253E0,9.775124289E0
5.841487958E0,-7.992557321E0,5.511766153E0,1.541036024E0,9.830327089E0
5.851511958E0,-8.070465038E0,5.505175756E0,1.388455271E0,9.867480634E0
5.861535958E0,-7.771712079E0,5.553368508E0,1.442877645E0,9.660295354E0
5.871559958E0,-7.208128198E0,5.402137291E0,1.602310166E0,9.149185609E0
5.881583958E0,-6.892690210E0,5.245746492E0,1.800907338E0,8.847050459E0
5.891607958E0,-7.352596525E0,5.287074612E0,2.058666637E0,9.287192360E0
5.901631958E0,-7.645351995E0,5.587116882E0,2.245386944E0,9.731857207E0
5.911655958E0,-6.439135140E0,5.801500951E0,2.524371636E0,9.027310053E0
5.921679958E0,-4.346809591E0,4.984173639E0,2.295640254E0,7.000478888E0
5.931703958E0,-6.494093120E-1,2.506209599E0,1.311523454E0,2.902225488E0
5.941727958E0,5.721814511E0,-1.535059585E0,-1.778500990E-1,5.926820386E0
5.951751958E0,1.520182280E1,-6.783310440E0,-1.547067427E0,1.671831734E1
5.961775958E0,2.786454600E1,-1.239556041E1,-2.876401500E0,3.063260563E1
5.971799958E0,3.988966308E1,-1.513373665E1,-3.627245970E0,4.281789485E1
5.981823958E0,4.353671649E1,-1.238743395E1,-3.385368294E-1,4.526597851E1
5.991847958E0,4.207832268E1,-8.606354166E0,5.932856897E0,4.335727577E1
6.001871958E0,4.008249022E1,-5.049214557E0,1.043105032E1,4.172418244E1
6.011895958E0,3.363034503E1,-2.844712223E0,1.200913547E1,3.582334195E1
6.021919958E0,3.023548904E1,-3.920402851E0,7.620585528E0,3.142654419E1
6.031943958E0,2.821472172E1,-7.328230008E0,3.496984624E0,2.935987701E1
6.041967958E0,2.513068968E1,-1.071147576E1,-9.226029217E-1,2.733383385E1
6.051987875E0,2.409826319E1,-1.330811197E1,-5.543779659E0,2.808141068E1
6.062011875E0,2.339915839E1,-1.550474600E1,-6.924428896E0,2.891133821E1
6.072035875E0,2.070439421E1,-1.602648369E1,-4.637671148E0,2.659000024E1
6.082059875E0,1.695330480E1,-1.493400980E1,-2.757027669E0,2.276050074E1
6.092083875E0,1.346149847E1,-1.322918625E1,-2.020854447E0,1.898175868E1
6.102107875E0,9.458515096E0,-1.195459966E1,-2.191786687E0,1.540064575E1
6.112131875E0,5.090821590E0,-1.060470093E1,-2.665331048E0,1.206151466E1
6.122155875E0,1.198418423E0,-8.961409380E0,-3.306440822E0,9.626817527E0
6.132179875E0,-1.761444479E0,-7.289408004E0,-3.916081467E0,8.460132963E0
6.142203875E0,-3.189760804E0,-5.352510803E0,-4.077244179E0,7.446332384E0
6.152227875E0,-4.434706106E0,-3.246405998E0,-3.580135539E0,6.559202743E0
6.162250875E0,-5.480573012E0,-1.495582986E0,-2.255450587E0,6.112324137E0
6.172274875E0,-6.171982874E0,1.442449629E-1,-3.806473070E-1,6.185391788E0
6.182298875E0,-7.301141612E0,1.691216496E0,1.238126864E0,7.596041088E0
6.192322875E0,-8.621128326E0,3.206677091E0,1.925855319E0,9.397635356E0
6.202346875E0,-9.376904338E0,4.665879285E0,1.944993256E0,1.065268808E1
6.212370875E0,-1.011278754E1,5.914373263E0,1.610916098E0,1.182553735E1
6.222394875E0,-1.110936125E1,7.119346415E0,1.077514375E0,1.323873249E1
6.232418875E0,-1.212728899E1,8.119192809E0,8.651224530E-1,1.461987917E1
6.242442875E0,-1.248332478E1,8.357910651E0,9.701828849E-1,1.505421279E1
6.252466875E0,-1.210755112E1,8.223463283E0,1.128530163E0,1.467963633E1
6.262490875E0,-1.203185892E1,7.984261876E0,1.527466975E0,1.452057926E1
6.272514875E0,-1.205076530E1,7.654068439E0,1.892638457E0,1.440096484E1
6.282538875E0,-1.161952379E1,7.225162307E0,1.999961761E0,1.382809281E1
6.292562875E0,-1.109624711E1,6.740679560E0,2.038960351E0,1.314232933E1
6.302586875E0,-1.074980777E1,6.336709464E0,1.714196638E0,1.259566290E1
6.312610875E0,-1.046742234E1,6.051512690E0,1.134232294E0,1.214389637E1
6.322634875E0,-1.033086178E1,5.830261066E0,7.243144103E-1,1.188458164E1
6.332658875E0,-1.026880295E1,5.933954419E0,6.365037762E-2,1.186019310E1
6.342682875E0,-1.011023113E1,6.148346674E0,-5.959786248E-1,1.184795894E1
6.352706875E0,-9.859476800E0,6.246505637E0,-7.251599177E-1,1.169418541E1
6.362730875E0,-9.649600350E0,6.246437809E0,-4.642887302E-1,1.150427469E1
6.372754875E0,-9.237686811E0,6.222301673E0,-1.733383691E-1,1.113920742E1
6.382778875E0,-8.790094732E0,6.183382021E0,1.704031400E-1,1.074844248E1
6.392802875E0,-8.424101132E0,6.171094682E0,5.649346606E-1,1.045786979E1
6.402826875E0,-8.092217265E0,6.244738609E0,1.015669545E0,1.027191925E1
6.412850875E0,-7.940965583E0,6.289693172E0,1.509350109E0,1.024193890E1
6.422874875E0,-7.900279487E0,6.400729458E0,1.787511367E0,1.032370817E1
6.432898875E0,-7.840700453E0,6.507487922E0,1.987725878E0,1.038147566E1
6.442922875E0,-7.666349346E0,6.551618028E0,2.253531969E0,1.033319977E1
6.452946875E0,-7.377948883E0,6.534726591E0,2.534344647E0,1.017642787E1
6.462970875E0,-7.050999480E0,6.471815228E0,2.692965574E0,9.942487094E0
6.472994875E0,-6.737394594E0,6.448850874E0,2.655909430E0,9.697113921E0
6.483018875E0,-6.331406039E0,6.395904336E0,2.541093503E0,9.351548048E0
6.493041875E0,-6.029032484E0,6.421792883E0,2.464787339E0,9.146793600E0
6.503065875E0,-6.034055827E0,6.355023528E0,2.457585908E0,9.101421991E0
6.513089875E0,-6.146260972E0,6.383182549E0,2.417674130E0,9.185134272E0
6.523113875E0,-6.375042640E0,6.498242889E0,2.237956448E0,9.374261484E0
6.533137875E0,-6.589831921E0,6.453788263E0,2.121884540E0,9.464653279E0
6.543161875E0,-6.628444594E0,6.299743951E0,1.806076276E0,9.321210388E0
6.553185875E0,-6.744856226E0,6.251064126E0,9.609665767E-1,9.246207059E0
6.563209875E0,-6.540556850E0,6.390951744E0,-5.246169392E-1,9.159605397E0
6.573233875E0,-5.754464194E0,6.650083970E0,-1.403654523E0,8.905488251E0
6.583257875E0,-4.729889925E0,5.873854982E0,-4.431078494E-1,7.554493737E0
6.593281875E0,-2.547031351E0,3.687797689E0,9.192279819E-1,4.575172191E0
6.603305875E0,1.894659255E0,1.990541312E-1,1.008098570E0,2.155369798E0
6.613329875E0,8.540692273E0,-4.050161922E0,-5.175592768E-1,9.466525430E0
6.623353875E0,1.498134067E1,-7.360337069E0,-3.342366700E0,1.702311797E1
6.633377875E0,2.102675121E1,-9.094189707E0,-6.110658445E0,2.371009699E1
6.643401875E0,2.436710179E1,-1.095234830E1,-4.845225084E0,2.715116552E1
6.653425875E0,2.394724598E1,-1.277493829E1,-5.878849089E-1,2.714802473E1
6.663449875E0,2.642489836E1,-1.345949521E1,6.315601015E-1,2.966196441E1
6.673473875E0,2.965073707E1,-1.213130953E1,-5.886812997E-1,3.204186988E1
6.683497875E0,2.741631716E1,-9.945605117E0,-1.263765736E0,2.919189291E1
6.693521875E0,2.389127175E1,-8.663152850E0,-1.331073035E0,2.544827771E1
6.703545875E0,2.257852506E1,-8.550726095E0,-9.216883441E-1,2.416100619E1
6.713569875E0,2.251884838E1,-9.000298626E0,-1.280451350E0,2.428463430E1
6.723593875E0,2.215472822E1,-9.390721893E0,-2.446347560E0,2.418681990E1
6.733617875E0,2.109403863E1,-1.025208809E1,-2.978075809E0,2.364175779E1
6.743641875E0,1.971317421E1,-1.151820090E1,-2.170375353E0,2.293444394E1
6.753665875E0,1.852763487E1,-1.292719276E1,-1.408428190E0,2.263557458E1
6.763689875E0,1.756788926E1,-1.369281900E1,-1.417193166E0,2.231888128E1
6.773713875E0,1.598596132E1,-1.335905174E1,-1.518835316E0,2.088832409E1
6.783737875E0,1.362272374E1,-1.227837753E1,-1.428725045E0,1.839506489E1
6.793761875E0,1.087605851E1,-1.092587211E1,-1.159811670E0,1.545989952E1
6.803785875E0,7.527942828E0,-9.093120836E0,-1.071763127E0,1.185341495E1
6.813809875E0,4.007107412E0,-6.932319714E0,-6.955449399E-1,8.037272497E0
6.823833875E0,1.311471414E0,-4.773820348E0,-3.595640747E-1,4.963728871E0
6.833857875E0,-8.327598685E-1,-2.632051328E0,-3.942683959E-1,2.788661105E0
6.843881875E0,-2.728229547E0,-4.730885705E-1,-4.690484369E-1,2.808390232E0
6.853905875E0,-4.590043237E0,1.521955682E0,-7.808963813E-2,4.836418511E0
6.863929875E0,-6.579740211E0,3.394875574E0,5.201286165E-1,7.422175907E0
6.873952875E0,-8.453345981E0,5.139866281E0,8.765609224E-1,9.932051284E0
6.883976875E0,-9.381833541E0,6.480993018E0,2.602420270E-1,1.140569143E1
6.894000875E0,-9.693472009E0,7.312271787E0,-4.051383698E-1,1.214894462E1
6.904024875E0,-1.053333800E1,7.821836751E0,-2.632323662E-1,1.312256190E1
6.914048875E0,-1.259696541E1,8.441459761E0,1.064298499E-1,1.516420482E1
6.924072875E0,-1.477223956E1,9.200105002E0,2.908065927E-1,1.740533143E1
6.934096875E0,-1.561600915E1,9.325785055E0,3.731716418E-1,1.819256073E1
6.944120875E0,-1.538348527E1,8.531389353E0,4.255883487E-1,1.759594694E1
6.954144875E0,-1.483870603E1,7.306832707E0,5.780534005E-1,1.655026123E1
6.964168875E0,-1.456702334E1,6.192137641E0,4.633989302E-1,1.583526054E1
6.974192875E0,-1.426028894E1,5.251480272E0,3.285060040E-1,1.520005927E1
6.984216875E0,-1.368490070E1,4.580140685E0,3.327849964E-1,1.443485163E1
6.994240875E0,-1.279537781E1,4.066131253E0,3.165705212E-1,1.342964384E1
7.004264875E0,-1.187147096E1,3.749905644E0,4.600823164E-1,1.245814155E1
7.014288875E0,-1.124783968E1,3.634444185E0,6.460670435E-1,1.183809464E1
7.024312875E0,-1.068985861E1,3.737945165E0,7.550054220E-1,1.134968476E1
7.034336875E0,-1.014403155E1,3.851957684E0,7.885497288E-1,1.087937336E1
7.044360875E0,-9.523309262E0,4.031422473E0,8.135348812E-1,1.037340954E1
7.054385083E0,-8.882478985E0,4.226096163E0,9.103495697E-1,9.878616201E0
7.064409083E0,-8.239146100E0,4.358842869E0,1.226266372E0,9.401423766E0
7.074433083E0,-7.828538244E0,4.426853588E0,1.678236262E0,9.148744213E0
7.084457083E0,-7.554640630E0,4.425152341E0,2.215492469E0,9.031222241E0
7.094481083E0,-7.175046406E0,4.397730946E0,2.755609134E0,8.855208078E0
7.104505083E0,-6.773521031E0,4.357226406E0,3.177992113E0,8.658270207E0
7.114529083E0,-6.345725870E0,4.470434933E0,3.458334821E0,8.497829431E0
7.124553083E0,-6.210721262E0,4.563276438E0,3.695754873E0,8.547230810E0
7.134577083E0,-6.497634779E0,4.700241910E0,3.789516145E0,8.869721774E0
7.144601083E0,-6.792397597E0,5.009590316E0,3.608557684E0,9.179016767E0
7.154625083E0,-7.287276109E0,5.263617922E0,3.351142201E0,9.593759471E0
7.164649083E0,-8.149361519E0,5.480263694E0,3.510242600E0,1.042915080E1
7.174673083E0,-9.367220764E0,5.798549277E0,3.959782387E0,1.170674486E1
7.184697083E0,-1.082887265E1,5.971099441E0,4.291382664E0,1.308947961E1
7.194721083E0,-1.173330243E1,6.672881094E0,4.341985638E0,1.417923013E1
7.204745083E0,-1.297005519E1,7.752566541E0,4.328977922E0,1.571829092E1
7.214768083E0,-1.521259571E1,7.259876057E0,5.396740311E0,1.769897383E1
7.224792083E0,-1.765533788E1,5.620134355E0,7.176746192E0,1.986963894E1
7.234816083E0,-1.725026851E1,4.324931649E0,6.699067265E0,1.900406008E1
7.244840083E0,-1.279505505E1,4.057842240E0,4.436919862E0,1.413738926E1
7.254864083E0,-6.660123639E0,2.585706589E0,2.127281374E0,7.454424961E0
7.264888083E0,-9.981273133E-1,1.216621975E0,2.790738037E0,3.203848616E0
7.274912083E0,6.999858563E0,5.522721496E-1,-1.727934086E0,7.231098162E0
7.284936083E0,1.484060755E1,-2.741794503E-1,-8.207923722E0,1.696139200E1
7.294960083E0,1.558533817E1,-1.516525958E0,-6.868476305E0,1.709908137E1
7.304984083E0,2.061942715E1,-4.023724614E0,-6.956784464E0,2.213025047E1
7.315008083E0,2.768726778E1,-7.930680916E0,-8.289835027E0,2.997001604E1
7.325032083E0,2.917593146E1,-1.044222201E1,-9.169924014E0,3.231659765E1
7.335056083E0,2.880869358E1,-1.154087056E1,-1.110544244E1,3.296154381E1
7.345080083E0,2.618165653E1,-1.194832209E1,-1.122500514E1,3.089081222E1
7.355104083E0,2.345894968E1,-1.121353056E1,-1.221419030E1,2.872720022E1
7.365128083E0,2.032346682E1,-1.064802646E1,-1.055984577E1,2.525735761E1
7.375152083E0,1.816706280E1,-9.777789443E0,-9.151622229E0,2.256988096E1
7.385176083E0,1.834086895E1,-9.200209082E0,-9.192503622E0,2.248407089E1
7.395200083E0,1.906345968E1,-9.165819268E0,-8.926024954E0,2.295869463E1
7.405224083E0,2.061095570E1,-9.757536442E0,-8.130632887E0,2.421008475E1
7.415248083E0,2.243881169E1,-1.042007158E1,-6.561106889E0,2.559543485E1
7.425272083E0,2.342463354E1,-1.054592705E1,-4.584414707E0,2.609495913E1
7.435296083E0,2.291331324E1,-1.048607846E1,-2.260835434E0,2.529998304E1
7.445320083E0,2.091367074E1,-9.756735958E0,-1.133479392E0,2.310541702E1
7.455344083E0,1.854736220E1,-8.548148643E0,-2.493814087E-1,2.042394871E1
7.465368083E0,1.638584304E1,-7.695062683E0,8.888203409E-1,1.812456464E1
7.475392083E0,1.408895733E1,-6.862764745E0,2.593869302E0,1.588472274E1
7.485416083E0,1.158544739E1,-5.563395313E0,3.817836549E0,1.340708151E1
7.495440083E0,8.648908448E0,-4.509291727E0,4.622413423E0,1.079370349E1
7.505464083E0,5.260633503E0,-4.176694792E0,5.294996420E0,8.553129914E0
7.515488083E0,1.734688790E0,-3.595887060E0,5.979208360E0,7.189609277E0
7.525512083E0,-1.117945533E0,-2.116006480E0,5.934521599E0,6.398893048E0
7.535536083E0,-2.657790479E0,-8.153942227E-3,5.327723286E0,5.953868669E0
7.545560083E0,-3.581000926E0,2.699581114E0,4.430628258E0,6.304107596E0
7.555584083E0,-4.973025922E0,5.885937084E0,2.619906954E0,8.138744045E0
7.565608083E0,-7.248431886E0,8.782874590E0,1.773936471E0,1.152499464E1
7.575632083E0,-1.076960293E1,1.133710211E1,1.397256500E0,1.569925340E1
7.585656083E0,-1.388476321E1,1.331923220E1,2.017753523E-2,1.924029633E1
7.595680083E0,-1.545983470E1,1.468528211E1,-2.119439088E0,2.142792621E1
7.605704083E0,-1.545572645E1,1.458643259E1,-3.226193050E0,2.149539061E1
7.615728083E0,-1.497425969E1,1.226970728E1,-3.092966580E0,1.960460692E1
7.625752083E0,-1.473066118E1,1.006444159E1,-1.543820468E0,1.790722606E1
7.635776083E0,-1.370269494E1,8.371215990E0,-1.033308987E-1,1.605776395E1
7.645799083E0,-1.268059463E1,5.788113166E0,1.175479796E0,1.398861991E1
7.655823083E0,-1.175088851E1,2.819157551E0,1.612277330E0,1.219140961E1
7.665847083E0,-1.103599740E1,5.691425362E-1,1.254380955E0,1.112162908E1
7.675871083E0,-1.066610488E1,-9.244392398E-1,9.159006970E-1,1.074519685E1
7.685895083E0,-1.017248995E1,-1.777923102E0,5.449922200E-1,1.034106275E1
7.695919083E0,-9.453679449E0,-2.104436595E0,6.381043784E-1,9.706074680E0
7.705943083E0,-8.333852282E0,-1.826710954E0,1.007417954E0,8.590975364E0
7.715967083E0,-7.278926870E0,-9.209211163E-1,1.943953621E0,7.590113818E0
7.725991083E0,-6.527321092E0,7.769370854E-2,3.139801608E0,7.243639354E0
7.736015083E0,-6.018151401E0,1.030674085E0,3.877606788E0,7.232998669E0
7.746039083E0,-5.829271132E0,1.776896331E0,4.255826916E0,7.433022618E0
7.756063083E0,-6.121252431E0,2.273950008E0,4.265497041E0,7.799682363E0
7.766087083E0,-6.781397815E0,2.709485420E0,3.450822026E0,8.076932600E0
7.776111083E0,-7.420397329E0,3.190873821E0,2.350425010E0,8.412399776E0
7.786135083E0,-8.012659464E0,3.488444765E0,1.517196926E0,8.869827793E0
7.796159083E0,-8.576912266E0,3.743479262E0,1.007588474E0,9.412348035E0
7.806183083E0,-9.057307810E0,4.013095545E0,8.985778821E-1,9.947220859E0
7.816207083E0,-9.381664556E0,4.371894731E0,8.203643560E-1,1.038277858E1
7.826231083E0,-9.935981770E0,4.517585710E0,6.987282372E-1,1.093711733E1
7.836255083E0,-1.052532380E1,4.520464295E0,5.531524479E-1,1.146834845E1
7.846279083E0,-1.084292000E1,4.574412460E0,-1.237001860E-1,1.176900443E1
7.856303083E0,-1.155005419E1,4.523477365E0,-6.903702271E-1,1.242345405E1
7.866327083E0,-1.198686576E1,4.475052479E0,-9.870637234E-1,1.283297862E1
7.876351083E0,-1.195776651E1,4.256676516E0,-1.093584863E0,1.273983527E1
7.886375083E0,-1.211700607E1,3.990165689E0,-9.566442418E-1,1.279290532E1
7.896399083E0,-1.234634673E1,3.899902806E0,-9.609711814E-1,1.298325788E1
7.906423083E0,-1.265597434E1,3.779334388E0,-1.005385462E0,1.324642801E1
7.916447083E0,-1.279128008E1,3.576145983E0,-1.159097067E0,1.333226058E1
7.926471083E0,-1.291094686E1,3.309031431E0,-1.503586947E0,1.341279283E1
7.936495083E0,-1.259432949E1,3.195008095E0,-1.976577576E0,1.314275736E1
7.946519083E0,-1.221652802E1,3.193168561E0,-2.047083303E0,1.279181115E1
7.956543083E0,-1.191071630E1,2.872698458E0,-1.189784424E0,1.230988003E1
7.966567083E0,-1.003023655E1,2.405595829E0,-2.883215261E-1,1.031870466E1
7.976591083E0,-4.932475482E0,1.087186693E0,-7.466776987E-2,5.051422033E0
7.986615083E0,4.191431530E0,-1.868914549E0,-7.365550447E-1,4.647951505E0
7.996639083E0,1.521679635E1,-4.641766537E0,-2.757173849E0,1.614617278E1
8.006663083E0,2.589073416E1,-6.629148599E0,-5.545300519E0,2.729516595E1
8.016687083E0,3.211172021E1,-7.804792702E0,-5.154188451E0,3.344612119E1
8.026711083E0,3.193853971E1,-9.005509665E0,4.325489839E-1,3.318669345E1
8.036735083E0,3.159249915E1,-9.679445708E0,7.329295371E0,3.384518049E1
8.046759083E0,3.375152038E1,-8.604407043E0,6.750989370E0,3.547924472E1
8.056786833E0,2.772713644E1,-7.245534006E0,3.328576627E0,2.885084540E1
8.066810833E0,2.111651065E1,-6.302787427E0,9.090081453E-1,2.205580302E1
8.076834833E0,2.039939175E1,-7.453469766E0,-2.167565181E0,2.182630830E1
8.086857833E0,2.135717970E1,-9.795214731E0,-4.313260607E0,2.388890064E1
8.096881833E0,2.290861909E1,-1.048073762E1,-5.372365608E0,2.575874613E1
8.106905833E0,2.464997137E1,-9.848735465E0,-5.320524779E0,2.707261832E1
8.116929833E0,2.520446283E1,-8.868901166E0,-3.722270241E0,2.697735440E1
8.126953833E0,2.508240805E1,-8.498846090E0,-1.334749764E0,2.651677083E1
8.136977833E0,2.391909748E1,-8.026106890E0,1.201135039E0,2.525835192E1
8.147001833E0,2.138163042E1,-7.118374023E0,1.087160527E0,2.256163306E1
8.157025833E0,1.931802172E1,-6.240792323E0,-9.931022161E-1,2.032534634E1
8.167049833E0,1.733748090E1,-5.408051165E0,-1.881859699E0,1.825860502E1
8.177073833E0,1.418790742E1,-4.223268742E0,-1.952142062E0,1.493129514E1
8.187097833E0,1.086165799E1,-2.830127220E0,-1.316150941E0,1.130121620E1
8.197121833E0,7.404222177E0,-1.490893665E0,3.032190621E-2,7.552892782E0
8.207145833E0,4.222866746E0,-2.388682611E-1,8.427901822E-1,4.312766732E0
8.217169833E0,1.069520647E0,8.822647351E-1,8.078402048E-1,1.604640543E0
8.227193833E0,-1.996477405E0,2.163125829E0,1.194849283E0,3.176901036E0
8.237217833E0,-4.704587853E0,3.426699630E0,1.094169585E0,5.922214476E0
8.247241833E0,-7.107256712E0,4.673195906E0,3.426216942E-1,8.512887147E0
8.257265833E0,-8.842448947E0,5.652523836E0,-2.659009624E-1,1.049812519E1
8.267289833E0,-1.023816821E1,6.211114780E0,-4.857556862E-1,1.198474004E1
8.277313833E0,-1.163655790E1,6.505765332E0,-7.311077785E-1,1.335174075E1
8.287337833E0,-1.249655001E1,6.380054289E0,-8.577596390E-1,1.405719056E1
8.297361833E0,-1.318961931E1,5.962061985E0,-1.081896279E0,1.451491441E1
8.307385833E0,-1.419306818E1,5.615182933E0,-1.372760174E0,1.532507534E1
8.317409833E0,-1.506129784E1,5.247019431E0,-1.740421400E0,1.604378297E1
8.327433833E0,-1.593528584E1,4.683085887E0,-1.854764872E0,1.671241398E1
8.337457833E0,-1.670004785E1,4.246769578E0,-1.474685329E0,1.729454674E1
8.347481833E0,-1.664592953E1,3.817791526E0,-9.957656229E-1,1.710713452E1
8.357505833E0,-1.601612477E1,3.441422042E0,-5.058016956E-1,1.638949278E1
8.367529833E0,-1.539613747E1,3.206206975E0,1.071057880E-1,1.572680145E1
8.377553833E0,-1.471444802E1,3.093423540E0,6.458087428E-1,1.504996076E1
8.387577833E0,-1.404781515E1,3.156053360E0,1.107266251E0,1.444049244E1
8.397601833E0,-1.329560477E1,3.173639445E0,1.399959083E0,1.374063241E1
8.407625833E0,-1.261803410E1,3.177726357E0,1.589116509E0,1.310870019E1
8.417649833E0,-1.189030017E1,3.236164892E0,1.477154024E0,1.241104287E1
8.427673833E0,-1.115264584E1,3.317317521E0,1.387094185E0,1.171794074E1
8.437697833E0,-1.038683016E1,3.472601150E0,1.448675745E0,1.104734633E1
8.447721833E0,-9.587751426E0,3.619896605E0,1.715160259E0,1.039088079E1
8.457745833E0,-8.847619055E0,3.762372785E0,2.074764022E0,9.835672710E0
8.467769833E0,-8.192291776E0,3.973911307E0,2.374051416E0,9.409661829E0
8.477793833E0,-7.891512172E0,4.088190751E0,2.675005267E0,9.281428832E0
8.487817833E0,-7.818969276E0,3.816118053E0,3.021878471E0,9.210363024E0
8.497841833E0,-7.675376862E0,3.568329425E0,3.039354630E0,8.993445470E0
8.507865833E0,-7.589549092E0,3.690318131E0,2.606572963E0,8.832549232E0
8.517889833E0,-7.529054384E0,3.831207962E0,2.505561143E0,8.811506738E0
8.527913833E0,-7.427622149E0,3.991946166E0,2.630172325E0,8.833063537E0
8.537937833E0,-7.273557957E0,4.125265022E0,2.960023116E0,8.870411135E0
8.547960833E0,-7.183602637E0,4.375942174E0,3.327000217E0,9.045548474E0
8.557984833E0,-7.263463324E0,4.640133702E0,3.544204398E0,9.319341449E0
8.568008833E0,-7.618849490E0,4.931144071E0,3.460672245E0,9.712842106E0
8.578032833E0,-8.075212977E0,5.253824421E0,3.007835798E0,1.009251266E1
8.588056833E0,-8.177283728E0,5.520041717E0,2.369715121E0,1.014664375E1
8.598080833E0,-8.155642598E0,5.946009039E0,1.024217005E0,1.014487802E1
8.608104833E0,-8.603635796E0,6.212170202E0,3.904079910E-1,1.061913490E1
8.618128833E0,-8.913593189E0,6.050429201E0,5.690826023E-1,1.078812737E1
8.628152833E0,-9.039609457E0,5.870139077E0,6.712790680E-1,1.079924477E1
8.638176833E0,-9.524993845E0,5.112567970E0,3.794047372E-1,1.081701470E1
8.648200833E0,-1.019208514E1,3.718128366E0,-4.267906094E-1,1.085749641E1
8.658224833E0,-1.014111613E1,2.183410697E0,-1.771451404E0,1.052366660E1
8.668248833E0,-8.760359886E0,9.931049936E-1,-3.015848823E0,9.318020551E0
8.678272833E0,-4.889890795E0,-2.506071313E-1,-3.210343587E0,5.854924583E0
8.688296833E0,2.877303141E0,-1.519607587E0,-3.295060387E0,4.630929014E0
8.698320833E0,1.403542841E1,-3.771866617E0,-3.508984280E0,1.495102669E1
8.708344833E0,2.734889175E1,-6.824098277E0,-4.725347807E0,2.858074718E1
8.718368833E0,3.828335342E1,-9.615343852E0,-5.243162023E0,3.981910012E1
8.728392833E0,4.200877356E1,-1.493731699E1,-3.681639036E-2,4.458544437E1
8.738416833E0,4.434304753E1,-1.776550410E1,2.775992528E0,4.785002753E1
8.748440833E0,4.333387424E1,-1.604953809E1,3.600324805E0,4.635056277E1
8.758464833E0,3.117582891E1,-1.163852841E1,3.804275687E0,3.349418106E1
8.768488833E0,2.252130187E1,-9.262375510E0,3.419719516E0,2.459054939E1
8.778512833E0,2.188533764E1,-1.006001174E1,3.698726428E-1,2.408959621E1
8.788536833E0,2.162596685E1,-1.115597057E1,-2.900787313E0,2.450617654E1
8.798560833E0,2.180850991E1,-1.139851892E1,-3.952586803E0,2.492308730E1
8.808584833E0,2.187152886E1,-1.097432565E1,-2.776551522E0,2.462740011E1
8.818608833E0,2.238126105E1,-1.016909505E1,-1.551898397E0,2.463208739E1
8.828632833E0,2.250220486E1,-9.374395882E0,-1.850871795E-1,2.437750560E1
8.838656833E0,2.104294800E1,-8.445631750E0,8.814239055E-1,2.269165627E1
8.848680833E0,1.836706565E1,-7.121364874E0,6.179974848E-1,1.970900452E1
8.858704833E0,1.512758188E1,-6.062169825E0,-3.402945024E-1,1.630059621E1
8.868728833E0,1.181078856E1,-4.700607069E0,-1.754479861E0,1.283232764E1
8.878752833E0,6.926918056E0,-2.274913044E0,-3.365391281E0,8.030148292E0
8.888776833E0,2.895523649E0,-6.816119751E-1,-3.481561423E0,4.579292744E0
8.898800833E0,1.534723955E0,1.283558853E-1,-2.140901878E0,2.637292874E0
8.908824833E0,-5.769137782E-1,1.592463309E0,-1.452985142E0,2.231576735E0
8.918848833E0,-2.956783174E0,3.211427661E0,-1.289209310E0,4.551691444E0
8.928872833E0,-4.925606173E0,4.320383100E0,-9.969315577E-1,6.627305548E0
8.938896833E0,-7.254828156E0,4.821787105E0,-1.528754532E-1,8.712378169E0
8.948920833E0,-1.001141202E1,5.752550985E0,-1.098037664E-1,1.154695936E1
8.958944833E0,-1.267151157E1,6.870853198E0,-7.142723291E-1,1.443211745E1
8.968968833E0,-1.444185200E1,7.328404255E0,-1.075536847E0,1.623050762E1
8.978992833E0,-1.564444767E1,7.215800915E0,-3.378076816E-1,1.723167548E1
8.989016833E0,-1.775027795E1,7.333649792E0,1.066044477E0,1.923515629E1
8.999040833E0,-2.029801974E1,7.541693140E0,2.654109657E0,2.181584376E1
9.009064833E0,-2.140117415E1,6.332726340E0,4.379002022E0,2.274399562E1
9.019088833E0,-2.021906829E1,3.694867265E0,5.737284490E0,2.133961574E1
9.029112833E0,-1.878722084E1,1.226085766E0,5.645912390E0,1.965551525E1
9.039136833E0,-1.787012365E1,-4.493369613E-1,4.152269218E0,1.835169100E1
9.049160833E0,-1.688359078E1,-1.353632470E0,3.163338990E0,1.723063180E1
9.059181208E0,-1.565592693E1,-1.736661933E0,2.230734991E0,1.590912383E1
9.069205208E0,-1.402725634E1,-1.518125318E0,1.064699618E0,1.414928303E1
9.079229208E0,-1.233518323E1,-6.219195778E-1,3.627530730E-1,1.235617736E1
9.089252208E0,-1.065068226E1,5.035265440E-1,-1.003510479E-1,1.066305031E1
9.099276208E0,-9.340228847E0,1.668380487E0,9.361395914E-2,9.488526331E0
9.109300208E0,-8.372415839E0,2.472925786E0,8.770402479E-1,8.773933469E0
9.119324208E0,-7.727460351E0,3.630533275E0,1.805209719E0,8.726579941E0
9.129348208E0,-7.498970459E0,4.422127576E0,2.642960186E0,9.098077203E0
9.139372208E0,-7.493234925E0,4.453902515E0,3.696509163E0,9.468368247E0
9.149396208E0,-7.635091885E0,4.128309375E0,4.537306030E0,9.794116213E0
9.159420208E0,-7.366486586E0,3.970076995E0,3.858379973E0,9.214864729E0
9.169444208E0,-6.733203310E0,4.023695085E0,2.589104991E0,8.260121888E0
9.179468208E0,-6.627440042E0,4.114121398E0,1.408938067E0,7.926793985E0
9.189492208E0,-6.687586257E0,4.157539898E0,3.443519219E-1,7.882101636E0
9.199516208E0,-6.600103725E0,3.923366220E0,7.771336249E-1,7.717389996E0
9.209540208E0,-6.643140986E0,3.296550842E0,1.887193530E0,7.652455098E0
9.219564208E0,-6.493831750E0,3.438498434E0,2.092878696E0,7.640239754E0
9.229588208E0,-6.251787427E0,3.626121843E0,1.713715997E0,7.427679865E0
9.239612208E0,-6.664949931E0,3.352106407E0,1.720733825E0,7.656311112E0
9.249636208E0,-8.327941332E0,3.052785099E0,1.741363971E0,9.039162139E0
9.259660208E0,-1.040626631E1,3.114145780E0,1.165020297E0,1.092453911E1
9.269684208E0,-1.116673413E1,3.570596683E0,5.784344928E-1,1.173795971E1
9.279708208E0,-1.075154205E1,3.925255748E0,2.909833248E-1,1.144936507E1
9.289732208E0,-1.023469263E1,4.096193835E0,1.518605228E-1,1.102500788E1
9.299756208E0,-1.025859020E1,4.586886910E0,1.355514689E-1,1.123817506E1
9.309780208E0,-1.097899991E1,4.806051078E0,4.393774720E-1,1.199289867E1
9.319804208E0,-1.130840281E1,5.084475607E0,1.468809901E0,1.248556241E1
9.329828208E0,-1.009286140E1,5.443867115E0,1.661646541E0,1.158717436E1
9.339852208E0,-8.666403902E0,4.876345427E0,1.096696678E0,1.000440128E1
9.349876208E0,-7.520123931E0,3.412573926E0,1.416613122E0,8.378825543E0
9.359900208E0,-1.745145950E0,4.085011035E-3,-5.232329763E-2,1.745934937E0
9.369924208E0,1.141588983E1,-4.182691696E0,-5.565979782E0,1.337152128E1
9.379948208E0,2.796762072E1,-6.399602700E0,-9.888481328E0,3.034674260E1
9.389972208E0,4.136053720E1,-6.823826382E0,-9.103079814E0,4.289667476E1
9.399996208E0,4.365881104E1,-8.370529527E0,2.836968170E-1,4.445489882E1
9.410020208E0,3.828289968E1,-1.147240668E1,1.590446166E1,4.301335169E1
9.420044208E0,3.959188544E1,-1.028378585E1,1.263349180E1,4.281213332E1
9.430068208E0,3.385665332E1,-8.514138313E0,5.051785578E0,3.527441088E1
9.440092208E0,2.679661521E1,-6.605635775E0,-8.181254572E-1,2.761090980E1
9.450116208E0,2.283535114E1,-6.029667492E0,-3.488936516E0,2.387431318E1
9.460140208E0,2.071306914E1,-6.574087708E0,-1.825351038E0,2.180783732E1
9.470164208E0,2.142668205E1,-6.780850516E0,-6.966005816E-1,2.248483688E1
9.480188208E0,2.218025249E1,-7.010167204E0,4.826911604E-1,2.326669370E1
9.490212208E0,2.122001806E1,-7.014766039E0,1.775977149E0,2.241986181E1
9.500236208E0,1.888084177E1,-7.091119566E0,2.844971547E0,2.036821116E1
9.510260208E0,1.591962115E1,-7.247813836E0,3.065586993E0,1.775846183E1
9.520284208E0,1.349203263E1,-7.362298225E0,2.634400447E0,1.559417985E1
9.530308208E0,1.081470368E1,-7.294770486E0,1.637381035E0,1.314733846E1
9.540332208E0,8.278556333E0,-7.279889907E0,1.407781342E0,1.111364658E1
9.550356208E0,6.216242788E0,-6.611295295E0,1.562864557E0,9.208335653E0
9.560380208E0,4.656375806E0,-5.541185249E0,1.679356296E0,7.430128342E0
9.570404208E0,2.775897219E0,-4.591651806E0,2.463991533E0,5.904246434E0
9.580428208E0,-7.030218476E-1,-3.485828721E0,3.769843773E0,5.182370467E0
9.590452208E0,-3.795243493E0,-2.016514936E0,4.205971216E0,6.013351771E0
9.600476208E0,-5.617219518E0,-6.165293951E-1,3.672288242E0,6.739359357E0
9.610500208E0,-6.723902144E0,5.149627476E-1,2.969968060E0,7.368633316E0
9.620524208E0,-7.915165914E0,1.456382959E0,2.178129492E0,8.337574638E0
9.630548208E0,-9.514163048E0,2.037516381E0,7.212961507E-1,9.756589549E0
9.640572208E0,-1.124918805E1,2.513022190E0,-6.371219730E-1,1.154406500E1
9.650596208E0,-1.286270499E1,2.970938990E0,-2.021650984E0,1.335525106E1
9.660620208E0,-1.349088540E1,3.250146169E0,-3.467523428E0,1.430353655E1
9.670644208E0,-1.384044599E1,3.595578620E0,-4.393401960E0,1.495954918E1
9.680668208E0,-1.450103635E1,3.982119920E0,-4.636651978E0,1.573645054E1
9.690692208E0,-1.480746436E1,3.651932330E0,-4.255873109E0,1.583382665E1
9.700715208E0,-1.405050136E1,2.856359291E0,-3.729804963E0,1.481508765E1
9.710739208E0,-1.303773321E1,2.146714741E0,-2.667830733E0,1.347991811E1
9.720764208E0,-1.278796354E1,1.451234778E0,-1.547844961E0,1.296278975E1
9.730787208E0,-1.253116319E1,1.035843901E0,-9.126358310E-1,1.260697932E1
9.740811208E0,-1.170489782E1,7.937177172E-1,-1.751287866E-1,1.173308531E1
9.750835208E0,-1.065554948E1,5.440135422E-1,8.805381254E-1,1.070570095E1
9.760859208E0,-9.857180014E0,5.963850063E-1,1.808805757E0,1.003949457E1
9.770883208E0,-9.399511428E0,7.852272677E-1,2.683990683E0,9.806691742E0
9.780907208E0,-9.040759020E0,9.513050030E-1,3.459995722E0,9.726863588E0
9.790931208E0,-8.540514518E0,1.252378283E0,3.855938176E0,9.453946203E0
9.800955208E0,-7.931521161E0,1.692442803E0,3.792340350E0,8.952945655E0
9.810979208E0,-7.401522517E0,2.248918224E0,3.420169752E0,8.457997983E0
9.821003208E0,-7.031409554E0,2.739073501E0,3.093173572E0,8.155425599E0
9.831027208E0,-6.989964489E0,3.287751952E0,2.938248085E0,8.264515610E0
9.841051208E0,-7.198420651E0,3.764814290E0,2.768842553E0,8.582399174E0
9.851075208E0,-7.877018094E0,4.063166422E0,2.794035866E0,9.293189541E0
9.861099208E0,-8.162904255E0,4.405704501E0,2.749337411E0,9.674817529E0
9.871123208E0,-8.176307827E0,4.645860465E0,2.463898562E0,9.721462096E0
9.881147208E0,-8.189435411E0,4.732200744E0,2.036348984E0,9.675086223E0
9.891171208E0,-8.237802410E0,4.928563110E0,1.559226712E0,9.725395149E0
9.901195208E0,-8.072568866E0,5.255367501E0,8.392111015E-1,9.668998445E0
9.911219208E0,-7.875101377E0,5.584820096E0,4.135139215E-1,9.663251573E0
9.921243208E0,-8.258785728E0,5.872145841E0,2.682573903E-1,1.013713966E1
9.931267208E0,-9.037910841E0,6.057406098E0,-1.048674830E-1,1.088057895E1
9.941291208E0,-9.718166555E0,6.091148626E0,-3.937351298E-1,1.147605682E1
9.951315208E0,-9.966216552E0,5.879649573E0,-4.867982447E-1,1.158156829E1
9.961339208E0,-9.828414052E0,5.692198949E0,-5.288666224E-1,1.137007263E1
9.971363208E0,-9.437903661E0,5.676693302E0,-5.248297048E-1,1.102607449E1
9.981387208E0,-9.164907687E0,5.775618836E0,-3.491898715E-1,1.083859951E1
9.991411208E0,-9.540678416E0,5.980538601E0,6.868603628E-2,1.126037763E1
1.000143521E1,-1.020337728E1,6.365223995E0,-3.758005500E-2,1.202607154E1
1.001145921E1,-1.059489515E1,6.813020142E0,-1.228612275E0,1.265616588E1
1.002148321E1,-1.033999163E1,7.226390222E0,-2.442528158E0,1.284920567E1
1.003150721E1,-9.292965803E0,7.416662128E0,-2.158138300E0,1.208402464E1
1.004153121E1,-7.148044549E0,7.364033679E0,-3.140294309E-1,1.026752879E1
1.005155521E1,-4.471573386E0,6.841523564E0,1.637519760E0,8.335639399E0
1.006157871E1,-6.714848900E-1,5.269787319E0,2.645184467E0,5.934521987E0
1.007160271E1,4.608084821E0,2.739928071E0,2.315091602E0,5.839631896E0
1.008162671E1,8.626561559E0,1.123829001E-1,-1.539478143E-1,8.628666999E0
1.009165071E1,1.248902464E1,-1.901096454E0,-4.552470199E0,1.342813796E1
1.010167471E1,1.856381042E1,-4.205467186E0,-6.079926649E0,1.998165458E1
1.011169871E1,2.481062479E1,-6.109875503E0,-4.493796898E0,2.594401456E1
1.012172271E1,3.181940620E1,-5.962688806E0,-4.040573366E0,3.262444639E1
1.013174671E1,4.060362682E1,-5.169922723E0,-2.983344151E0,4.104001650E1
1.014177071E1,4.848572966E1,-5.622362729E0,1.016941899E0,4.882121582E1
1.015179471E1,5.125241225E1,-6.727751366E0,7.872882943E0,5.228818878E1
1.016181871E1,4.406936510E1,-6.690468349E0,1.172655006E1,4.609103257E1
1.017184271E1,3.238101957E1,-7.146010888E0,7.175456296E0,3.392761520E1
1.018186671E1,2.592730265E1,-8.011770687E0,3.681184781E-1,2.713943631E1
1.019189071E1,2.442174753E1,-9.969506196E0,-5.160848429E0,2.687837723E1
1.020191471E1,2.203619347E1,-1.250442387E1,-8.254055915E0,2.664739908E1
1.021193871E1,1.886873219E1,-1.389496309E1,-6.784954092E0,2.439538185E1
1.022196271E1,1.694939652E1,-1.498834330E1,-4.165504975E0,2.300617110E1
1.023198671E1,1.528761432E1,-1.475247948E1,-2.357937659E0,2.137537538E1
1.024201071E1,1.290656613E1,-1.402400880E1,-6.121380265E-1,1.906900587E1
1.025203471E1,9.907292991E0,-1.313177982E1,-3.464651056E-1,1.645351433E1
1.026205871E1,6.215942241E0,-1.182752563E1,-1.433204012E0,1.343809414E1
1.027208271E1,2.820945337E0,-1.053418818E1,-2.299940296E0,1.114524915E1
1.028210671E1,-6.266355765E-1,-9.288711369E0,-2.617048835E0,9.670665729E0
1.029213071E1,-3.925177395E0,-7.497808617E0,-2.480213463E0,8.819048161E0
1.030215471E1,-5.703581139E0,-5.291013297E0,-1.210281181E0,7.873400793E0
1.031217871E1,-6.461106053E0,-3.157637370E0,1.920903897E-1,7.193988039E0
1.032220271E1,-7.152418267E0,-1.289713047E0,1.435225979E0,7.408125297E0
1.033222671E1,-7.856773864E0,1.813139713E-1,2.300487596E0,8.188651506E0
1.034225071E1,-8.706791205E0,1.541647350E0,2.546677594E0,9.201655091E0
1.035227471E1,-9.695515026E0,2.460694288E0,2.047998684E0,1.021040286E1
1.036229871E1,-1.065571087E1,3.551771865E0,1.399814072E0,1.131895476E1
1.037232271E1,-1.185824690E1,4.808298163E0,6.641770399E-1,1.281323074E1
1.038234671E1,-1.337823061E1,5.884570590E0,2.366602063E-2,1.461525865E1
1.039237071E1,-1.461133588E1,6.367372847E0,-1.467124879E-1,1.593913730E1
1.040239471E1,-1.522993855E1,6.110559627E0,-1.254122142E-1,1.641053611E1
1.041241871E1,-1.547032928E1,5.602054179E0,-3.735610298E-1,1.645763188E1
1.042244271E1,-1.513847641E1,4.747187158E0,-5.923930756E-1,1.587640335E1
1.043246671E1,-1.383699145E1,3.497331071E0,-2.694899833E-1,1.427467274E1
1.044249071E1,-1.212388240E1,2.518598388E0,5.190444696E-1,1.239359792E1
1.045251471E1,-1.115989990E1,1.920542832E0,1.465533267E0,1.141839036E1
1.046253871E1,-1.096304052E1,1.709077985E0,2.139710215E0,1.129989225E1
1.047256271E1,-1.100915517E1,1.724744138E0,2.450623044E0,1.140972363E1
1.048258671E1,-1.092243746E1,2.021930481E0,2.637345690E0,1.141680494E1
1.049261071E1,-1.095701438E1,2.326225870E0,2.799007169E0,1.154564559E1
1.050263471E1,-1.101649577E1,2.544138733E0,2.908124399E0,1.167445966E1
1.051265871E1,-1.090943325E1,2.823250895E0,3.071393863E0,1.167989468E1
1.052268271E1,-1.068630701E1,3.079343153E0,3.016221875E0,1.152289487E1
1.053270671E1,-1.019789142E1,3.295240481E0,2.867018766E0,1.109393510E1
1.054273071E1,-9.775186847E0,3.399351325E0,3.043737702E0,1.078768773E1
1.055275471E1,-9.577040496E0,3.399730225E0,3.280597883E0,1.067896028E1
1.056277871E1,-9.134933690E0,3.353069151E0,3.562267617E0,1.036242427E1
1.057280271E1,-8.798184355E0,3.511487473E0,3.571188129E0,1.012383212E1
1.058282671E1,-8.560148883E0,3.796885391E0,3.266397336E0,9.917753734E0
1.059285071E1,-8.365878652E0,4.307712476E0,2.875836074E0,9.839448436E0
1.060287471E1,-8.044992812E0,4.845858045E0,2.748599492E0,9.785655252E0
1.061289871E1,-7.653439279E0,5.350261964E0,2.532786949E0,9.675507511E0
1.062292271E1,-7.041466765E0,6.104839296E0,2.014949491E0,9.534743756E0
1.063294671E1,-7.107062584E0,6.756843603E0,1.853993039E0,9.980108428E0
1.064297071E1,-7.582649378E0,7.430102538E0,1.782800850E0,1.076482114E1
1.065299471E1,-7.922332261E0,8.198605015E0,6.934797764E-1,1.142196948E1
1.066301871E1,-7.995241778E0,8.520563818E0,-2.861253119E-1,1.168784696E1
1.067304271E1,-8.333840003E0,8.719133508E0,-5.452235870E-1,1.207366751E1
1.068306671E1,-9.004526163E0,8.701810547E0,-6.810953736E-1,1.254060960E1
1.069309071E1,-9.149949340E0,8.515600702E0,-3.786960912E-1,1.250521647E1
1.070311371E1,-8.701011817E0,8.440216643E0,-2.217743647E-1,1.212411017E1
1.071313771E1,-8.206458410E0,8.320771476E0,-3.243076301E-1,1.169129475E1
1.072316171E1,-7.854460121E0,8.078938238E0,-5.544996464E-1,1.128136768E1
1.073318571E1,-7.651024379E0,7.574355102E0,-6.970799071E-1,1.078864911E1
1.074320971E1,-6.486010514E0,6.546019319E0,-1.006533270E0,9.269941237E0
1.075323371E1,-3.248523567E0,4.681725240E0,-1.370590857E0,5.860885247E0
1.076325771E1,8.948362488E-1,1.252860386E0,-1.030272966E0,1.852526233E0
1.077328171E1,5.855081912E0,-3.256097465E0,-1.854923331E0,6.951610997E0
1.078330571E1,1.417118322E1,-6.494413548E0,-4.705891782E0,1.628328157E1
1.079332971E1,2.529274643E1,-9.577303036E0,-6.193666688E0,2.774543679E1
1.080335371E1,3.475293792E1,-1.016310049E1,-2.629257236E0,3.630383313E1
1.081337771E1,3.788323547E1,-4.222101345E0,4.129822342E0,3.834085421E1
1.082340171E1,3.969898772E1,9.914831221E-3,9.938881989E0,4.092421165E1
1.083342571E1,3.943510054E1,4.397164643E-1,1.499304212E1,4.219137136E1
1.084344971E1,3.430591829E1,-1.156114110E0,1.145370962E1,3.618591015E1
1.085347371E1,2.794033527E1,-3.037091172E0,2.894856482E0,2.825360954E1
1.086349771E1,2.382190506E1,-6.831057048E0,-4.389897138E0,2.516779089E1
1.087352171E1,2.506276375E1,-9.827596611E0,-5.911209919E0,2.756204246E1
1.088354571E1,2.539215611E1,-1.159780957E1,-2.249740196E0,2.800592991E1
1.089356971E1,2.441155700E1,-1.065813161E1,-4.076053832E-1,2.663993294E1
1.090359371E1,2.286187879E1,-1.065911862E1,2.719203785E0,2.537077809E1
1.091361771E1,2.117991785E1,-1.162642351E1,4.019806979E0,2.449329484E1
1.092364171E1,1.932616104E1,-1.159683309E1,5.103355535E-1,2.254434476E1
1.093366571E1,1.728753866E1,-1.133911940E1,-1.669270141E0,2.074177149E1
1.094368971E1,1.417783735E1,-1.001993375E1,-3.053472732E0,1.762764420E1
1.095371371E1,1.045952275E1,-7.978773680E0,-3.972960257E0,1.374215626E1
1.096373771E1,7.205984609E0,-6.275351121E0,-2.865376575E0,9.975802163E0
1.097376171E1,4.658302463E0,-4.745264009E0,-1.758659450E0,6.878240721E0
1.098378571E1,1.938147921E0,-3.172907959E0,-7.782614797E-1,3.798612011E0
1.099380971E1,-1.251242754E0,-2.170677654E0,5.519999983E-1,2.565570873E0
1.100383371E1,-4.543011158E0,-1.973771205E0,4.616446924E-1,4.974719990E0
1.101385771E1,-7.357896441E0,-1.900050680E0,-1.451892883E-1,7.600652114E0
1.102388171E1,-9.722465428E0,-1.789775701E0,-3.121454215E-1,9.890756584E0
1.103390571E1,-1.158644142E1,-1.253332841E0,-6.578819275E-1,1.167258654E1
1.104392971E1,-1.272051240E1,-4.825470266E-1,-5.971515763E-1,1.274366028E1
1.105395371E1,-1.338487655E1,5.128327531E-1,-2.573009141E-1,1.339716841E1
1.106397808E1,-1.366616388E1,1.837222494E0,-1.673298069E-1,1.379012041E1
1.107400208E1,-1.424380330E1,3.079226208E0,-3.160327236E-1,1.457626300E1
1.108402608E1,-1.565987263E1,4.118710878E0,6.744065244E-2,1.619258899E1
1.109405008E1,-1.624499648E1,4.764269506E0,-1.438882828E-2,1.692921680E1
1.110407408E1,-1.558247069E1,4.484561806E0,1.973505449E-1,1.621615351E1
1.111409808E1,-1.439485793E1,3.603398101E0,9.704131921E-1,1.487071331E1
1.112412208E1,-1.311000245E1,2.909296181E0,1.311228755E0,1.349279398E1
1.113414608E1,-1.200510791E1,2.389828812E0,1.401353059E0,1.232062044E1
1.114417008E1,-1.101164024E1,2.022700998E0,1.551942397E0,1.130292286E1
1.115419408E1,-1.031353648E1,1.857624306E0,1.574532530E0,1.059712015E1
1.116421808E1,-9.938558053E0,1.785257557E0,1.447944843E0,1.020091295E1
1.117424208E1,-9.663192202E0,1.756903385E0,1.248463718E0,9.900639106E0
1.118426608E1,-9.525420107E0,1.922905107E0,1.049196456E0,9.774047548E0
1.119429008E1,-9.336014174E0,2.120418643E0,7.021020806E-1,9.599493904E0
1.120431408E1,-9.435251949E0,2.161151370E0,6.217543940E-1,9.699542933E0
1.121433808E1,-9.506724220E0,2.330569912E0,9.614706067E-1,9.835333611E0
1.122436208E1,-8.905198342E0,2.322798086E0,1.638112668E0,9.347799825E0
1.123438608E1,-7.971507345E0,2.260627711E0,2.269174733E0,8.590955766E0
1.124441008E1,-7.419937153E0,2.327238607E0,2.773747197E0,8.256220710E0
1.125443408E1,-7.444077968E0,2.520959201E0,3.004463417E0,8.414055652E0
1.126445808E1,-7.658111204E0,2.573156710E0,2.685850682E0,8.513612427E0
1.127448208E1,-7.801057500E0,2.630498015E0,2.364815154E0,8.565533763E0
1.128450608E1,-8.022768130E0,2.659756605E0,2.174012321E0,8.727281550E0
1.129453008E1,-8.340870695E0,2.752475612E0,2.025587769E0,9.013836683E0
1.130455408E1,-8.458522521E0,2.871488962E0,2.005605640E0,9.155026274E0
1.131457808E1,-8.507385364E0,3.085314329E0,1.768706721E0,9.220796804E0
1.132460208E1,-8.549968296E0,3.175881268E0,1.439143614E0,9.233597026E0
1.133462608E1,-8.651078349E0,3.361950195E0,1.004199793E0,9.335538707E0
1.134465008E1,-8.798733993E0,3.490430480E0,5.672477460E-1,9.482752492E0
1.135467408E1,-8.784882524E0,3.815643551E0,6.087504056E-1,9.597076311E0
1.136469808E1,-9.102502109E0,4.487988566E0,6.318255651E-1,1.016842119E1
1.137472208E1,-9.847478313E0,5.100159009E0,6.279862833E-1,1.110760180E1
1.138474608E1,-1.038167643E1,5.540700515E0,2.663289785E-1,1.177070511E1
1.139477008E1,-1.040720654E1,5.812063361E0,-2.207265437E-1,1.192219563E1
1.140479408E1,-1.013785806E1,5.708003388E0,-1.009346366E-1,1.163476070E1
1.141481808E1,-9.084771597E0,5.511679029E0,2.441740246E-1,1.062879587E1
1.142484208E1,-7.310470260E0,5.162927699E0,5.788383892E-1,8.968492166E0
1.143486608E1,-5.393736597E0,5.119943647E0,8.300825746E-1,7.482997695E0
1.144489008E1,-4.146188114E0,4.801176254E0,1.667971036E0,6.559290867E0
1.145491408E1,-2.997966868E0,3.259513993E0,2.924322356E0,5.306966935E0
1.146493808E1,-9.457964873E-1,1.002393588E0,2.379628344E0,2.749900899E0
1.147496208E1,4.080594633E0,-1.547743219E0,-1.063937433E-1,4.365556237E0
1.148498608E1,1.132504398E1,-4.480339239E0,-2.115160096E0,1.236139001E1
1.149501008E1,1.942104498E1,-6.906011921E0,-3.436144345E0,2.089681977E1
1.150503408E1,2.746657983E1,-7.837357600E0,-3.878430076E0,2.882497878E1
1.151505808E1,3.120237526E1,-6.260861721E0,-1.904565315E-1,3.182487840E1
1.152508208E1,3.215525858E1,-4.007022627E0,3.449221058E0,3.258702212E1
1.153510608E1,3.506834141E1,-3.715165290E0,5.564412729E0,3.570089231E1
1.154513008E1,3.595805843E1,-3.177388388E0,4.620047640E0,3.639261742E1
1.155515408E1,3.234531414E1,-3.199555767E0,3.332668508E0,3.267358540E1
1.156517808E1,2.891839202E1,-4.828561689E0,2.066314795E0,2.939146240E1
1.157520208E1,2.796210797E1,-7.314444028E0,2.536042678E-1,2.890406353E1
1.158522608E1,2.741132598E1,-9.721657342E0,-1.375825285E0,2.911673589E1
1.159525008E1,2.618377790E1,-1.189808047E1,-1.710800575E0,2.881113296E1
1.160527408E1,2.413274772E1,-1.312370014E1,-1.205288901E0,2.749679508E1
1.161529808E1,2.092966872E1,-1.238529270E1,-6.480352163E-1,2.432830568E1
1.162532208E1,1.722708781E1,-1.073630304E1,1.860373155E-1,2.029963958E1
1.163534608E1,1.443914942E1,-8.511738616E0,6.950094080E-1,1.677563019E1
1.164537008E1,1.150707833E1,-6.659441854E0,1.042921078E0,1.333599272E1
1.165539408E1,7.468665510E0,-5.247716419E0,1.028232872E0,9.185682062E0
1.166541808E1,3.303734146E0,-3.790838785E0,5.845824015E-1,5.062297363E0
1.167544208E1,7.140444338E-2,-2.828896089E0,7.033416903E-1,2.915894581E0
1.168546608E1,-1.813415701E0,-1.881317809E0,9.050109887E-1,2.765298916E0
1.169549008E1,-3.182110891E0,-6.901363385E-1,7.434827527E-1,3.339892887E0
1.170551408E1,-5.174438528E0,5.347394197E-1,4.932711490E-1,5.225330301E0
1.171553808E1,-7.660650650E0,1.909563953E0,1.687367200E-1,7.896864881E0
1.172556208E1,-9.840626546E0,3.341890737E0,7.168335557E-2,1.039284865E1
1.173558608E1,-1.150360742E1,4.213690710E0,1.435842276E-1,1.225188922E1
1.174561008E1,-1.278908621E1,4.978446291E0,1.709631570E-1,1.372497293E1
1.175563408E1,-1.428370236E1,5.840481999E0,-2.205628216E-1,1.543321195E1
1.176565808E1,-1.603075450E1,6.494166795E0,-3.064489178E-1,1.729893647E1
1.177568208E1,-1.668837681E1,5.816255815E0,4.923543421E-1,1.767973883E1
1.178570608E1,-1.608307071E1,4.408978942E0,1.432319913E0,1.673785527E1
1.179573008E1,-1.513607905E1,3.157074868E0,1.942443870E0,1.558335968E1
1.180575408E1,-1.395676816E1,1.740008148E0,2.483507785E0,1.428239534E1
1.181577808E1,-1.267042983E1,8.934579138E-1,2.669652725E0,1.297941080E1
1.182580208E1,-1.202198765E1,7.089579409E-1,2.573591158E0,1.231479516E1
1.183582608E1,-1.166848253E1,1.045935026E0,2.669809431E0,1.201562928E1
1.184585008E1,-1.095848437E1,1.645747670E0,2.511284398E0,1.136236835E1
1.185587408E1,-1.005872184E1,2.270826425E0,1.928029314E0,1.049055932E1
1.186589808E1,-9.113617081E0,3.002668614E0,1.252859509E0,9.676967090E0
1.187592208E1,-7.994700910E0,3.936665712E0,3.507594835E-1,8.918274037E0
1.188594608E1,-7.082707762E0,4.559883007E0,3.456056745E-1,8.430701368E0
1.189597008E1,-6.612146650E0,5.190442357E0,6.401601863E-1,8.430360624E0
1.190599408E1,-6.166870653E0,5.669849721E0,4.847610748E-1,8.391214621E0
1.191601808E1,-5.628430384E0,5.887971915E0,4.733424859E-1,8.159135676E0
1.192604208E1,-5.389840597E0,5.892604664E0,6.438743377E-1,8.011725504E0
1.193606608E1,-5.590547444E0,6.086436355E0,3.065262473E-1,8.269999187E0
1.194609008E1,-5.906136290E0,6.485222894E0,-2.680913293E-1,8.775672899E0
1.195611408E1,-6.663375860E0,6.479339426E0,-2.530965833E-1,9.297659659E0
1.196613808E1,-7.672641535E0,5.994102387E0,-1.971936934E-1,9.738458651E0
1.197616208E1,-8.265632817E0,5.573321546E0,-1.041025119E-1,9.969625683E0
1.198618608E1,-8.185672728E0,5.320361642E0,5.613911748E-2,9.762921571E0
1.199621008E1,-8.037049370E0,4.885245474E0,2.849545531E-1,9.409621938E0
1.200623408E1,-8.155556644E0,4.661243905E0,6.454180026E-1,9.415777361E0
1.201625808E1,-8.429306908E0,4.661381607E0,7.526513330E-1,9.661686057E0
1.202628208E1,-8.723623000E0,4.714897956E0,9.950885153E-1,9.966045461E0
1.203630608E1,-8.776029840E0,4.887956828E0,9.874123637E-1,1.009384985E1
1.204633008E1,-8.994363703E0,5.130638205E0,1.072371384E0,1.041018766E1
1.205635771E1,-9.551753628E0,5.315316664E0,1.121479736E0,1.098846238E1
1.206638171E1,-1.013707219E1,5.361199180E0,8.709171899E-1,1.150048634E1
1.207640571E1,-1.010243797E1,5.470155612E0,7.484764210E-1,1.151269179E1
1.208642971E1,-9.845637610E0,5.458670511E0,1.950760511E-1,1.125929475E1
1.209645371E1,-9.638011168E0,5.321269714E0,-6.197463870E-2,1.100958725E1
1.210647771E1,-9.111194580E0,5.396015257E0,1.577251339E-1,1.059035998E1
1.211650171E1,-8.221393953E0,5.701593670E0,6.112924826E-1,1.002363045E1
1.212652571E1,-6.897920544E0,5.802945213E0,1.506457930E0,9.139195614E0
1.213654971E1,-6.404722522E0,5.586832123E0,2.523469995E0,8.865724142E0
1.214657371E1,-7.299292138E0,5.244809768E0,2.285166721E0,9.274140508E0
1.215659771E1,-6.800348641E0,4.285754719E0,1.256621608E0,8.135817907E0
1.216662171E1,-3.263373156E0,2.668930010E0,1.825968504E-1,4.219731432E0
1.217664571E1,3.012577305E0,-2.561697337E-1,-8.052072036E-1,3.128834223E0
1.218666971E1,1.280903574E1,-4.110497879E0,-2.280166183E0,1.364429358E1
1.219669371E1,2.359786783E1,-7.438938265E0,-3.900324390E0,2.504814761E1
1.220671771E1,3.140338850E1,-8.828778157E0,-4.315410043E0,3.290505884E1
1.221674171E1,3.642525797E1,-8.556870350E0,-2.201636907E0,3.748155084E1
1.222676571E1,4.231125236E1,-8.495072297E0,-7.618418404E-1,4.316235319E1
1.223678971E1,5.004515868E1,-7.651652369E0,-2.230606206E0,5.067584529E1
1.224681371E1,5.129502208E1,-5.551377531E0,-1.815747571E0,5.162648566E1
1.225683771E1,4.582118155E1,-4.563521436E0,1.796359373E0,4.608289611E1
1.226686171E1,3.925877190E1,-7.013178520E0,3.626522670E0,4.004481878E1
1.227688571E1,3.433841244E1,-1.110795324E1,8.327674699E-1,3.609995423E1
1.228690971E1,3.287371064E1,-1.517012622E1,-2.630430772E0,3.630058879E1
1.229693371E1,3.029421847E1,-1.803455203E1,-3.677406310E0,3.544725740E1
1.230695771E1,2.686210637E1,-1.876657783E1,-2.705158188E0,3.287970624E1
1.231698171E1,2.250627452E1,-1.785188969E1,-9.260597956E-1,2.874160652E1
1.232700571E1,1.781961073E1,-1.631673948E1,4.551542465E-1,2.416571288E1
1.233702971E1,1.426624959E1,-1.522126596E1,1.207356477E0,2.089666300E1
1.234705371E1,1.033935077E1,-1.412907625E1,8.285843718E-1,1.752767874E1
1.235707771E1,6.064880594E0,-1.309758765E1,-9.169241059E-1,1.446272203E1
1.236710171E1,2.969002685E0,-1.133555494E1,-3.473470631E0,1.222189760E1
1.237712571E1,-1.119201515E0,-8.704490910E0,-3.583577210E0,9.479599129E0
1.238714971E1,-5.934982359E0,-5.420054914E0,-1.228397098E0,8.130803792E0
1.239717371E1,-9.144657610E0,-2.092758389E0,5.149257640E-1,9.395187546E0
1.240719771E1,-1.261103498E1,3.787875270E-1,2.861080041E0,1.293705772E1
1.241722171E1,-1.728696563E1,3.005198704E0,4.791352347E0,1.818866288E1
1.242724571E1,-1.973762493E1,5.620479925E0,3.661296061E0,2.084631193E1
1.243726971E1,-1.925250250E1,8.004029558E0,-6.721498646E-2,2.085012852E1
1.244729371E1,-2.405423131E1,1.078938991E1,-3.100668533E0,2.654488885E1
1.245731771E1,-3.140925677E1,8.973395587E0,-4.579998890E0,3.298544572E1
1.246734171E1,-3.364593370E1,3.195206900E0,-6.108642325E0,3.434492267E1
1.247736571E1,-3.216304005E1,-2.795832716E0,-4.984266025E0,3.266681395E1
1.248738971E1,-2.795080413E1,-6.554741610E0,-1.969031160E0,2.877653858E1
1.249741371E1,-2.164569068E1,-7.723351513E0,2.779751703E-1,2.298398037E1
1.250743771E1,-1.686379562E1,-6.708702891E0,2.977288774E0,1.839180648E1
1.251746171E1,-1.261183137E1,-4.839706189E0,5.055650003E0,1.442361410E1
1.252748571E1,-9.417819645E0,-3.208310803E0,6.809928135E0,1.205668720E1
1.253750971E1,-7.388900133E0,-1.857075691E0,7.755543358E0,1.087166170E1
1.254753371E1,-4.835214066E0,-6.930393349E-1,7.579671975E0,9.017262658E0
1.255755771E1,-7.773925835E-1,8.484843470E-1,6.530016074E0,6.630639098E0
1.256758171E1,2.611634898E0,3.120659578E0,5.432431716E0,6.787522920E0
1.257760571E1,3.549583252E0,5.448782870E0,5.003704509E0,8.205232162E0
1.258762971E1,2.767914600E0,7.293519182E0,5.121778504E0,9.332169540E0
1.259765371E1,1.158987724E0,8.105381101E0,5.313261952E0,9.760697102E0
1.260767771E1,-6.220209539E-1,8.031038432E0,5.073906180E0,9.519927116E0
1.261770171E1,-2.310113282E0,7.996245745E0,3.842564424E0,9.167435342E0
1.262772571E1,-3.705301037E0,7.691595284E0,2.529283297E0,8.904334214E0
1.263774971E1,-4.247377104E0,7.249822354E0,1.621259969E0,8.557372279E0
1.264777371E1,-4.497871823E0,7.156920623E0,6.718193507E-1,8.479605237E0
1.265779771E1,-5.217068238E0,7.395561866E0,4.466936544E-2,9.050642610E0
1.266782171E1,-6.016204863E0,7.634156331E0,-8.921564698E-2,9.720237819E0
1.267784571E1,-7.141194536E0,7.577982130E0,-1.067686960E-2,1.041261670E1
1.268786971E1,-8.538765616E0,7.426747406E0,-2.329437160E-1,1.131907055E1
1.269789371E1,-1.009818236E1,6.898668988E0,-6.200552662E-1,1.224538237E1
1.270791771E1,-1.119294836E1,6.070136071E0,-7.143989213E-1,1.275300007E1
1.271794171E1,-1.143679480E1,5.306149399E0,-9.519220304E-1,1.264364078E1
1.272796571E1,-1.129330997E1,4.738180399E0,-1.326312232E0,1.231861631E1
1.273798971E1,-1.111971900E1,4.563104238E0,-1.153404218E0,1.207478415E1
1.274801371E1,-1.087171988E1,4.623544859E0,-8.728853627E-1,1.184623945E1
1.275803771E1,-1.085462847E1,4.695698331E0,-2.381420369E-1,1.182916961E1
1.276806171E1,-1.112046628E1,4.741143183E0,2.276473081E-1,1.209111377E1
1.277808571E1,-1.112398396E1,4.870968620E0,6.475242428E-1,1.216094742E1
1.278810971E1,-1.147403104E1,5.171372248E0,5.416661775E-1,1.259721721E1
1.279813371E1,-1.187936236E1,5.392672988E0,4.639422096E-2,1.304616130E1
1.280815771E1,-1.138860555E1,5.465392470E0,-7.443856359E-1,1.265404921E1
1.281818171E1,-1.078366198E1,5.947731628E0,-1.397275211E0,1.239416214E1
1.282820571E1,-9.762028273E0,6.460267562E0,-1.352080911E0,1.178390325E1
1.283822971E1,-8.931416087E0,6.735917587E0,-2.337470869E-1,1.118916515E1
1.284825371E1,-9.198299966E0,6.806992832E0,1.638498584E0,1.155978163E1
1.285827771E1,-8.720635073E0,5.736067100E0,3.437223741E0,1.098937891E1
1.286830171E1,-6.898308799E0,4.168830287E0,3.003429337E0,8.601534632E0
1.287832571E1,-3.937712072E0,1.829171316E0,1.022290932E0,4.460551851E0
1.288834971E1,4.857988971E0,-2.006673049E0,-2.278712565E0,5.728815281E0
1.289837371E1,2.000488946E1,-6.082187183E0,-6.599235413E0,2.192574996E1
1.290839771E1,3.538544761E1,-6.080675678E0,-1.003363378E1,3.727973077E1
1.291842171E1,4.441811175E1,-3.679335306E0,-9.290796486E0,4.552828856E1
1.292844571E1,4.736743797E1,-4.718234670E0,1.252050254E0,4.761831106E1
1.293846971E1,4.690441801E1,-8.838747659E0,1.777650271E1,5.093281789E1
1.294849371E1,4.485375738E1,-1.053724862E1,1.242766513E1,4.772148384E1
1.295851771E1,3.973642861E1,-1.030764483E1,1.008620142E0,4.106395762E1
1.296854171E1,3.714833869E1,-1.155163762E1,-4.547895337E0,3.916787908E1
1.297856571E1,3.407544444E1,-1.287453976E1,-6.642049896E0,3.702710513E1
1.298858971E1,3.049134449E1,-1.389036250E1,-3.999839907E0,3.374408064E1
1.299861371E1,2.846745007E1,-1.440411524E1,-8.051721203E-1,3.191430011E1
1.300863771E1,2.630579525E1,-1.402941046E1,3.622221458E-1,2.981527170E1
1.301866171E1,2.349069772E1,-1.349459254E1,-2.440172096E-1,2.709199977E1
1.302868571E1,1.878376630E1,-1.298225482E1,-1.893538343E0,2.291188129E1
1.303870971E1,1.128792586E1,-1.204894916E1,-2.738656887E0,1.673602962E1
1.304873371E1,3.601218844E0,-1.006135660E1,-3.166767213E0,1.114576549E1
1.305875708E1,4.628655910E-3,-7.200993426E0,-3.831550024E0,8.156905255E0
1.306878108E1,-1.886344514E0,-4.530716218E0,-3.751282956E0,6.177200732E0
1.307880508E1,-3.845562292E0,-1.653789492E0,-2.633285383E0,4.945458617E0
1.308882908E1,-6.614257495E0,4.156854312E-1,-1.200537454E0,6.735167909E0
1.309885308E1,-1.053737725E1,1.336491650E0,7.106577265E-1,1.064554197E1
1.310887708E1,-1.374957675E1,1.896749049E0,2.890233089E0,1.417751618E1
1.311890108E1,-1.533115152E1,3.142926653E0,3.322627670E0,1.599881400E1
1.312892508E1,-1.564972420E1,4.949385045E0,2.088024337E0,1.654600029E1
1.313894908E1,-1.644411522E1,5.778434270E0,3.640450737E0,1.780595714E1
1.314897308E1,-1.669423923E1,6.211756219E0,4.641071888E0,1.840714772E1
1.315899708E1,-1.519738360E1,6.140065262E0,4.307212247E0,1.694735811E1
1.316902108E1,-1.368946620E1,5.125749933E0,3.582004309E0,1.505010140E1
1.317904508E1,-1.205256157E1,4.517032564E0,2.082042636E0,1.303850931E1
1.318906908E1,-1.059214462E1,3.839584976E0,7.470928236E-1,1.129132800E1
1.319909308E1,-9.663896207E0,3.514434469E0,6.712077320E-1,1.030498226E1
1.320911708E1,-9.048815898E0,3.695457249E0,1.534221679E0,9.894003720E0
1.321914108E1,-8.879778741E0,4.147146472E0,2.111582769E0,1.002537162E1
1.322916608E1,-8.550969340E0,4.571661345E0,2.414135249E0,9.992357735E0
1.323919008E1,-7.999235426E0,4.917593733E0,2.089939885E0,9.619685247E0
1.324921408E1,-7.531555238E0,5.100592872E0,1.538923864E0,9.225435415E0
1.325923808E1,-7.312112743E0,5.274577358E0,1.064121913E0,9.078574476E0
1.326926208E1,-6.975844048E0,5.836419353E0,5.133503048E-1,9.109869351E0
1.327928608E1,-6.440868255E0,6.741619792E0,3.378988981E-2,9.323913505E0
1.328931008E1,-6.081518261E0,7.442284042E0,2.205126087E-1,9.613588401E0
1.329933408E1,-6.233934124E0,7.617423354E0,1.296821361E0,9.928183059E0
1.330935808E1,-6.624242200E0,7.245010096E0,2.320474402E0,1.008738606E1
1.331938208E1,-6.785379184E0,6.669272193E0,2.916308162E0,9.951151469E0
1.332940608E1,-6.740457950E0,6.021137574E0,2.741357131E0,9.444729217E0
1.333943008E1,-6.851462077E0,5.679246197E0,2.594518343E0,9.269730060E0
1.334945408E1,-7.389355046E0,5.748376658E0,2.557213107E0,9.704933852E0
1.335947808E1,-7.854160743E0,6.101729162E0,2.764816160E0,1.032294280E1
1.336950208E1,-8.291490959E0,6.535810665E0,3.262683184E0,1.105037307E1
1.337952608E1,-8.708775165E0,6.920915304E0,3.543248963E0,1.167460692E1
1.338955008E1,-8.784642203E0,7.274713951E0,3.115077242E0,1.182349813E1
1.339957408E1,-8.634308535E0,7.357002987E0,2.499309300E0,1.161564995E1
1.340959808E1,-8.356868677E0,7.200701650E0,2.358532906E0,1.128051576E1
1.341962208E1,-8.037664497E0,6.983572898E0,2.635904936E0,1.096915383E1
1.342964608E1,-7.585092929E0,6.973977617E0,2.794467391E0,1.067609697E1
1.343967008E1,-7.149756029E0,6.766081619E0,3.069930890E0,1.031132132E1
1.344969408E1,-7.565153924E0,6.481942606E0,3.315414544E0,1.049948129E1
1.345971808E1,-8.422071564E0,6.291547909E0,2.655291964E0,1.084275979E1
1.346974208E1,-8.970619914E0,6.193182539E0,1.553397038E0,1.101092975E1
1.347976608E1,-8.947393604E0,6.124804029E0,6.176085719E-1,1.086050262E1
1.348979008E1,-8.382511057E0,6.819623988E0,-6.958619320E-1,1.082857270E1
1.349981408E1,-8.606007426E0,7.657321245E0,-1.927602468E0,1.167962259E1
1.350983808E1,-9.698897640E0,7.512852919E0,-1.220900967E0,1.232891616E1
1.351986208E1,-9.181619030E0,6.415918770E0,-1.539385501E-1,1.120222472E1
1.352988608E1,-6.627894371E0,4.444981418E0,-6.660388664E-1,8.008149061E0
1.353991008E1,-2.538079848E0,2.162062513E0,-2.022254856E0,3.899471545E0
1.354993408E1,2.217103962E0,-1.354437339E-1,-3.652172066E0,4.274605921E0
1.355995808E1,8.186842171E0,-2.193164145E0,-6.102280555E0,1.044376281E1
1.356998208E1,1.509870949E1,-3.343604556E0,-8.492936894E0,1.764314872E1
1.358000608E1,2.105576275E1,-4.440535195E0,-9.171829036E0,2.339200602E1
1.359003008E1,2.502318979E1,-7.182698073E0,-5.916755419E0,2.669754995E1
1.360005408E1,3.021603418E1,-9.462609317E0,-1.567362528E0,3.170183468E1
1.361007808E1,3.243244233E1,-8.961181923E0,2.961690742E0,3.377776945E1
1.362010208E1,3.016105632E1,-7.529589989E0,3.730309578E0,3.130973097E1
1.363012608E1,2.547715358E1,-6.248234659E0,3.326345329E0,2.644220800E1
1.364015008E1,2.114508014E1,-7.077769203E0,2.212571200E0,2.240769293E1
1.365017408E1,2.131896230E1,-9.363248166E0,5.318007553E-1,2.329058569E1
1.366019808E1,2.334096222E1,-1.256710719E1,-9.796600521E-1,2.652720178E1
1.367022208E1,2.589657436E1,-1.545661055E1,-3.326502035E0,3.034147308E1
1.368024608E1,2.591643384E1,-1.525479390E1,-4.696325153E0,3.043724281E1
1.369027008E1,2.384478405E1,-1.260608473E1,-3.074722098E0,2.714665752E1
1.370029408E1,2.186922973E1,-9.180912686E0,-3.996490037E-1,2.372155320E1
1.371031808E1,2.096201551E1,-6.985884302E0,2.461066756E0,2.223208320E1
1.372034208E1,2.136579616E1,-7.820968439E0,4.654335127E0,2.322342844E1
1.373036608E1,2.052957649E1,-9.423623006E0,5.744529775E0,2.330810597E1
1.374039008E1,1.767575987E1,-1.008135174E1,5.369316285E0,2.104508724E1
1.375041408E1,1.336619470E1,-1.041296839E1,2.852754775E0,1.718206277E1
1.376043808E1,9.311894994E0,-1.004550480E1,-1.267020003E-1,1.369816077E1
1.377046208E1,5.958338478E0,-8.743122295E0,-1.582323214E0,1.069802466E1
1.378048608E1,2.818335725E0,-7.025214429E0,-1.117643816E0,7.651521531E0
1.379051008E1,-3.702743465E-1,-4.975215704E0,1.568091676E0,5.229606668E0
1.380053408E1,-3.535943452E0,-2.309099960E0,4.179679211E0,5.941763798E0
1.381055808E1,-5.151812142E0,1.223108876E-1,5.075297817E0,7.232895425E0
1.382058208E1,-5.804632135E0,1.709508779E0,4.458821778E0,7.516466333E0
1.383060608E1,-6.113980833E0,3.162378000E0,1.561385504E0,7.058280310E0
1.384063008E1,-9.259326771E0,4.802341312E0,-1.790536131E0,1.058317693E1
1.385065408E1,-1.276550322E1,6.417942492E0,-3.338423338E0,1.467287050E1
1.386067808E1,-1.463209350E1,7.113752968E0,-3.310214615E0,1.660304678E1
1.387070208E1,-1.625316387E1,7.754351696E0,-2.191339960E0,1.814103847E1
1.388072608E1,-1.709635108E1,8.475879396E0,-6.227191114E-1,1.909223745E1
1.389075008E1,-1.758496313E1,7.642820735E0,1.379649364E0,1.922360709E1
1.390077408E1,-1.759016014E1,5.834505560E0,2.638454322E0,1.871941853E1
1.391079808E1,-1.702290771E1,4.032339317E0,2.630525497E0,1.769064193E1
1.392082208E1,-1.655091228E1,2.151124857E0,2.112459852E0,1.682327323E1
1.393084608E1,-1.564276835E1,6.355191050E-1,1.555466952E0,1.573275449E1
1.394087008E1,-1.427069581E1,1.979702036E-1,9.749518740E-1,1.430533055E1
1.395089408E1,-1.285242325E1,2.615760693E-1,9.239501202E-1,1.288824617E1
1.396091808E1,-1.102059700E1,6.380915876E-1,1.311617010E0,1.111670178E1
1.397094208E1,-8.866804939E0,1.455502515E0,1.758424977E0,9.155914798E0
1.398096608E1,-6.893677220E0,2.475544462E0,2.017096296E0,7.597353714E0
1.399099008E1,-5.350585899E0,3.090767150E0,2.246328346E0,6.574770116E0
1.400101408E1,-4.172983564E0,3.391719247E0,2.118539786E0,5.779771804E0
1.401103808E1,-3.566435512E0,3.754377010E0,1.760780236E0,5.469474932E0
1.402106208E1,-3.466643422E0,4.237709610E0,1.437079546E0,5.660476745E0
1.403108608E1,-3.412793489E0,4.612035200E0,1.405777208E0,5.907134470E0
1.404111008E1,-3.348489904E0,4.975144953E0,1.585374291E0,6.203052764E0
1.405113408E1,-3.434390180E0,5.435222592E0,1.857442896E0,6.692292182E0
1.406115483E1,-3.550718781E0,5.763540242E0,2.226375307E0,7.126201442E0
1.407117883E1,-3.653133933E0,5.859432825E0,2.371415491E0,7.300818584E0
1.408120283E1,-3.923756522E0,5.954309746E0,2.035067275E0,7.415603051E0
1.409122683E1,-4.797838663E0,6.229865631E0,1.124873314E0,7.943287833E0
1.410125083E1,-5.520667369E0,6.582869056E0,2.052022592E-1,8.593837396E0
1.411127483E1,-6.210627707E0,7.021188621E0,-4.621592474E-1,9.385231874E0
1.412129883E1,-6.615416998E0,7.583687843E0,-1.114275820E0,1.012510118E1
1.413132283E1,-6.527497094E0,7.939468696E0,-9.855610621E-1,1.032544004E1
1.414134683E1,-6.894022790E0,8.110300949E0,-5.007777679E-1,1.065623339E1
1.415137083E1,-7.430402500E0,8.025838503E0,-1.926259216E-1,1.093901594E1
1.416139583E1,-7.705606967E0,7.451206309E0,2.603507853E-1,1.072215635E1
1.417141983E1,-7.669178814E0,6.374888858E0,5.624085903E-1,9.988584237E0
1.418144383E1,-8.137517399E0,5.560378150E0,6.692629480E-1,9.878507351E0
1.419146783E1,-9.467076005E0,5.242906500E0,4.763586990E-1,1.083238267E1
1.420149183E1,-1.004933589E1,5.292961589E0,-2.089175069E-1,1.135994018E1
1.421151583E1,-1.053399172E1,5.405635096E0,-1.307185990E0,1.191195230E1
1.422153983E1,-1.100823014E1,5.887730425E0,-1.894772691E0,1.262682319E1
1.423156383E1,-1.116673062E1,6.438205433E0,-1.470108129E0,1.297334112E1
1.424158783E1,-1.059656745E1,6.806533241E0,-9.156575990E-1,1.262753204E1
1.425161183E1,-9.715572730E0,6.848612144E0,1.437105274E-1,1.188766144E1
1.426163583E1,-9.106770576E0,6.416615174E0,9.959270060E-1,1.118472580E1
1.427165983E1,-8.286540706E0,5.617487320E0,2.814276588E-1,1.001509472E1
1.428168383E1,-5.823143835E0,4.265874186E0,-8.615029534E-1,7.269723106E0
1.429170783E1,-1.099702220E0,2.767657322E0,-1.710349170E0,3.434321812E0
1.430173183E1,4.914466057E0,8.099962194E-1,-2.153651147E0,5.426443012E0
1.431175583E1,1.204858078E1,-1.649308332E0,-2.181230124E0,1.235501039E1
1.432177983E1,1.870072531E1,-3.672348761E0,-2.144279230E0,1.917814397E1
1.433180383E1,2.059674931E1,-5.220663106E0,-1.432608765E0,2.129633239E1
1.434182783E1,1.950752764E1,-7.020088760E0,-5.312534193E-1,2.073903351E1
1.435185183E1,1.940008856E1,-8.322786427E0,-2.500971079E-2,2.111001742E1
1.436187583E1,1.710618376E1,-7.163955992E0,-5.091965890E-1,1.855271057E1
1.437189983E1,1.381759975E1,-5.285866578E0,-2.103455139E0,1.494292380E1
1.438192383E1,1.435743809E1,-4.937553788E0,-3.110815791E0,1.549814959E1
1.439194783E1,1.655703431E1,-5.910034044E0,-2.609034641E0,1.777275863E1
1.440197183E1,1.684082542E1,-7.064142852E0,-1.144867283E0,1.829825773E1
1.441199583E1,1.694150745E1,-8.584649302E0,3.307067863E-1,1.899526903E1
1.442201983E1,1.763750387E1,-1.113926274E1,1.173545537E0,2.089358577E1
1.443204383E1,1.873499000E1,-1.297639007E1,4.061405826E-1,2.279367236E1
1.444206783E1,1.878345289E1,-1.293416031E1,-1.352359239E0,2.284599485E1
1.445209183E1,1.849952379E1,-1.223912517E1,-1.469151524E0,2.223031650E1
1.446211583E1,1.832806706E1,-1.119775477E1,-4.714095426E-1,2.148324885E1
1.447213983E1,1.765837609E1,-1.032167581E1,7.217194891E-1,2.046646322E1
1.448216383E1,1.653946226E1,-9.818783687E0,1.889664563E0,1.932700590E1
1.449218783E1,1.457890489E1,-9.926709255E0,2.493544530E0,1.781296687E1
1.450221183E1,1.295559737E1,-1.002433437E1,2.272119829E0,1.653775412E1
1.451223583E1,1.201543526E1,-1.034579323E1,2.006675534E0,1.598226732E1
1.452225983E1,1.100630290E1,-1.090923327E1,1.795919078E0,1.560049357E1
1.453228383E1,1.025931525E1,-1.144674910E1,1.768758177E0,1.547288337E1
1.454230783E1,1.079017110E1,-1.130620191E1,1.944305624E0,1.574923231E1
1.455233183E1,1.074426812E1,-9.879391247E0,2.386231166E0,1.478971832E1
1.456235583E1,9.164873773E0,-7.778935729E0,2.973472881E0,1.238338780E1
1.457237983E1,6.676566010E0,-5.485503969E0,3.483244836E0,9.316666896E0
1.458240383E1,4.067859982E0,-3.683665169E0,3.682362410E0,6.608832486E0
1.459242783E1,1.803635064E0,-2.235454863E0,3.475927631E0,4.509149674E0
1.460245183E1,-7.445288926E-1,-9.510674599E-1,2.848120272E0,3.093645369E0
1.461247583E1,-3.606806443E0,2.760447121E-1,2.135127168E0,4.200478714E0
1.462249983E1,-6.246588083E0,1.655140052E0,1.312087126E0,6.594006665E0
1.463252383E1,-7.514830447E0,2.878458551E0,5.842993963E-1,8.068432689E0
1.464254783E1,-7.991717076E0,3.690448232E0,4.463238545E-1,8.813974981E0
1.465257183E1,-8.824905546E0,4.670906137E0,7.699859154E-1,1.001444958E1
1.466259583E1,-9.889331514E0,5.820637718E0,1.253602105E0,1.154340589E1
1.467261983E1,-1.090664763E1,6.842334573E0,1.603973114E0,1.297479228E1
1.468264383E1,-1.177197240E1,7.757718523E0,1.845138016E0,1.421851136E1
1.469266783E1,-1.248735819E1,8.375410198E0,1.855736679E0,1.515009469E1
1.470269183E1,-1.283596684E1,8.430590372E0,2.009818997E0,1.548793954E1
1.471271583E1,-1.250003027E1,7.790628406E0,2.092627265E0,1.487695320E1
1.472273983E1,-1.146548475E1,6.987944861E0,1.836466595E0,1.355217043E1
1.473276383E1,-1.046043491E1,6.271724678E0,1.423461381E0,1.227931070E1
1.474278783E1,-9.595224168E0,5.680565329E0,1.239268241E0,1.121931081E1
1.475281183E1,-8.944140213E0,5.432380845E0,1.147829556E0,1.052738897E1
1.476283583E1,-8.616033647E0,5.553231098E0,1.247084799E0,1.032616250E1
1.477285983E1,-8.309938924E0,6.133217003E0,9.110359597E-1,1.036828926E1
1.478288383E1,-7.736779059E0,6.710540671E0,2.202178359E-1,1.024390561E1
1.479290783E1,-7.170545220E0,7.075978201E0,3.113759279E-2,1.007408337E1
1.480293183E1,-6.947058790E0,7.487482435E0,-7.645819187E-2,1.021419918E1
1.481295683E1,-6.975488538E0,7.650799845E0,-1.105697516E-1,1.035395597E1
1.482297983E1,-6.704716845E0,7.559134800E0,-2.008167744E-1,1.010614042E1
1.483300483E1,-6.333447887E0,7.518706566E0,-4.494719589E-1,9.841012936E0
1.484302883E1,-6.162199897E0,7.506901038E0,-6.039144659E-1,9.730929218E0
1.485305283E1,-6.461941620E0,7.546417691E0,-5.364258663E-1,9.949515675E0
1.486307683E1,-6.823554486E0,7.515702267E0,-2.872421300E-1,1.015525403E1
1.487310083E1,-6.923027319E0,7.389194248E0,-6.494739968E-2,1.012584402E1
1.488312483E1,-6.934199009E0,7.482422254E0,5.751310352E-2,1.020162078E1
1.489314883E1,-7.210851831E0,7.860688575E0,9.797006171E-2,1.066753988E1
1.490317283E1,-7.510857264E0,8.288257449E0,1.969378777E-3,1.118517735E1
1.491319683E1,-7.513113704E0,8.594360358E0,-4.728758415E-2,1.141543445E1
1.492322083E1,-7.543201722E0,8.919092495E0,-2.420162376E-1,1.168369270E1
1.493324483E1,-7.516334351E0,9.233968567E0,-7.628581595E-1,1.193077576E1
1.494326883E1,-7.567788094E0,9.353030741E0,-1.081221510E0,1.207972022E1
1.495329283E1,-8.039566596E0,9.106225031E0,-7.386109257E-1,1.216977861E1
1.496331683E1,-8.481499155E0,8.704115519E0,-6.082536846E-1,1.216829600E1
1.497334083E1,-8.650134024E0,8.369131458E0,-7.064009535E-1,1.205678988E1
1.498336483E1,-8.764516672E0,8.284211175E0,-7.119195557E-1,1.208104866E1
1.499338883E1,-9.125484590E0,8.418899449E0,-7.041860282E-1,1.243576354E1
1.500341283E1,-9.340929344E0,8.672841686E0,-9.539469212E-1,1.278206394E1
1.501343683E1,-9.000761141E0,8.577687607E0,-1.164192916E0,1.248782491E1
1.502346083E1,-8.574825395E0,8.092489160E0,-1.148584358E0,1.184631831E1
1.503348483E1,-8.407940013E0,7.135940813E0,-1.570543998E0,1.113919723E1
1.504350883E1,-8.977464080E0,6.368864472E0,-8.855906314E-1,1.104271555E1
1.505353283E1,-9.129303991E0,5.446822883E0,7.145940721E-2,1.063095374E1
1.506355696E1,-7.597864417E0,4.468650070E0,9.320004936E-1,8.863690094E0
1.507358096E1,-3.945599965E0,3.248175950E0,7.286361605E-1,5.162297622E0
1.508360496E1,3.061000437E0,7.925416960E-1,-6.256456429E-1,3.223240371E0
1.509362896E1,1.169577850E1,-2.800078964E0,-2.436870977E0,1.227069750E1
1.510365296E1,2.136124469E1,-7.022058102E0,-4.432555500E0,2.291854321E1
1.511367696E1,3.182029030E1,-1.092052542E1,-4.830151547E0,3.398704333E1
1.512370096E1,4.093104751E1,-1.361842721E1,-1.768478680E0,4.317336826E1
1.513372496E1,4.099208309E1,-8.399605976E0,3.715740071E0,4.200846320E1
1.514374896E1,3.356774707E1,-2.038324758E0,8.158169180E0,3.460497270E1
1.515377296E1,2.610667651E1,-1.977002084E-1,1.087812141E1,2.828305445E1
1.516379696E1,2.138420086E1,-1.797865178E0,6.496030887E0,2.242130199E1
1.517382096E1,2.031042987E1,-4.010455527E0,-8.321406484E-2,2.070275923E1
1.518384496E1,2.071560449E1,-6.592625721E0,-5.206899930E0,2.235421191E1
1.519386896E1,1.981355219E1,-8.663786688E0,-6.686308640E0,2.263503421E1
1.520389296E1,1.929619055E1,-1.075433468E1,-4.389014794E0,2.252248066E1
1.521391696E1,2.133069416E1,-1.356578122E1,-2.788727764E0,2.543237967E1
1.522394096E1,2.547955328E1,-1.645012031E1,-1.253555912E0,3.035433241E1
1.523396496E1,2.699563339E1,-1.812727718E1,9.702711779E-1,3.253158198E1
1.524398896E1,2.404792334E1,-1.752398720E1,2.108447492E0,2.983015747E1
1.525401296E1,2.007272418E1,-1.688985081E1,1.689377546E0,2.628755053E1
1.526403696E1,1.720173545E1,-1.614656445E1,1.358387718E0,2.363168346E1
1.527406096E1,1.376682253E1,-1.419487847E1,3.740276742E-1,1.977776211E1
1.528408496E1,1.026060749E1,-1.169598549E1,1.918108928E-1,1.555997860E1
1.529410896E1,7.518593715E0,-9.120736066E0,2.384960566E0,1.205840432E1
1.530413296E1,4.109070573E0,-7.095608473E0,4.190795352E0,9.208413885E0
1.531415696E1,4.944066417E-1,-5.236420768E0,4.996751000E0,7.254795720E0
1.532418096E1,-2.451558014E0,-3.822224592E0,5.665847887E0,7.260948272E0
1.533420496E1,-3.665115463E0,-2.472561797E0,4.472610097E0,6.288948582E0
1.534422896E1,-4.141153661E0,-7.664540510E-1,1.668031701E0,4.529783131E0
1.535425296E1,-5.911529177E0,1.483947173E0,-2.501368690E-1,6.100069252E0
1.536427696E1,-8.380679709E0,3.634433368E0,-1.497959586E0,9.256823494E0
1.537430096E1,-1.144733499E1,5.254969890E0,-1.489021533E0,1.268358672E1
1.538432496E1,-1.484894802E1,6.584775249E0,-5.422859824E-1,1.625252585E1
1.539434996E1,-1.783868902E1,7.513124229E0,7.949231207E-1,1.937260345E1
1.540437396E1,-1.930841825E1,7.689877372E0,1.688708625E0,2.085188160E1
1.541439796E1,-1.961452701E1,6.835814928E0,1.717911959E0,2.084248682E1
1.542442196E1,-1.917807329E1,5.694708574E0,1.049072349E0,2.003319130E1
1.543444596E1,-1.766149149E1,4.502904229E0,5.528565788E-1,1.823485888E1
1.544446996E1,-1.583638954E1,3.398424249E0,5.202384710E-1,1.620528214E1
1.545449396E1,-1.381532869E1,2.668808388E0,1.223665604E0,1.412385225E1
1.546451796E1,-1.131685320E1,2.309832031E0,1.973283255E0,1.171752266E1
1.547454196E1,-9.149247674E0,2.496343008E0,2.658378124E0,9.849235284E0
1.548456596E1,-7.583941612E0,3.327872330E0,3.184145722E0,8.872975183E0
1.549458996E1,-6.505418592E0,4.687489425E0,2.826803663E0,8.501990774E0
1.550461396E1,-5.954374065E0,5.719077430E0,2.110809767E0,8.521615752E0
1.551463796E1,-5.510911290E0,6.247021946E0,1.598710620E0,8.482411337E0
1.552466196E1,-4.805344149E0,6.828413522E0,1.089533912E0,8.420549137E0
1.553468596E1,-4.240083872E0,7.144599370E0,8.445871047E-1,8.350864552E0
1.554470996E1,-3.900290476E0,7.056031010E0,1.054627204E0,8.130933399E0
1.555473396E1,-3.674490303E0,6.994774409E0,1.377998110E0,8.020450537E0
1.556475796E1,-3.673903243E0,6.966147611E0,1.559354181E0,8.028472024E0
1.557478196E1,-4.142972730E0,7.160917779E0,1.210218104E0,8.361076147E0
1.558480596E1,-4.859581168E0,7.443387412E0,5.825066765E-1,8.908358958E0
1.559482996E1,-5.743412372E0,7.685224158E0,1.228476985E-1,9.595027232E0
1.560485396E1,-6.348724907E0,8.039382409E0,-3.659093269E-1,1.025045692E1
1.561487796E1,-6.619885440E0,8.308521559E0,-7.496434522E-1,1.064971263E1
1.562490196E1,-6.925472624E0,8.409087821E0,-6.855755103E-1,1.091535354E1
1.563492596E1,-7.304435933E0,8.375633562E0,-5.536588168E-1,1.112710924E1
1.564494996E1,-7.718969609E0,8.377924501E0,-6.381955218E-1,1.140961894E1
1.565497396E1,-8.559892775E0,8.531289951E0,-6.558517742E-1,1.210309110E1
1.566499796E1,-9.575708501E0,8.696097817E0,-1.110664580E0,1.298267639E1
1.567502196E1,-1.030849618E1,8.747774924E0,-1.820141169E0,1.364190506E1
1.568504596E1,-1.101124029E1,8.555500347E0,-2.036770568E0,1.409228275E1
1.569506996E1,-1.179559515E1,8.205087823E0,-2.107648762E0,1.452245553E1
1.570509396E1,-1.211403803E1,7.718602989E0,-1.946341624E0,1.449534391E1
1.571511796E1,-1.199248494E1,6.929007851E0,-1.578866925E0,1.394000235E1
1.572514196E1,-1.192628510E1,6.170725722E0,-1.290357703E0,1.348996498E1
1.573516596E1,-1.206245857E1,5.806484533E0,-8.420265359E-1,1.341369367E1
1.574518996E1,-1.159416793E1,5.635155852E0,-8.611978018E-1,1.291980546E1
1.575521396E1,-1.027414262E1,5.568312821E0,-9.587264353E-1,1.172532604E1
1.576523796E1,-8.615920796E0,5.337623792E0,-6.032151389E-1,1.015323532E1
1.577526196E1,-6.777604142E0,4.879280437E0,-1.958718206E-1,8.353541839E0
1.578528596E1,-3.268416964E0,3.239877874E0,2.124006202E-1,4.607002508E0
1.579530996E1,3.281055136E0,-6.441723995E-1,9.225152135E-1,3.468618630E0
1.580533396E1,1.270649078E1,-4.836253701E0,7.636842980E-1,1.361717561E1
1.581535796E1,2.265578549E1,-6.504931519E0,-6.184167302E-1,2.357925337E1
1.582538196E1,3.199004199E1,-6.756794486E0,-1.490921293E0,3.272980147E1
1.583540596E1,4.074274846E1,-7.073253983E0,-2.658401513E-1,4.135303066E1
1.584542996E1,4.625411875E1,-5.100975280E0,3.547551929E0,4.666956798E1
1.585545396E1,4.623218468E1,-2.551780752E0,7.867454973E0,4.696619351E1
1.586547796E1,3.909319746E1,-1.588444079E0,9.267798802E0,4.020812526E1
1.587550196E1,3.380437687E1,-5.153532393E0,6.793752982E0,3.486330265E1
1.588552596E1,3.338986074E1,-9.700320852E0,1.826733320E0,3.481832821E1
1.589555096E1,3.041693048E1,-1.359152183E1,-3.317825936E0,3.348024932E1
1.590557496E1,2.541451587E1,-1.549588746E1,-5.654370972E0,3.029838372E1
1.591559896E1,2.246894122E1,-1.725117132E1,-3.619209557E0,2.855792200E1
1.592562296E1,2.001990745E1,-1.834461234E1,-1.601658787E0,2.720086041E1
1.593564696E1,1.720759436E1,-1.857379045E1,2.323555227E-1,2.532076192E1
1.594567096E1,1.424715024E1,-1.892611794E1,2.035003540E0,2.377646882E1
1.595569496E1,1.121107473E1,-1.855669787E1,1.927659186E0,2.176591607E1
1.596571896E1,8.247120532E0,-1.716807770E1,1.470124501E-1,1.904677143E1
1.597574296E1,5.785063843E0,-1.531908637E1,-1.127808031E0,1.641381497E1
1.598576696E1,3.496678230E0,-1.240431135E1,-1.627346774E0,1.299007145E1
1.599579096E1,1.171914749E0,-9.249075433E0,-1.556330001E0,9.452033835E0
1.600581496E1,-4.766767144E-1,-6.205586822E0,-9.746092272E-1,6.299713616E0
1.601583896E1,-2.624793472E0,-3.148115764E0,-9.553532680E-2,4.099914710E0
1.602586296E1,-5.292404934E0,-5.239178315E-1,9.071931696E-1,5.395094006E0
1.603588696E1,-7.537484314E0,1.538345135E0,1.497763120E0,7.837312671E0
1.604591096E1,-8.938637398E0,3.273463403E0,1.055155208E0,9.577481595E0
1.605593496E1,-9.609417114E0,4.676317442E0,-4.256135648E-1,1.069532557E1
1.606595850E1,-1.035630302E1,5.654457511E0,-1.243309252E0,1.186472587E1
1.607598250E1,-1.180818772E1,6.416713407E0,-1.163968967E0,1.348934142E1
1.608600650E1,-1.354566797E1,7.080777011E0,-5.682324171E-1,1.529527417E1
1.609603050E1,-1.583852612E1,7.379371510E0,7.185526371E-1,1.748800593E1
1.610605450E1,-1.753052204E1,6.913397539E0,2.418496102E0,1.899903661E1
1.611607850E1,-1.770581105E1,5.411298124E0,4.021870462E0,1.894606382E1
1.612610250E1,-1.727222714E1,3.652719365E0,4.952078272E0,1.833562839E1
1.613612650E1,-1.692674440E1,2.250020570E0,4.967113802E0,1.778340485E1
1.614615050E1,-1.676180614E1,1.429196623E0,4.462538853E0,1.740445349E1
1.615617450E1,-1.618592323E1,1.165819026E0,3.923861772E0,1.669550646E1
1.616619850E1,-1.540981177E1,1.231406221E0,3.808219049E0,1.592109269E1
1.617622250E1,-1.461677145E1,1.655096490E0,3.730824133E0,1.517591516E1
1.618624650E1,-1.352725041E1,2.395265407E0,3.629688352E0,1.420909700E1
1.619627050E1,-1.235528830E1,3.143907523E0,3.434080278E0,1.320341663E1
1.620629450E1,-1.088186012E1,3.725851076E0,3.156832209E0,1.192738175E1
1.621631850E1,-8.930782834E0,4.221197366E0,2.966386056E0,1.031391465E1
1.622634250E1,-7.429207329E0,4.695334049E0,2.951548162E0,9.270971898E0
1.623636650E1,-6.024940603E0,5.231637745E0,3.047793331E0,8.541603301E0
1.624639050E1,-4.444497854E0,6.318072633E0,2.834006263E0,8.228195092E0
1.625641450E1,-3.380448446E0,7.715574716E0,2.448992840E0,8.772405076E0
1.626643850E1,-3.622919616E0,8.886000763E0,2.020335799E0,9.806544389E0
1.627646250E1,-4.846920192E0,9.671625642E0,2.107670982E0,1.102158132E1
1.628648650E1,-6.156515819E0,1.013382816E1,1.925436659E0,1.201267941E1
1.629651050E1,-6.932822574E0,1.014367487E1,1.559209170E0,1.238504348E1
1.630653450E1,-7.621032255E0,9.984066932E0,1.412502530E0,1.263949716E1
1.631655850E1,-8.396854277E0,9.894234989E0,1.012424340E0,1.301645308E1
1.632658250E1,-8.222487967E0,9.494256202E0,1.043248340E-1,1.256029828E1
1.633660650E1,-8.494314498E0,8.977048928E0,-6.273337340E-1,1.237474581E1
1.634663050E1,-9.504389427E0,8.324990827E0,-1.194500788E0,1.269116712E1
1.635665450E1,-1.085698138E1,7.598083688E0,-1.538412378E0,1.334060093E1
1.636667850E1,-1.188306014E1,7.040393216E0,-1.832835474E0,1.393318129E1
1.637670250E1,-1.223521221E1,6.770624321E0,-2.121725349E0,1.414367315E1
1.638672750E1,-1.140610510E1,6.506934775E0,-1.808432119E0,1.325555961E1
1.639675150E1,-9.791384804E0,6.231888767E0,-1.038056195E0,1.165269131E1
1.640677550E1,-7.792804740E0,6.363105549E0,3.841667461E-1,1.006799394E1
1.641679950E1,-5.700853413E0,6.039232952E0,1.949869249E0,8.530771030E0
1.642682350E1,-3.326178684E0,4.591780445E0,2.272751328E0,6.108462236E0
1.643684750E1,3.055190059E0,2.391480796E0,-4.259409358E-1,3.903177216E0
1.644687150E1,1.007421346E1,-7.215427570E-1,-2.120430191E0,1.032020469E1
1.645689550E1,1.692383015E1,-1.011338074E0,-4.189786123E0,1.746405278E1
1.646691950E1,2.244913319E1,1.917101745E0,-3.388172618E0,2.278417376E1
1.647694350E1,2.850555521E1,3.922878270E0,-4.655383533E-1,2.877798425E1
1.648696750E1,3.764125196E1,3.799365487E0,2.553242263E0,3.791857161E1
1.649699150E1,4.530766972E1,-2.877148774E-1,5.666120952E0,4.566150065E1
1.650701550E1,4.865316117E1,-4.361406873E0,7.189368576E0,4.937447703E1
1.651703950E1,4.833175142E1,-7.193096176E0,6.191976843E0,4.925484144E1
1.652706350E1,4.597581935E1,-9.426472355E0,4.952898636E0,4.719285487E1
1.653708750E1,4.025856158E1,-1.138370910E1,5.870860038E0,4.224698345E1
1.654711150E1,3.150686551E1,-1.399840852E1,6.532874193E0,3.509011913E1
1.655713550E1,2.416421276E1,-1.627334612E1,5.015126460E0,2.956150310E1
1.656715950E1,1.712588186E1,-1.744917324E1,2.346370697E0,2.456165572E1
1.657718350E1,1.023366703E1,-1.728523953E1,-8.028104299E-1,2.010353081E1
1.658720750E1,5.355267180E0,-1.592615483E1,-1.498741944E0,1.686912925E1
1.659723150E1,3.302740704E0,-1.475847171E1,-2.476237357E-1,1.512553804E1
1.660725550E1,1.488698182E0,-1.367976684E1,2.507759696E0,1.398717633E1
1.661727950E1,-1.834575605E0,-1.197908078E1,4.998059607E0,1.310895281E1
1.662730350E1,-4.699825296E0,-1.026133722E1,6.023764143E0,1.279332380E1
1.663732750E1,-6.584114513E0,-8.459030060E0,5.215911659E0,1.192105230E1
1.664735150E1,-7.688976316E0,-6.180006423E0,2.826269227E0,1.026160971E1
1.665737550E1,-8.360227903E0,-3.490620222E0,5.835755110E-1,9.078458046E0
1.666739950E1,-9.256155242E0,-3.497013567E-1,-2.565149935E-1,9.266309990E0
1.667742350E1,-9.933320117E0,2.198723678E0,-3.355997729E-1,1.017928591E1
