"Time (s)","Linear Acceleration x (m/s^2)","Linear Acceleration y (m/s^2)","Linear Acceleration z (m/s^2)","Absolute acceleration (m/s^2)"
4.993666691E-3,1.060261581E0,-3.839927915E-1,2.306410241E0,2.567320253E0
1.501666667E-2,1.351915728E0,-6.243852755E-1,2.055784544E0,2.538460793E0
2.504066669E-2,1.427060050E0,-7.431547970E-1,2.041331981E0,2.599195202E0
3.506466668E-2,1.161342398E0,-5.812132359E-1,1.888002784E0,2.291523402E0
4.508766669E-2,4.302509916E-1,-1.624222022E-1,1.555667512E0,1.622220175E0
5.511566668E-2,-3.476064456E-1,4.004231751E-2,1.383678680E0,1.427235201E0
6.513866669E-2,-1.001283348E0,-1.405694032E-1,1.153235233E0,1.533714316E0
7.516266668E-2,-3.527031711E-1,-5.027406782E-1,9.636883825E-1,1.142734884E0
8.518566668E-2,4.464585963E-1,-8.671160612E-1,1.293045668E0,1.619624228E0
9.520966667E-2,9.637988949E-1,-8.661600414E-1,1.402595592E0,1.909559091E0
1.052336667E-1,1.145338276E0,-7.949064562E-1,1.263913085E0,1.881794975E0
1.152566667E-1,1.098069677E0,-9.015526530E-1,1.096835330E0,1.794882153E0
1.252806667E-1,1.056603563E0,-1.105350630E0,9.747121382E-1,1.813360101E0
1.353036667E-1,1.255590743E0,-1.330717232E0,7.235531759E-1,1.967446483E0
1.453276667E-1,1.408455379E0,-1.524565002E0,5.295343745E-1,2.142067145E0
1.553506667E-1,1.506695034E0,-1.670044605E0,3.462639248E-1,2.275758690E0
1.653746667E-1,1.768465523E0,-1.759047413E0,1.116373801E-1,2.496834198E0
1.753986667E-1,2.228387334E0,-1.715554069E0,-2.769931304E-1,2.825873505E0
1.854216667E-1,2.452080462E0,-1.665671472E0,-4.239161181E-1,2.994472395E0
1.954456667E-1,1.147498092E0,-1.258606445E0,-7.155407363E-1,1.847387506E0
2.054686667E-1,-4.005256476E-1,-5.836418769E-1,-1.266750739E0,1.451108566E0
2.154926667E-1,-8.155386490E-1,-3.145275772E-2,-1.556922909E0,1.757868456E0
2.255156667E-1,-1.141411579E-1,-2.613720015E-1,-2.012343240E0,2.032453897E0
2.355396667E-1,1.331178577E0,-7.733179513E-1,-1.874198093E0,2.425422757E0
2.455636667E-1,1.300913535E0,-8.022628382E-1,-1.678285378E-1,1.537585154E0
2.555866667E-1,3.914244564E-1,-6.616530892E-1,2.913340116E-1,8.221152120E-1
2.656106667E-1,2.349121812E-1,-4.199259782E-1,-6.884418154E-1,8.399248140E-1
2.756336667E-1,3.485971101E-1,-3.000560108E-1,-5.111671007E-1,6.876375205E-1
2.856576667E-1,5.188499035E-1,-4.166997769E-1,-1.232821101E-1,6.767883016E-1
2.956806667E-1,9.751321875E-1,-7.357726872E-1,-7.424648255E-1,1.429509793E0
3.057046667E-1,1.075981162E0,-1.044076780E0,-1.097316556E0,1.857938484E0
3.157286667E-1,9.152805997E-1,-1.335396174E0,-1.338653365E0,2.100717580E0
3.257516667E-1,6.917877384E-1,-1.727819481E0,-1.651481742E0,2.488236801E0
3.357756667E-1,4.855625088E-1,-2.219497227E0,-1.830103070E0,2.917398865E0
3.457986667E-1,5.635465316E-1,-2.847054325E0,-2.187239892E0,3.634187855E0
3.558226667E-1,5.343248521E-1,-3.761885420E0,-2.398513243E0,4.493345161E0
3.658456667E-1,2.338175386E0,-4.118919916E0,-1.052472505E0,4.851830972E0
3.758696667E-1,5.075302495E0,-3.869665684E0,-4.075953698E-1,6.395243694E0
3.858936667E-1,6.099249943E0,-3.334718542E0,-5.534021240E-1,6.973338622E0
3.959166667E-1,4.759996653E0,-2.986127133E0,-1.027011389E0,5.712204109E0
4.059406667E-1,2.060461440E0,-3.026268561E0,-1.372259068E0,3.909846250E0
4.159636667E-1,1.250351053E-1,-3.002479456E0,-1.186920458E0,3.230990071E0
4.259876667E-1,-2.547281027E-1,-2.836492207E0,-9.456251639E-1,3.000796794E0
4.360116667E-1,4.068311387E-1,-2.559785882E0,-1.508120878E0,2.998740389E0
4.460346667E-1,9.522073746E-1,-3.827564854E0,-2.126368039E0,4.480891946E0
4.560586667E-1,1.590368398E0,-4.801150234E0,-5.321018869E-1,5.085611824E0
4.660816667E-1,1.562116406E0,-4.654354716E0,-7.631341481E-1,4.968460447E0
4.761056667E-1,3.899338549E-1,-3.890205491E0,-1.047018807E0,4.047467795E0
4.861286667E-1,-1.321354963E0,-3.005771439E0,-1.190693082E0,3.492619489E0
4.961526667E-1,-2.268119749E0,-2.341576857E0,-4.880887252E-1,3.296297920E0
5.061766667E-1,-2.304825645E0,-2.030104450E0,7.522998422E-1,3.162198663E0
5.161996667E-1,-1.763377569E0,-1.799433986E0,1.866155832E0,3.135283194E0
5.262236667E-1,-3.883328873E-1,-1.469763289E0,2.632149269E0,3.039607924E0
5.362466667E-1,5.833153099E-1,-9.509022760E-1,3.163607962E0,3.354532341E0
5.462706667E-1,3.901823616E-1,-2.341719237E-1,3.377451456E0,3.407969645E0
5.562936667E-1,-1.896263731E-1,1.018118432E0,3.004407576E0,3.177890524E0
5.663176667E-1,-5.100222158E-1,2.484143962E0,2.700775115E0,3.704764514E0
5.763416667E-1,-1.653697836E-1,3.726475267E0,2.943077885E0,4.751386378E0
5.863646667E-1,6.406887746E-1,4.866490238E0,3.610127662E0,6.093129826E0
5.963886667E-1,1.445546315E0,5.864949088E0,4.548346742E0,7.561394715E0
6.064116667E-1,1.736288003E0,6.203398209E0,4.501591529E0,7.858827627E0
6.164356667E-1,1.865821372E0,6.396075659E0,3.611251204E0,7.578404086E0
6.264596667E-1,2.687138824E0,6.775261747E0,2.657663010E0,7.758096382E0
6.364826667E-1,3.809721199E0,6.941451311E0,2.483473871E0,8.298515793E0
6.465066667E-1,4.740109103E0,7.549813753E0,2.449096920E0,9.244803824E0
6.565296667E-1,5.371386200E0,9.646673234E0,7.548085901E-1,1.106706059E1
6.665536667E-1,6.152204667E0,8.207155983E0,5.942925802E-1,1.027425011E1
6.765766667E-1,6.096301192E0,6.421113437E0,-2.585296699E-1,8.857901760E0
6.866006667E-1,5.795987611E0,7.464793484E0,-1.743708412E0,9.610261868E0
6.966246667E-1,5.435692708E0,7.457044169E0,3.971352857E-1,9.236448418E0
7.066476667E-1,5.149781404E0,5.180906718E0,2.408766335E-1,7.308903097E0
7.166716667E-1,4.698875123E0,2.806664975E0,-6.990387243E-1,5.517739650E0
7.266946667E-1,3.617655952E0,2.306960464E0,-1.967367627E0,4.720173360E0
7.367186667E-1,1.388795578E0,2.222728398E0,-2.997578613E0,3.981802636E0
7.467426667E-1,-8.924219334E-1,1.193603606E0,-3.564699474E0,3.863701440E0
7.567656667E-1,-2.051886790E0,3.163548321E-2,-3.429139965E0,3.996278407E0
7.667896667E-1,-1.584923471E0,-4.539944878E-1,-1.898254707E0,2.514252242E0
7.768126667E-1,-1.780779467E0,-1.684566750E-1,-1.775950252E0,2.520625410E0
7.868366667E-1,-1.375100230E0,-1.478161791E0,-2.237825325E0,3.013921881E0
7.968596667E-1,-6.260713202E-1,-9.248460598E-1,-3.461645222E-1,1.169245658E0
8.068836667E-1,-1.157401959E0,-1.169266545E0,1.298887621E0,2.096156626E0
8.169076667E-1,-2.749088320E0,-1.449943713E0,2.768799284E0,4.162459950E0
8.269306667E-1,-2.714062328E0,-9.280925801E-1,1.709880223E0,3.339338338E0
8.369546667E-1,-1.392986278E0,-1.510730782E0,-1.028332568E0,2.297865561E0
8.469776667E-1,6.401221794E-1,-4.302197382E0,-3.092037165E0,5.336604965E0
8.570016667E-1,-7.615138847E-1,-1.763804415E0,-1.182697307E0,2.256032431E0
8.670256667E-1,-1.288285450E0,-3.377517822E0,2.103825561E0,4.182509776E0
8.770486667E-1,2.304387689E-2,-5.951251068E0,4.503593031E0,7.463261383E0
8.870726667E-1,1.546430665E-1,-5.813266134E0,4.032926377E0,7.076897115E0
8.970956667E-1,6.008160263E-1,-3.131763149E0,2.489452356E0,4.045527574E0
9.071196667E-1,1.049450079E0,-1.074744257E0,2.528916384E0,2.941400817E0
9.171426667E-1,1.072020332E0,5.147312710E-1,2.105565107E0,2.418177060E0
9.271666667E-1,9.804997122E-1,1.425966182E0,1.670518814E0,2.405284255E0
9.371906667E-1,9.983033144E-1,1.843437207E0,1.204046660E0,2.417560465E0
9.472136667E-1,1.279247993E0,1.330719132E0,1.102844514E0,2.150245302E0
9.572376667E-1,1.409763109E0,7.701831128E-1,1.165186942E0,1.984508670E0
9.672606667E-1,8.566211861E-1,7.501337412E-1,1.392704150E0,1.798923382E0
9.772846667E-1,1.855678207E-1,1.195000433E0,1.865676945E0,2.223333514E0
9.873086667E-1,1.327569383E-1,1.791014726E0,2.902913653E0,3.413541538E0
9.973316667E-1,2.484715819E-1,1.952490556E0,3.505570675E0,4.020321288E0
1.007355667E0,-8.326493561E-2,1.362580172E0,3.179422634E0,3.460099140E0
1.017378667E0,-1.383999107E0,7.616279054E-1,2.575998165E0,3.021803624E0
1.027402667E0,-2.996393382E0,8.057185426E-1,2.051945847E0,3.719951267E0
1.037425667E0,-4.177002355E0,1.470951590E0,1.620963369E0,4.715778780E0
1.047445375E0,-5.493179609E0,1.592278976E0,2.334331280E-1,5.724060235E0
1.057469375E0,-6.455706149E0,9.639813280E-1,-2.265456927E0,6.909247208E0
1.067492375E0,-6.231798136E0,-8.368067265E-2,-3.443494295E0,7.120390679E0
1.077516375E0,-6.097536709E0,-2.259467624E0,-4.903003176E0,8.143990914E0
1.087539375E0,-6.187131255E0,-4.293414572E0,-6.622775719E0,1.002871677E1
1.097563375E0,-5.781633866E0,-4.904051582E0,-6.074063061E0,9.714486819E0
1.107587375E0,-4.508664613E0,-3.953024760E0,-4.172325752E0,7.304982103E0
1.117610375E0,-2.999685949E0,-2.281804572E0,-1.986631864E0,4.260452331E0
1.127634375E0,-1.459130566E0,-1.126601751E0,-5.387484169E-1,1.920558088E0
1.137657375E0,-1.461283511E-1,-6.568703592E-1,1.616085622E-1,6.920617683E-1
1.147681375E0,8.074466872E-1,2.987307394E-1,2.561776274E-1,8.982411615E-1
1.157704375E0,1.856469335E0,4.509086198E-1,1.141549865E0,2.225518607E0
1.167728375E0,1.406901482E0,8.229254365E-1,9.212177163E-1,1.872223313E0
1.177752375E0,3.452196121E-1,6.118812972E-1,8.514250579E-1,1.103856844E0
1.187775375E0,-4.076292837E-1,1.113380027E-1,7.252529615E-1,8.393745540E-1
1.197799375E0,-1.217846382E-1,-3.319265521E-1,4.529662549E-2,3.564526874E-1
1.207822375E0,3.555463797E-1,-5.244443733E-1,-6.079730183E-1,8.781152087E-1
1.217846375E0,2.888992310E-1,-4.038888198E-1,-7.902158198E-1,9.332898726E-1
1.227870375E0,3.304436982E-2,3.451611400E-2,-9.032591629E-1,9.045221987E-1
1.237893375E0,7.296389580E-2,6.850890219E-1,-8.862785563E-1,1.122568652E0
1.247917375E0,-1.844153345E-1,1.034199371E0,-7.024081823E-1,1.263706695E0
1.257940375E0,-1.218397189E0,1.084101264E0,-5.519751111E-1,1.721756018E0
1.267964375E0,-2.826038262E0,7.833128893E-1,5.209263960E-1,2.978495535E0
1.277988375E0,-1.577106913E0,1.534297693E0,6.894764802E-1,2.305799957E0
1.288011375E0,-2.377542204E-1,2.212637858E0,1.287608342E0,2.571036484E0
1.298035375E0,-2.441341174E-1,1.795384642E0,9.171202800E-1,2.030792232E0
1.308058375E0,-8.152018493E-1,6.418950552E-1,-1.612544840E0,1.917520320E0
1.318082375E0,-1.237676044E0,3.690113479E-1,-2.216239451E0,2.565098179E0
1.328105375E0,-1.579784938E0,6.003365546E-1,-2.673636141E0,3.162981923E0
1.338129375E0,-1.746416550E0,9.006419492E-1,-2.286824992E0,3.015077981E0
1.348153375E0,-7.857067394E-1,1.755672693E0,-1.594988575E0,2.498741731E0
1.358176375E0,-8.724338114E-1,1.915068961E0,-2.995570971E0,3.660884500E0
1.368200375E0,6.682262367E-1,4.786109734E-1,-2.001330887E0,2.163543410E0
1.378223375E0,4.935717763E0,-2.128960109E0,-1.324861245E0,5.536157359E0
1.388247375E0,4.147103203E0,-2.009131950E0,-1.110658440E0,4.740109528E0
1.398270375E0,1.124592063E0,-2.341676552E0,-1.465470410E0,2.982576052E0
1.408294375E0,-1.302153291E0,-2.160800537E0,-9.722846666E-1,2.703701098E0
1.418318375E0,-1.254044740E0,-1.798550325E0,2.941377515E-1,2.212222524E0
1.428341375E0,-1.466864678E0,-1.760159261E0,1.002586985E-1,2.293448150E0
1.438365375E0,-1.325359721E0,-1.367160881E0,-1.754658201E0,2.589311233E0
1.448388375E0,-6.860631680E-1,-1.514151111E0,-2.269853448E0,2.813462446E0
1.458412375E0,-9.148705637E-1,-8.005341089E-1,-8.533610711E-1,1.485283853E0
1.468436375E0,-2.021298836E0,-3.521140641E-1,-7.018062115E-2,2.052939019E0
1.478459375E0,-3.172175887E0,-1.469329280E-1,4.157360096E-1,3.202674753E0
1.488483375E0,-3.610193151E0,-6.107241333E-2,7.190264077E-1,3.681606090E0
1.498506375E0,-3.100294896E0,-5.489927387E-1,5.557465652E-1,3.197198103E0
1.508530375E0,-2.282660020E0,-1.027981442E0,-9.635275841E-2,2.505307659E0
1.518554375E0,-1.690210190E0,-6.659867531E-1,-3.002077460E-1,1.841323853E0
1.528577375E0,4.996166863E0,9.239094821E0,1.079073711E1,1.505863751E1
1.538601375E0,2.491333113E0,9.357948834E0,4.085242877E0,1.051033570E1
1.548624375E0,-1.875971553E0,3.014026245E0,-6.325539528E0,7.253693803E0
1.558648375E0,4.488617435E0,6.390572260E0,-6.466634595E-1,7.836151729E0
1.568671375E0,-1.722850517E0,1.352699196E1,-1.359746903E0,1.370389131E1
1.578695375E0,-5.770880252E-1,1.190093859E1,-1.678525406E0,1.203257318E1
1.588719375E0,-2.621073473E0,9.852600474E0,-3.662635074E0,1.083322011E1
1.598742375E0,-1.166775046E0,8.289269017E0,-2.348410206E0,8.694157540E0
1.608766375E0,-3.227358985E-1,7.829768499E0,-1.247450542E0,7.935084502E0
1.618789375E0,-2.180863504E0,4.674786349E0,-1.132948026E0,5.281416880E0
1.628813375E0,-3.813258764E0,2.287903803E0,2.618909419E-1,4.454664194E0
1.638837375E0,-3.998866931E0,-2.501304370E-1,1.413464981E0,4.248692177E0
1.648860375E0,-2.074489787E0,-5.290504589E0,3.613801467E0,6.734427053E0
1.658884375E0,1.205626578E0,-1.340219250E1,6.932909113E0,1.513728932E1
1.668907375E0,3.497944736E0,-1.986664023E1,1.034900686E1,2.267203023E1
1.678931375E0,9.605022347E0,-1.136180426E1,9.692357529E0,1.775637476E1
1.688955375E0,1.224483088E1,-3.260243726E-1,4.016505057E0,1.289086840E1
1.698978375E0,3.869150544E0,-4.461375257E0,3.886439592E0,7.069554994E0
1.709002375E0,-4.348404419E0,-7.354807357E0,3.006105022E0,9.057509573E0
1.719025375E0,-3.429053134E0,-5.248014042E0,1.729806365E0,6.503252021E0
1.729049375E0,-1.648923877E0,-4.326476483E0,7.584493589E-1,4.691758108E0
1.739072375E0,-2.841548002E0,-3.946488742E0,-1.752843956E-1,4.866199036E0
1.749096375E0,-4.480006532E0,-2.976783575E0,-1.469340974E0,5.575900096E0
1.759120375E0,-5.734618160E0,-2.414425271E0,-2.511899525E0,6.710062149E0
1.769143375E0,-5.220102943E0,-1.966941950E0,-3.064759612E0,6.364832036E0
1.779167375E0,-3.934831733E0,-1.843109032E0,-2.867828897E0,5.206188073E0
1.789190375E0,-3.241360728E0,-2.320060565E0,-2.067423427E0,4.490360790E0
1.799214375E0,-2.393079717E0,-2.143499211E0,-1.412253438E0,3.509398691E0
1.809238375E0,-1.457270567E0,-1.123947700E0,-1.086172932E0,2.136976269E0
1.819261375E0,-1.173993141E0,-1.702679962E-1,-1.230810828E0,1.709428671E0
1.829285375E0,1.296052891E-1,1.012895626E0,-9.752207728E-1,1.412023596E0
1.839308375E0,3.857343847E-1,1.516005848E0,9.381513990E-2,1.567120298E0
1.849332375E0,1.162666208E-1,1.438957087E0,2.628887107E0,2.999193700E0
1.859355375E0,1.941369152E-1,1.124758124E0,5.968743013E0,6.076895847E0
1.869379375E0,4.231746912E-2,2.737391549E-1,5.344377326E0,5.351550513E0
1.879403375E0,4.698600304E-1,1.786417937E-1,1.818422087E0,1.886621379E0
1.889426375E0,1.579760964E0,7.441190028E-1,8.567224891E-1,1.945078717E0
1.899450375E0,2.359093361E0,1.469133398E0,8.993710569E-1,2.921051647E0
1.909473375E0,1.907298011E0,1.061590653E0,6.146862066E-1,2.267730044E0
1.919497375E0,1.488180995E0,3.797772413E-1,6.104903908E-1,1.652758889E0
1.929521375E0,1.182011136E0,-9.797009826E-2,-1.281344659E0,1.746021936E0
1.939544375E0,9.110605180E-1,8.514715433E-3,-2.652612770E0,2.804720712E0
1.949568375E0,5.065270427E-1,3.092592359E-3,-1.948891010E0,2.013642317E0
1.959591375E0,2.772238031E-1,-1.731506735E-1,-1.620998014E0,1.653622918E0
1.969615375E0,1.911732540E-1,-1.296737015E-2,-1.548640913E0,1.560449949E0
1.979639375E0,-7.157196611E-2,1.504570448E-1,-9.047757845E-1,9.199886352E-1
1.989662375E0,1.832303962E-1,2.845646900E-1,-1.083019090E-1,3.553586138E-1
1.999686375E0,3.215147075E-1,1.927294904E-1,2.281465141E-1,4.388247891E-1
2.009709375E0,3.941988140E-2,4.138016045E-2,4.799593413E-1,4.833499912E-1
2.019733375E0,1.801205546E-2,3.268365508E-1,6.393779750E-1,7.182971252E-1
2.029757375E0,2.605937371E-1,2.071095479E-1,7.123898911E-1,7.863223369E-1
2.039780375E0,1.512256613E-1,8.175752342E-2,6.336440492E-1,6.565502832E-1
2.049804375E0,-1.816364452E-1,-3.015894431E-1,5.078284136E-1,6.179301644E-1
2.059827375E0,-1.175600249E-1,-3.016730583E-1,4.343710128E-1,5.417611746E-1
2.069851375E0,8.306501931E-1,3.489676774E-2,4.172258071E-1,9.302015383E-1
2.079874375E0,1.373617376E0,2.498667276E-1,5.910775618E-1,1.516123597E0
2.089898375E0,9.453667170E-1,-1.122560155E-1,3.774200094E-1,1.024092528E0
2.099922375E0,2.716905829E-1,-5.880410296E-1,5.843707323E-3,6.477979424E-1
2.109945375E0,-2.063818619E-1,-1.273241149E0,-3.163776362E-1,1.328093108E0
2.119969375E0,-1.676431811E-1,-1.337541810E0,-2.469257243E-1,1.370435931E0
2.129992375E0,-7.900465429E-2,-1.193696212E0,4.535018599E-1,1.279381225E0
2.140016375E0,2.320324275E-1,-3.862594646E-1,1.547427031E0,1.611696571E0
2.150040375E0,-3.572713083E-1,-7.915106857E-1,1.390904084E0,1.639739652E0
2.160063375E0,-4.286377448E-1,2.750120938E-2,1.902563521E0,1.950444714E0
2.170087375E0,-1.029118726E-1,2.926478809E-1,2.130519562E0,2.152985657E0
2.180110375E0,7.101566201E-1,5.348997796E-1,1.343627007E0,1.611140507E0
2.190134375E0,1.083148168E0,-2.577745020E-2,-3.952869078E-1,1.153310960E0
2.200158375E0,1.084566118E0,1.408424681E-1,-1.808810434E0,2.113744415E0
2.210181375E0,7.640191242E-1,7.012448788E-1,-2.420214014E0,2.633041108E0
2.220205375E0,3.538112184E-1,1.220087619E0,-2.243029346E0,2.577785256E0
2.230228375E0,8.387830853E-4,-1.128536010E-1,-1.614026817E0,1.617967616E0
2.240252375E0,-1.506520495E0,-1.912875670E-1,-1.050565801E0,1.846586970E0
2.250276375E0,-4.378123185E-1,9.349931717E-1,-5.657780483E-2,1.033969490E0
2.260299375E0,-5.524537057E-2,-5.029903543E-1,6.229027140E-1,8.025329517E-1
2.270323375E0,-3.202169180E-2,-9.292839503E-1,-3.339765128E-1,9.879951215E-1
2.280346375E0,1.666321390E0,-3.215179819E0,1.681589786E-1,3.625229053E0
2.290370375E0,3.971170132E0,-1.771779082E1,-2.164304774E0,1.828591039E1
2.300393375E0,-3.101509362E0,-1.081154150E1,-1.590225141E0,1.135947208E1
2.310417375E0,-2.949392293E0,-1.493092949E0,8.328773975E-2,3.306838112E0
2.320441375E0,1.580347440E-1,3.726614723E0,5.352144329E-1,3.768167560E0
2.330464375E0,2.177555734E-1,6.084203303E0,9.360444280E-1,6.159636880E0
2.340488375E0,-5.560769328E-1,6.428574484E0,3.655165402E-1,6.462924554E0
2.350511375E0,-1.548497364E0,6.602615688E0,-5.569215631E-1,6.804596949E0
2.360535375E0,-1.998980891E0,6.179941519E0,-1.549391549E0,6.677440823E0
2.370559375E0,-1.865378153E0,5.904474512E0,-2.059057231E0,6.525501635E0
2.380582375E0,-1.848908593E0,5.555816737E0,-1.717820742E0,6.102169344E0
2.390606375E0,-2.117477932E0,5.415312238E0,-8.835739998E-1,5.881328289E0
2.400629375E0,-2.098486468E0,5.051245295E0,2.019124695E-1,5.473526572E0
2.410653375E0,-1.779501266E0,3.908161998E0,1.142669899E0,4.443652715E0
2.420677375E0,-1.439216996E0,2.796053156E0,1.492189700E0,3.480788548E0
2.430700375E0,-1.238845195E0,1.714029408E0,1.364723761E0,2.516963482E0
2.440724375E0,-1.071622429E0,7.936817569E-1,8.145148015E-1,1.562606708E0
2.450747375E0,-9.352706221E-1,2.989277905E-1,2.593378282E-1,1.015551609E0
2.460771375E0,-9.463619131E-1,2.394534212E-1,-6.349133335E-2,9.782484147E-1
2.470795375E0,-9.567576778E-1,5.970925194E-1,-2.137309349E-1,1.147861335E0
2.480818375E0,-9.223058832E-1,1.080347351E0,-1.463511300E-1,1.428011623E0
2.490842375E0,-1.005237527E0,1.585639755E0,1.380223926E-1,1.882499960E0
2.500865375E0,-9.132213566E-1,2.162808471E0,3.621005237E-1,2.375464274E0
2.510889375E0,-6.863309705E-1,2.617612506E0,4.904866683E-1,2.750185922E0
2.520913375E0,-4.713113093E-1,3.093402198E0,6.363314295E-1,3.193147224E0
2.530936375E0,-3.425184909E-1,3.493146511E0,7.879462230E-1,3.597255998E0
2.540960375E0,-3.435689431E-1,3.909581117E0,9.590556335E-1,4.040130176E0
2.550983375E0,-2.766919988E-1,4.135401755E0,1.125369158E0,4.294713248E0
2.561007375E0,-5.055629830E-1,4.646567101E0,9.480149209E-1,4.769162615E0
2.571030375E0,-5.251360989E-1,5.286698636E0,7.603169596E-1,5.366845654E0
2.581054375E0,-3.997700411E-1,5.873252719E0,6.340872681E-1,5.920893535E0
2.591078375E0,-3.980968603E-1,5.971700535E0,4.956801653E-1,6.005446463E0
2.601101375E0,-4.035871035E-1,5.451831608E0,3.660228360E-1,5.478989245E0
2.611125375E0,-2.432889023E-1,4.383434211E0,2.910089064E-1,4.399814900E0
2.621148375E0,4.815123618E-2,3.092915125E0,3.583641529E-1,3.113979348E0
2.631172375E0,8.977697968E-2,2.006482576E0,3.892467706E-1,2.045860524E0
2.641196375E0,-2.926136747E-2,9.751138419E-1,4.052599553E-1,1.056380075E0
2.651219375E0,-6.544569209E-2,1.889785016E-1,5.288689248E-1,5.654187406E-1
2.661243375E0,7.510309964E-2,-5.455422968E-1,8.128120923E-1,9.817944645E-1
2.671266375E0,3.228567897E-1,-1.364485195E0,1.234988079E0,1.868489205E0
2.681290375E0,6.807639827E-1,-2.375165311E0,1.682210029E0,2.989093581E0
2.691314375E0,1.408216228E0,-3.576554704E0,1.918424678E0,4.295948061E0
2.701337375E0,1.915388219E0,-4.576170133E0,5.308909285E-1,4.989177317E0
2.711361375E0,2.057473074E0,-4.576633818E0,-1.779810584E0,5.324142961E0
2.721384375E0,1.901428284E0,-3.846003757E0,-4.022618905E0,5.881210528E0
2.731408375E0,1.916122044E0,-4.071318026E0,-5.914471496E0,7.431562907E0
2.741432375E0,1.613453351E0,-4.858773082E0,-6.153372356E0,8.004679814E0
2.751455375E0,1.495773897E0,-4.779749132E0,-5.538289708E0,7.466993653E0
2.761479375E0,1.868649670E0,-3.526317181E0,-4.958342979E0,6.364898235E0
2.771502375E0,2.001477067E0,-2.227873363E0,-4.115381766E0,5.089763968E0
2.781526375E0,1.485371408E0,-1.527502643E0,-3.268040111E0,3.901240663E0
2.791550375E0,4.834919366E-1,-1.698216197E0,-2.878554153E0,3.376947840E0
2.801573375E0,2.095583618E-2,-2.671471794E0,-2.666910674E0,3.774865989E0
2.811597375E0,4.651992148E-1,-3.893994779E0,-2.741905892E0,4.785149274E0
2.821620375E0,9.497591454E-1,-5.343916565E0,-2.924917603E0,6.165600512E0
2.831644375E0,1.503697751E0,-7.102592388E0,-3.221913181E0,7.942836401E0
2.841668375E0,2.115468682E0,-8.974120057E0,-3.539235142E0,9.876042929E0
2.851691375E0,2.637170565E0,-1.095948074E1,-3.868948523E0,1.191778710E1
2.861715375E0,2.968692198E0,-1.304999950E1,-4.503576951E0,1.412082949E1
2.871738375E0,3.204264822E0,-1.516230030E1,-4.934611470E0,1.626385729E1
2.881762375E0,3.646607271E0,-1.728993836E1,-4.670230783E0,1.827705580E1
2.891785375E0,4.340698666E0,-1.955661969E1,-3.516612557E0,2.033886925E1
2.901809375E0,5.257056761E0,-2.162671062E1,-1.945917116E0,2.234139323E1
2.911833375E0,6.429774917E0,-2.313136760E1,-1.993782862E-1,2.400920499E1
2.921856375E0,7.276057642E0,-2.359767838E1,1.615641672E0,2.474675206E1
2.931880375E0,7.534860084E0,-2.264045643E1,3.438490248E0,2.410783273E1
2.941904375E0,7.050164498E0,-2.015407298E1,4.235344119E0,2.176762773E1
2.951927375E0,6.349418387E0,-1.697456644E1,3.155565702E0,1.839588581E1
2.961951375E0,5.427837558E0,-1.433422698E1,1.056300677E0,1.536382943E1
2.971974375E0,4.339040980E0,-1.203616364E1,-5.942231445E-1,1.280818539E1
2.981998375E0,3.341536980E0,-9.101281795E0,-1.227812815E0,9.772754167E0
2.992021375E0,2.274008772E0,-5.892530989E0,-1.164179467E0,6.422487928E0
3.002045375E0,1.277947865E0,-2.535471405E0,-7.223264301E-1,2.929764746E0
3.012069375E0,4.029018098E-1,8.537203825E-1,-1.626286089E-1,9.579229740E-1
3.022092375E0,-4.766998109E-1,3.716545233E0,2.382847090E-1,3.754561330E0
3.032116375E0,-1.283614402E0,6.025811253E0,3.658332400E-1,6.171863669E0
3.042139375E0,-2.101744829E0,7.824959164E0,4.363310726E-1,8.114043508E0
3.052164292E0,-2.698655792E0,9.284061663E0,5.668584676E-1,9.684930179E0
3.062188292E0,-3.199289719E0,1.034271643E1,8.248434694E-1,1.085760584E1
3.072211292E0,-3.631072388E0,1.106851727E1,1.084531034E0,1.169927215E1
3.082235292E0,-3.906836726E0,1.145661335E1,1.381957698E0,1.218306898E1
3.092258292E0,-4.111133179E0,1.174673816E1,1.609824862E0,1.254905612E1
3.102282292E0,-4.395533562E0,1.210719561E1,1.746321094E0,1.299825135E1
3.112306292E0,-4.753352462E0,1.242913746E1,1.872960237E0,1.343822152E1
3.122329292E0,-5.245134873E0,1.251523069E1,1.689221864E0,1.367464477E1
3.132353292E0,-5.923373882E0,1.250754745E1,1.317939019E0,1.390187270E1
3.142376292E0,-6.595356370E0,1.237644118E1,1.723780224E0,1.412962987E1
3.152400292E0,-7.107036856E0,1.235762017E1,2.416861221E0,1.445897532E1
3.162424292E0,-7.646456534E0,1.243187747E1,2.773163645E0,1.485632227E1
3.172447292E0,-7.990875077E0,1.250498169E1,3.443507159E0,1.523438194E1
3.182471292E0,-8.372651482E0,1.263796609E1,4.236906495E0,1.574073875E1
3.192494292E0,-8.984300644E0,1.257342803E1,4.832196318E0,1.619132088E1
3.202518292E0,-9.377433511E0,1.220357644E1,4.301580209E0,1.598021056E1
3.212542292E0,-9.071198455E0,1.167903793E1,3.264734387E0,1.514414273E1
3.222565292E0,-7.820717593E0,1.123481677E1,2.525268599E0,1.391983164E1
3.232589292E0,-6.284675092E0,1.101132215E1,1.936749852E0,1.282565228E1
3.242612292E0,-5.053030450E0,1.072393033E1,1.553008783E0,1.195607104E1
3.252636292E0,-4.257738078E0,1.013476137E1,1.399462069E0,1.108152588E1
3.262660292E0,-3.833748285E0,9.702120625E0,1.182259350E0,1.049888126E1
3.272683292E0,-3.536107467E0,9.543192134E0,8.886564727E-1,1.021598172E1
3.282707292E0,-3.255802473E0,9.457331620E0,6.950073615E-1,1.002618603E1
3.292730292E0,-2.925460809E0,9.482381676E0,5.562432861E-1,9.938978307E0
3.302754292E0,-2.607397420E0,9.561096894E0,4.948595086E-1,9.922599511E0
3.312778292E0,-2.373435996E0,9.687917154E0,5.043045160E-1,9.987154763E0
3.322801292E0,-2.189265368E0,9.884771855E0,4.126065798E-1,1.013271147E1
3.332825292E0,-2.087336266E0,9.995401175E0,1.672151649E-1,1.021239337E1
3.342848292E0,-2.139887678E0,9.885572923E0,1.097909756E-1,1.011512360E1
3.352872292E0,-2.354805452E0,9.542845395E0,2.495056620E-1,9.832256100E0
3.362896292E0,-2.503521342E0,9.263390586E0,4.514225900E-1,9.606342000E0
3.372919292E0,-2.563122888E0,9.252427057E0,6.702957125E-1,9.624255905E0
3.382943292E0,-2.435463699E0,9.653048453E0,9.151325190E-1,9.997514460E0
3.392966292E0,-2.176117611E0,1.021231650E1,1.154828307E0,1.050526176E1
3.402990292E0,-2.102427784E0,1.039744637E1,1.269541323E0,1.068357752E1
3.413013292E0,-2.203130432E0,1.024461652E1,1.388898197E0,1.057047726E1
3.423037292E0,-2.310991973E0,9.689592381E0,1.548078411E0,1.008094396E1
3.433061292E0,-2.301723259E0,9.170998732E0,1.600011041E0,9.589847915E0
3.443084292E0,-2.189902276E0,8.779410115E0,1.424432165E0,9.159842845E0
3.453108292E0,-2.005280827E0,8.714861532E0,1.251101836E0,9.029685405E0
3.463131292E0,-1.827425630E0,8.814941890E0,1.220474267E0,9.084725774E0
3.473155292E0,-1.684109790E0,8.860872354E0,1.177314798E0,9.096007629E0
3.483179292E0,-1.543155932E0,8.734308202E0,1.216908342E0,8.952671998E0
3.493202292E0,-1.144256249E0,7.793329235E0,1.374158682E0,7.995849862E0
3.503226292E0,3.991196845E-1,3.146313652E0,1.620120639E0,3.561372910E0
3.513249292E0,5.488044584E0,-1.404193285E1,1.609603837E0,1.516197006E1
3.523273292E0,1.458373235E1,-6.277494477E1,2.946974031E-1,6.444738774E1
3.533297292E0,1.756838043E1,-7.007330369E1,-3.521815410E0,7.232785815E1
3.543320292E0,1.511982145E1,-5.677384443E1,-7.732761437E0,5.925937910E1
3.553344292E0,7.780275911E0,-2.734681014E1,-1.457359795E1,3.194949883E1
3.563367292E0,4.550087751E0,-9.819229245E0,-1.172468597E1,1.595583976E1
3.573391292E0,2.702395379E0,-2.435309771E0,-7.656083390E0,8.476395893E0
3.583415292E0,6.778030258E-1,-2.181001498E0,-5.180838890E0,5.661914524E0
3.593438292E0,-8.802845024E-1,-7.827418503E0,-4.871956507E0,9.261713741E0
3.603462292E0,-5.934874917E-1,-1.501319747E1,-4.650601388E0,1.572820457E1
3.613485292E0,-5.151952475E-2,-2.190624261E1,-4.579646888E0,2.237988573E1
3.623509292E0,2.442580052E-1,-2.639714747E1,-4.260677766E0,2.673990336E1
3.633533292E0,1.532338145E-1,-2.654031304E1,-3.334151362E0,2.674936003E1
3.643556292E0,-8.836129569E-2,-2.347311163E1,-3.076993157E0,2.367409268E1
3.653580292E0,-3.487769119E-1,-1.832492359E1,-3.031262083E0,1.857721776E1
3.663604292E0,-4.187985619E-1,-1.404210242E1,-2.695062386E0,1.430452355E1
3.673627292E0,-5.601932265E-2,-1.112409623E1,-2.199755419E0,1.133964633E1
3.683651292E0,4.757952467E-1,-8.926916070E0,-2.727979871E0,9.346554756E0
3.693674292E0,1.018526568E0,-6.796468429E0,-3.935398328E0,7.919390095E0
3.703698292E0,1.265209706E0,-4.311200048E0,-4.657359892E0,6.471337004E0
3.713721292E0,8.988964091E-1,-1.477254011E0,-4.323373951E0,4.656378044E0
3.723745292E0,4.168099239E-1,1.369859371E0,-3.418233154E0,3.706017148E0
3.733769292E0,9.541047961E-3,3.811183587E0,-2.144234791E0,4.372980014E0
3.743792292E0,-3.627713455E-1,5.630482172E0,-8.051042195E-1,5.699309199E0
3.753816292E0,-7.190189525E-1,6.861657282E0,3.096849862E-1,6.906173593E0
3.763839292E0,-9.711274295E-1,7.890085452E0,1.105379939E0,8.026107508E0
3.773863292E0,-1.001529662E0,8.911469480E0,1.676293817E0,9.122900357E0
3.783887292E0,-1.029916140E0,9.916318753E0,2.159517074E0,1.020086363E1
3.793910292E0,-1.226983826E0,1.074399915E1,2.455397880E0,1.108909310E1
3.803934292E0,-1.472544956E0,1.130514357E1,2.653355366E0,1.170533871E1
3.813957292E0,-1.722619552E0,1.177022291E1,2.857574050E0,1.223402203E1
3.823981292E0,-2.126698406E0,1.257962491E1,3.067009621E0,1.312159887E1
3.834005292E0,-2.574293409E0,1.366337943E1,3.384167275E0,1.430969994E1
3.844028292E0,-2.882276198E0,1.460536237E1,3.746364863E0,1.535120111E1
3.854052292E0,-3.272609710E0,1.548090105E1,4.286095612E0,1.639325737E1
3.864075292E0,-3.490998829E0,1.631969349E1,4.954377397E0,1.740877146E1
3.874099292E0,-3.194318416E0,1.715522786E1,6.019589231E0,1.845917029E1
3.884123292E0,-2.554243599E0,1.792106343E1,6.887786150E0,1.936828007E1
3.894146292E0,-1.485275806E0,1.750666657E1,6.742859402E0,1.881902154E1
3.904170292E0,-4.064251592E-1,1.543739426E1,5.494129196E0,1.639096637E1
3.914194292E0,-2.457216730E-1,1.264363555E1,4.044690098E0,1.327710123E1
3.924217292E0,1.671770118E-2,1.063953981E1,3.247615202E0,1.112416699E1
3.934241292E0,3.924989554E-1,9.273539599E0,3.135093723E0,9.797009991E0
3.944264292E0,5.842925258E-1,8.413783135E0,3.211941047E0,9.024949290E0
3.954288292E0,8.995041541E-1,7.923942584E0,3.151221220E0,8.574856791E0
3.964311292E0,1.121657565E0,7.686880090E0,2.963801294E0,8.314466869E0
3.974335292E0,1.423251759E0,7.695797678E0,2.807176606E0,8.314516701E0
3.984359292E0,1.637321832E0,7.820208886E0,2.718146316E0,8.439479201E0
3.994382292E0,1.886066479E0,7.816955495E0,2.585454282E0,8.446692478E0
4.004406292E0,2.208266772E0,7.892982747E0,2.369132153E0,8.531612154E0
4.014429292E0,2.478378607E0,8.131214100E0,2.246016397E0,8.792246181E0
4.024453292E0,2.694274766E0,8.436638732E0,2.245556805E0,9.136657757E0
4.034477292E0,2.670168450E0,8.991724854E0,2.076614081E0,9.606937152E0
4.044500292E0,2.368739805E0,9.689792356E0,1.767027401E0,1.013041904E1
4.054524417E0,2.088253402E0,1.023471953E1,1.552394825E0,1.056031324E1
4.064548417E0,1.757893027E0,1.061528322E1,1.364220901E0,1.084599116E1
4.074571417E0,1.468321512E0,1.073934827E1,1.243255165E0,1.091032780E1
4.084595417E0,1.236466548E0,1.068690459E1,1.301316701E0,1.083661407E1
4.094618417E0,1.025475106E0,1.053899576E1,1.436347621E0,1.068574403E1
4.104642417E0,8.885995355E-1,1.015024831E1,1.522006845E0,1.030211894E1
4.114666417E0,8.686551945E-1,9.360715152E0,1.510651260E0,9.521534395E0
4.124689417E0,7.268212578E-1,8.889452959E0,1.357322356E0,9.021805087E0
4.134713417E0,5.807105215E-1,8.715965486E0,1.230809951E0,8.821574247E0
4.144736417E0,5.489428181E-1,8.433435627E0,1.265533934E0,8.545510566E0
4.154760417E0,5.425842635E-1,7.715793402E0,1.422635901E0,7.864588890E0
4.164784417E0,6.108108182E-1,6.487511494E0,1.963671748E0,6.805652208E0
4.174807417E0,2.739185183E0,1.120338798E0,1.631977769E0,3.379592568E0
4.184831417E0,3.532828640E0,-2.517106587E1,1.479913909E0,2.546082443E1
4.194854417E0,-1.423265353E0,-6.887228092E1,-5.595975999E0,6.911390389E1
4.204878417E0,4.251918344E0,-6.692834835E1,-1.130824025E1,6.800999132E1
4.214902417E0,9.528733140E0,-3.006114612E1,-5.048187786E0,3.193671024E1
4.224925417E0,4.359903261E0,-3.711480959E0,-8.922240636E0,1.060142563E1
4.234949417E0,-2.248216119E0,-8.395118823E0,-1.338673714E1,1.596048956E1
4.244972417E0,-3.647640181E0,-1.301907474E1,-1.140847673E1,1.769053214E1
4.254996417E0,-2.581662363E0,-1.625072675E1,-8.549796388E0,1.854319602E1
4.265020417E0,-1.966678825E0,-2.106264142E1,-6.287481755E0,2.206887210E1
4.275043417E0,-1.028596642E0,-2.648988665E1,-1.900879523E0,2.657791280E1
4.285067417E0,-5.373098557E-1,-2.694316983E1,2.776785411E0,2.709120963E1
4.295090417E0,-1.065010397E0,-2.297946396E1,3.662208227E0,2.329381420E1
4.305114417E0,-2.712511354E0,-1.863777887E1,4.130345960E-1,1.883866016E1
4.315138417E0,-3.107767345E0,-1.657401931E1,-3.285545797E0,1.717996348E1
4.325161417E0,-2.227707010E0,-1.546475221E1,-5.049586440E0,1.642009631E1
4.335185417E0,-9.015397891E-2,-1.220099899E1,-4.721600912E0,1.308304319E1
4.345208417E0,9.923292142E-1,-9.013314528E0,-3.922831492E0,9.879937397E0
4.355232417E0,1.006869632E0,-6.347534414E0,-4.031376865E0,7.586631599E0
4.365256417E0,1.347317185E0,-2.597040832E0,-4.681902995E0,5.520878584E0
4.375279417E0,1.524139179E0,1.131509319E0,-4.865527786E0,5.222707556E0
4.385303417E0,1.386589863E0,3.760685279E0,-3.923265356E0,5.608689354E0
4.395326417E0,9.208499265E-1,5.342366468E0,-2.497551627E0,5.968802912E0
4.405350417E0,3.041177243E-1,6.338354285E0,-7.250442159E-1,6.386932891E0
4.415374417E0,9.773666644E-3,7.290062892E0,7.987132859E-1,7.333693163E0
4.425397417E0,-9.327911468E-2,8.282245342E0,1.831979442E0,8.482949815E0
4.435421417E0,-2.211086958E-1,9.362234843E0,2.490302249E0,9.690301110E0
4.445445417E0,-4.551379839E-1,1.051212898E1,2.796343178E0,1.088721918E1
4.455468417E0,-8.639591494E-1,1.151840556E1,2.983222529E0,1.192978242E1
4.465492417E0,-1.375588326E0,1.224692419E1,3.166231023E0,1.272416654E1
4.475515417E0,-1.849503839E0,1.270683927E1,3.380935519E0,1.327837165E1
4.485539417E0,-2.176048029E0,1.331589812E1,3.745483395E0,1.400274879E1
4.495563417E0,-2.437664298E0,1.387505449E1,4.213383147E0,1.470414710E1
4.505586417E0,-2.576831685E0,1.462182345E1,4.842273117E0,1.561683039E1
4.515610417E0,-2.992925106E0,1.571747004E1,5.020908186E0,1.676919748E1
4.525633417E0,-3.285480309E0,1.656007604E1,4.979320450E0,1.760182182E1
4.535657417E0,-3.163566739E0,1.655707758E1,4.926380929E0,1.756172548E1
4.545681417E0,-2.630854111E0,1.585448901E1,4.763704373E0,1.676243105E1
4.555704417E0,-1.672331889E0,1.363669625E1,4.595447526E0,1.448703961E1
4.565728417E0,-1.044417015E0,9.913698031E0,5.091839590E0,1.119370564E1
4.575751417E0,-6.447804368E-1,7.903297820E0,5.394438847E0,9.590507219E0
4.585775417E0,2.180901803E-2,7.096568002E0,5.309628493E0,8.863064242E0
4.595799417E0,9.152337489E-1,7.021984427E0,4.825550957E0,8.569239181E0
4.605822417E0,1.723117150E0,7.102135136E0,4.362285417E0,8.511109813E0
4.615846417E0,2.586864923E0,7.227569606E0,3.895759469E0,8.608517548E0
4.625869417E0,3.176070425E0,7.388155198E0,3.424643164E0,8.740734601E0
4.635893417E0,3.146789031E0,7.457346470E0,3.182500608E0,8.697275878E0
4.645917417E0,2.991543994E0,7.540006803E0,3.079462436E0,8.676642608E0
4.655940417E0,2.654360210E0,8.171332431E0,3.095125080E0,9.132146576E0
4.665964417E0,2.300356764E0,9.167462336E0,3.322398166E0,1.001859953E1
4.675988417E0,2.072782400E0,9.584529610E0,3.641924528E0,1.046055682E1
4.686011417E0,1.977821279E0,9.823521101E0,3.881139675E0,1.074600340E1
4.696035417E0,1.955485500E0,9.977209318E0,4.085187621E0,1.095707019E1
4.706058417E0,1.979950250E0,1.005854292E1,4.287353933E0,1.111197068E1
4.716082417E0,2.122030282E0,1.004332495E1,4.512616162E0,1.121316607E1
4.726106417E0,2.342417395E0,9.964139621E0,4.734927886E0,1.127787833E1
4.736129417E0,2.539795421E0,9.853615551E0,4.905976485E0,1.129658822E1
4.746153417E0,2.632308898E0,9.645464029E0,4.986477442E0,1.117268919E1
4.756176417E0,2.556998807E0,9.254799272E0,4.768870388E0,1.072061926E1
4.766200417E0,2.541668285E0,9.012602338E0,4.305849845E0,1.030666879E1
4.776224417E0,2.671757138E0,8.712547204E0,3.932529392E0,9.925298605E0
4.786247417E0,2.750561818E0,8.310578610E0,3.621842266E0,9.473597445E0
4.796271417E0,2.753605878E0,7.888499102E0,3.135833103E0,8.924360631E0
4.806294417E0,2.550170136E0,7.485167522E0,2.437305133E0,8.274754188E0
4.816318417E0,2.295550207E0,7.087382026E0,1.870898801E0,7.681197632E0
4.826342417E0,2.096963999E0,6.630798683E0,1.498283522E0,7.114042641E0
4.836365417E0,2.112488064E0,5.590305369E0,9.271447465E-1,6.047620798E0
4.846389417E0,2.829063027E0,1.153293706E0,4.165284535E-1,3.083371521E0
4.856413417E0,1.451594528E0,-1.588564064E1,-5.267373589E-1,1.596051871E1
4.866436417E0,-6.587046307E0,-6.021349009E1,-6.125702162E0,6.088167043E1
4.876460417E0,-1.004692333E1,-7.021399238E1,-1.907919102E1,7.345039771E1
4.886483417E0,-4.760511793E0,-6.579913874E1,-2.545824368E1,7.071287933E1
4.896507417E0,3.750193327E0,-3.702920986E1,-1.055497153E1,3.868635104E1
4.906531417E0,2.337286024E0,-1.835116941E1,-1.722276671E1,2.527552211E1
4.916554417E0,-2.521104504E0,-1.963968407E1,-2.139327340E1,2.915039116E1
4.926578417E0,-3.514947270E0,-2.101216591E1,-1.127779497E1,2.410507478E1
4.936601417E0,-2.975787502E0,-1.913742461E1,-4.744184028E0,1.994000036E1
4.946625417E0,-4.807072002E-1,-1.473552607E1,8.289585936E-1,1.476665095E1
4.956649417E0,1.387118889E0,-1.069621804E1,4.333749250E0,1.162387894E1
4.966672417E0,1.253201279E0,-8.990989859E0,4.824237088E0,1.028015932E1
4.976696417E0,2.418478560E-1,-8.944934265E0,4.477030592E0,1.000570549E1
4.986719417E0,-1.077873248E0,-1.103168216E1,2.724834069E0,1.141422545E1
4.996743417E0,-2.025858933E0,-1.277775197E1,2.226758592E-1,1.293926714E1
5.006767417E0,-2.605934447E0,-1.298768572E1,-2.038350048E0,1.340245297E1
5.016790417E0,-1.880558840E0,-1.071188390E1,-2.703287079E0,1.120663728E1
5.026814417E0,-6.751908553E-1,-6.809292542E0,-1.797010607E0,7.074715170E0
5.036838417E0,2.668836600E-1,-3.067765666E0,-7.723983304E-1,3.174746013E0
5.046861417E0,6.498190556E-1,2.230437952E-1,-5.471730852E-1,8.783004753E-1
5.056884500E0,7.778621149E-1,3.229352301E0,-6.010483070E-1,3.375654725E0
5.066907500E0,7.204117593E-1,5.790921584E0,-5.906354392E-1,5.865374337E0
5.076931500E0,5.612849747E-1,7.711233743E0,-9.611901596E-2,7.732231601E0
5.086955500E0,3.012724509E-1,8.979331681E0,7.882200189E-1,9.018894240E0
5.096978500E0,4.308630489E-2,9.928870386E0,1.359368735E0,1.002158705E1
5.107002500E0,-2.453392651E-1,1.072286146E1,1.854459501E0,1.088480451E1
5.117025500E0,-4.531084154E-1,1.115651787E1,2.392818493E0,1.141922846E1
5.127049500E0,-5.918510022E-1,1.135239959E1,2.706152215E0,1.168548347E1
5.137073500E0,-7.295739077E-1,1.154142020E1,3.045380770E0,1.195872076E1
5.147096500E0,-1.015053687E0,1.187780467E1,3.591079187E0,1.245023805E1
5.157120500E0,-1.338373576E0,1.236794635E1,4.203722669E0,1.313120805E1
5.167144500E0,-1.659178724E0,1.287028883E1,4.830309129E0,1.384662756E1
5.177167500E0,-1.852719808E0,1.340003487E1,5.330460953E0,1.453985279E1
5.187191500E0,-1.783964153E0,1.388949243E1,5.789952700E0,1.515335212E1
5.197214500E0,-1.776995295E0,1.441989453E1,5.734129332E0,1.561958098E1
5.207238500E0,-1.841452516E0,1.464827742E1,5.458050706E0,1.574018095E1
5.217262500E0,-1.895528297E0,1.417968039E1,5.128729674E0,1.519737581E1
5.227285500E0,-1.859189167E0,1.221083166E1,5.105542540E0,1.336516214E1
5.237309500E0,-1.447887978E0,9.174643886E0,5.842773523E0,1.097307944E1
5.247332500E0,-5.817054983E-1,7.900375966E0,6.235857857E0,1.008167868E1
5.257356500E0,1.584672187E-1,7.426073222E0,5.939781754E0,9.510661525E0
5.267380500E0,9.413234404E-1,7.176446230E0,5.585271501E0,9.142358998E0
5.277403500E0,1.850632644E0,7.365415961E0,5.359759596E0,9.295225462E0
5.287427500E0,2.528234891E0,7.860256466E0,5.071196580E0,9.689821367E0
5.297451500E0,2.743558023E0,8.737331212E0,4.567945440E0,1.023397249E1
5.307474500E0,2.638593193E0,9.411052077E0,4.264433140E0,1.066374537E1
5.317498500E0,2.403035918E0,9.700850610E0,4.338013917E0,1.089492767E1
5.327521500E0,2.277469593E0,9.878521181E0,4.571596441E0,1.112077077E1
5.337545500E0,2.244478725E0,9.936241386E0,4.825978974E0,1.127194086E1
5.347569500E0,2.211559486E0,9.927400396E0,5.120016153E0,1.138678354E1
5.357592500E0,2.113315884E0,9.894094656E0,5.213437117E0,1.138152624E1
5.367616500E0,2.088688873E0,9.814411139E0,5.002040976E0,1.121185538E1
5.377639500E0,2.077948854E0,9.758016499E0,4.742524588E0,1.104664188E1
5.387663500E0,2.072146662E0,9.652873036E0,4.461596866E0,1.083409416E1
5.397687500E0,2.083737890E0,9.401247466E0,4.236516193E0,1.052014672E1
5.407710500E0,2.024628094E0,9.012682444E0,3.810912861E0,9.992528239E0
5.417734500E0,1.821612621E0,8.304918505E0,3.308654286E0,9.123438886E0
5.427758500E0,1.701252803E0,7.535610867E0,3.065525013E0,8.311265598E0
5.437781500E0,1.740270980E0,7.006489305E0,2.665856128E0,7.695857611E0
5.447805500E0,2.066038368E0,6.578829215E0,2.037018490E0,7.190198378E0
5.457828500E0,2.578929082E0,5.889420270E0,9.231262475E-1,6.495252759E0
5.467852500E0,3.380273322E0,4.729129786E0,-7.556353864E-1,5.861902516E0
5.477876500E0,3.978575338E0,3.051249620E0,-2.118783908E0,5.443200457E0
5.487899500E0,5.226894484E0,-1.013637053E0,-2.202635611E0,5.761899831E0
5.497923500E0,7.275233184E0,-1.422237910E1,-1.549933147E0,1.605015196E1
5.507947500E0,4.569630607E0,-5.783121281E1,1.847146096E0,5.804087050E1
5.517970500E0,1.478821942E0,-7.045591742E1,-2.478937601E0,7.051502212E1
5.527994500E0,-3.706516673E0,-5.881318017E1,-2.001034842E1,6.223457618E1
5.538017500E0,-8.297513591E0,-3.157576910E1,-3.460968816E1,4.757844512E1
5.548041500E0,-9.964656515E0,-1.942063801E1,-1.143363496E1,2.464109512E1
5.558065500E0,-3.795794300E0,-1.597663150E1,-4.366035236E0,1.699185311E1
5.568088500E0,-6.210257578E-1,-1.734687270E1,-3.571460317E0,1.772159683E1
5.578112500E0,-7.013385804E-1,-1.582831688E1,-3.293198633E0,1.618247967E1
5.588135500E0,-9.924180919E-1,-1.571549602E1,-2.110334681E0,1.588758073E1
5.598159500E0,-1.748707051E0,-1.714174302E1,-1.860221493E-1,1.723171304E1
5.608183500E0,-1.982714960E0,-1.749463885E1,1.246836000E0,1.765072653E1
5.618206500E0,-1.910133911E0,-1.708431049E1,1.446559052E0,1.725151616E1
5.628230500E0,-2.267898578E0,-1.557671703E1,9.233899570E-1,1.576800959E1
5.638254500E0,-2.562871458E0,-1.253242852E1,-4.282743403E-1,1.279896456E1
5.648277500E0,-2.795158239E0,-8.309720238E0,-2.065491507E0,9.007253476E0
5.658301500E0,-3.069660748E0,-4.425308461E0,-3.271209594E0,6.301347816E0
5.668324500E0,-3.312379255E0,-1.300376907E0,-3.034771582E0,4.676823172E0
5.678348500E0,-3.340651712E0,1.753092316E0,-1.693592512E0,4.135401084E0
5.688372500E0,-3.215088311E0,4.683009873E0,-1.103104276E0,5.786554533E0
5.698395500E0,-2.979605441E0,7.564628259E0,-1.269154383E0,8.228754592E0
5.708419500E0,-2.810733175E0,1.020461923E1,-1.102934415E0,1.064194244E1
5.718443500E0,-2.930184190E0,1.240423651E1,-9.463379395E-1,1.278071274E1
5.728466500E0,-3.472156761E0,1.404831450E1,-8.325451295E-1,1.449496962E1
5.738490500E0,-3.838221405E0,1.484957484E1,-3.401467140E-1,1.534136618E1
5.748513500E0,-3.768277011E0,1.502746117E1,3.688550811E-1,1.549711441E1
5.758537500E0,-3.549905434E0,1.503449186E1,1.014626255E0,1.548118990E1
5.768561500E0,-3.113211103E0,1.493019391E1,2.031224192E0,1.538598860E1
5.778584500E0,-2.526946750E0,1.464720270E1,3.321371688E0,1.523015157E1
5.788608500E0,-1.861110270E0,1.418850618E1,4.545818406E0,1.501472291E1
5.798631500E0,-1.270810607E0,1.350088063E1,5.647002311E0,1.468936257E1
5.808655500E0,-7.676987770E-1,1.246791035E1,6.796091284E0,1.422058390E1
5.818679500E0,-8.273366491E-1,1.083442517E1,7.382497432E0,1.313661002E1
5.828702500E0,-1.196972407E0,9.061051782E0,7.624765702E0,1.190262384E1
5.838726500E0,-1.283216791E0,8.033189038E0,7.335410389E0,1.095385855E1
5.848750500E0,-9.633914170E-1,7.494167556E0,6.421620975E0,9.916041868E0
5.858773500E0,-2.990867982E-1,6.771392645E0,5.520316536E0,8.741573424E0
5.868797500E0,5.998782791E-1,4.987579057E0,4.825114755E0,6.965452692E0
5.878820500E0,1.994751307E0,3.157463123E0,4.287169746E0,5.685809580E0
5.888844500E0,2.104192766E0,3.699528666E0,3.013170505E0,5.214723007E0
5.898868500E0,1.857059758E0,6.110930926E0,1.695401348E0,6.608065787E0
5.908891500E0,2.036049314E0,8.097145298E0,1.797873510E0,8.540585925E0
5.918915500E0,2.442085524E0,9.233941669E0,2.514353309E0,9.876812898E0
5.928939500E0,2.791772994E0,9.745182445E0,3.401097888E0,1.069252282E1
5.938962500E0,2.989341055E0,9.988513155E0,4.323782086E0,1.128723379E1
5.948986500E0,3.086900094E0,1.000767097E1,5.061327065E0,1.163182970E1
5.959009500E0,3.155564825E0,9.838191766E0,5.647345542E0,1.177455385E1
5.969033500E0,3.141635880E0,9.322267370E0,6.116636639E0,1.158394530E1
5.979057500E0,2.911974791E0,8.198092214E0,6.365956652E0,1.078024662E1
5.989080500E0,2.746303875E0,7.256895146E0,6.419441718E0,1.007044905E1
5.999104500E0,2.675634427E0,6.956140686E0,6.388878906E0,9.816551661E0
6.009128500E0,2.569642241E0,7.275162433E0,6.158150116E0,9.871872290E0
6.019151500E0,2.466288319E0,7.968873174E0,5.808494221E0,1.016484741E1
6.029175500E0,2.231575382E0,8.365435433E0,5.631239387E0,1.032817969E1
6.039198500E0,2.009489799E0,8.191784238E0,5.486069394E0,1.006182566E1
6.049222500E0,1.861276769E0,7.339336209E0,5.678657382E0,9.464531519E0
6.059247167E0,2.045498123E0,6.323791795E0,6.095942758E0,9.018587658E0
6.069270167E0,2.232430099E0,5.266845585E0,6.231632659E0,8.459116512E0
6.079294167E0,2.427009940E0,4.029438513E0,5.591249694E0,7.306765709E0
6.089318167E0,2.587130679E0,2.267723892E0,3.665348182E0,5.026986582E0
6.099341167E0,2.882536983E0,-6.217110515E-1,1.034725621E0,3.125092191E0
6.109365167E0,3.204303706E0,-6.346778369E0,-1.536392165E0,7.273902583E0
6.119388167E0,2.642549419E0,-1.928316062E1,-3.965244856E0,1.986319505E1
6.129412167E0,2.032045726E0,-3.692669882E1,-8.043829801E0,3.784723891E1
6.139436167E0,5.473370411E0,-4.440217458E1,-1.021600142E1,4.588984175E1
6.149459167E0,7.277471498E0,-4.670550509E1,-7.704416474E0,4.789283694E1
6.159483167E0,2.557161359E-1,-4.968911938E1,-1.792323391E1,5.282344451E1
6.169507167E0,-1.877032121E1,-5.501384655E1,-6.183515688E1,8.486716030E1
6.179530167E0,-1.907288890E1,-3.965188255E1,-3.322753736E1,5.513724802E1
6.189554167E0,5.230036193E0,-1.397618442E1,-3.859755238E0,1.541378344E1
6.199577167E0,2.529916258E0,-1.890373362E1,2.448237234E0,1.922876717E1
6.209601167E0,1.746919630E-2,-1.885603555E1,-2.590026512E0,1.903309274E1
6.219625167E0,1.359960619E0,-1.621019619E1,-9.677994429E0,1.892837895E1
6.229648167E0,2.626586447E-1,-1.383794806E1,-1.048840448E1,1.736561040E1
6.239672167E0,-8.433096343E-1,-1.122162311E1,-5.131495407E0,1.236803305E1
6.249696167E0,-8.872643603E-2,-7.733414571E0,-8.887041275E-1,7.784816525E0
6.259719167E0,4.051254328E-1,-4.783904164E0,9.408509123E-1,4.892347709E0
6.269743167E0,2.881093818E-1,-2.057175597E0,1.648784860E0,2.652068997E0
6.279766167E0,5.246010421E-2,1.061205322E0,1.076820749E0,1.512762944E0
6.289790167E0,-1.515304475E-1,4.544900978E0,7.532746462E-1,4.609393569E0
6.299814167E0,-3.279247908E-1,7.301238091E0,1.039494537E0,7.382151531E0
6.309837167E0,-4.772292398E-1,9.105172532E0,1.336984570E0,9.215174569E0
6.319861167E0,-7.697743924E-1,1.015677965E1,1.949183371E0,1.037073003E1
6.329885167E0,-1.123928258E0,1.110912151E1,2.581729313E0,1.146041542E1
6.339908167E0,-1.477846919E0,1.183480424E1,2.787807412E0,1.224820367E1
6.349932167E0,-1.817542666E0,1.223444857E1,2.617016090E0,1.264254588E1
6.359955167E0,-2.135727823E0,1.251214570E1,2.652571839E0,1.296731510E1
6.369979167E0,-2.374258992E0,1.269324567E1,2.799887760E0,1.321343872E1
6.380003167E0,-2.506666852E0,1.283461263E1,2.878843882E0,1.339023533E1
6.390026167E0,-2.715345500E0,1.310325944E1,2.640682696E0,1.363971093E1
6.400050167E0,-3.125403425E0,1.359182706E1,2.327210833E0,1.413937126E1
6.410074167E0,-3.405757535E0,1.408720200E1,2.063949304E0,1.463927359E1
6.420097167E0,-3.371214231E0,1.413649052E1,2.109213477E0,1.468517045E1
6.430121167E0,-3.193158913E0,1.266933991E1,2.485286508E0,1.329981528E1
6.440144167E0,-2.566394405E0,1.071690081E1,3.225607159E0,1.148228569E1
6.450168167E0,-1.708005606E0,9.770705541E0,3.936653141E0,1.067151385E1
6.460192167E0,-9.757962850E-1,9.064343764E0,4.073633523E0,9.985439216E0
6.470215167E0,-5.164250266E-1,8.517417431E0,4.797195470E0,9.789084681E0
6.480239167E0,-3.618207710E-2,8.203571640E0,5.415494086E0,9.829927415E0
6.490263167E0,3.878393092E-1,8.020963680E0,5.639769305E0,9.812913711E0
6.500286167E0,7.661271185E-1,7.902014356E0,5.640833498E0,9.738982709E0
6.510310167E0,1.148006507E0,7.862651485E0,5.565503234E0,9.701238765E0
6.520333167E0,1.446572209E0,7.904915160E0,5.431989082E0,9.699833000E0
6.530357167E0,1.553685306E0,8.085699958E0,5.145932182E0,9.709433550E0
6.540381167E0,1.591436392E0,8.247768989E0,4.731792024E0,9.640965659E0
6.550404167E0,1.675594197E0,8.378108688E0,4.502582340E0,9.657824228E0
6.560428167E0,1.831154400E0,8.434892169E0,4.686215317E0,9.821463553E0
6.570452167E0,2.027714986E0,8.573301610E0,4.968405452E0,1.011425634E1
6.580475167E0,2.252011108E0,8.583050673E0,4.936265647E0,1.015416326E1
6.590499167E0,2.507660294E0,8.566703612E0,4.992910548E0,1.022770388E1
6.600523167E0,2.808256879E0,8.614435018E0,5.224342175E0,1.045889806E1
6.610546167E0,2.883363780E0,8.629083463E0,5.359087751E0,1.055910458E1
6.620570167E0,2.662536664E0,8.465630397E0,5.168991846E0,1.027007674E1
6.630593167E0,2.323521532E0,8.205488357E0,4.863555520E0,9.817482558E0
6.640617167E0,2.066918812E0,7.631142091E0,4.644497187E0,9.169396769E0
6.650641167E0,2.084727385E0,6.969547182E0,4.591131989E0,8.602276973E0
6.660664167E0,2.225483022E0,6.455547105E0,4.684169376E0,8.280598158E0
6.670688167E0,2.286421095E0,6.039224766E0,4.565775830E0,7.908619736E0
6.680711167E0,2.383639973E0,5.335096040E0,4.309455823E0,7.260605951E0
6.690735167E0,2.448077458E0,3.187224866E0,3.726982805E0,5.481047931E0
6.700759167E0,2.788070537E0,-2.854484966E0,2.470542169E0,4.693080049E0
6.710782167E0,2.096255609E0,-1.474319644E1,-6.681905687E-3,1.489147990E1
6.720806167E0,4.634279470E-1,-3.311628121E1,-5.094373773E0,3.350903596E1
6.730830167E0,5.726007257E-1,-5.129357197E1,-1.075062755E1,5.241120481E1
6.740853167E0,3.933421092E0,-5.721787263E1,-1.143214392E1,5.848119924E1
6.750877167E0,5.178513452E0,-5.227108609E1,-1.723135978E1,5.528112881E1
6.760901167E0,-5.056078604E0,-4.774013949E1,-4.583612703E1,6.637496057E1
6.770924167E0,-9.778478830E0,-3.309265846E1,-1.830927294E1,3.906369373E1
6.780948167E0,-2.111673693E0,-1.796421471E1,-4.069858561E0,1.854011663E1
6.790971167E0,-1.249066713E0,-2.279721560E1,-5.787326131E0,2.355347852E1
6.800995167E0,-2.728891452E0,-2.581496360E1,-2.704833083E0,2.609933555E1
6.811019167E0,-1.972720168E0,-2.277153697E1,-2.982484318E0,2.305059074E1
6.821042167E0,-4.069315281E-1,-1.804215458E1,-2.884224490E0,1.827576773E1
6.831066167E0,2.591921595E-1,-1.371853622E1,-2.119079923E0,1.388365645E1
6.841090167E0,1.496385077E-1,-9.957228212E0,-1.021680336E0,1.001062516E1
6.851113167E0,-2.285713144E-2,-6.659709656E0,7.930944040E-2,6.660221103E0
6.861137167E0,-1.095552597E-1,-3.405397931E0,9.829077418E-1,3.546102798E0
6.871160167E0,-2.684674149E-1,-4.844815779E-1,1.506093210E0,1.604716146E0
6.881184167E0,-4.654243326E-1,2.187583124E0,1.566160486E0,2.730384296E0
6.891208167E0,-7.376868463E-1,4.511063141E0,1.317001272E0,4.756928095E0
6.901231167E0,-1.151534498E0,6.701501461E0,9.741242006E-1,6.869139064E0
6.911255167E0,-1.700612679E0,8.337370552E0,9.369426334E-1,8.560472691E0
6.921279167E0,-2.935011943E0,9.592032757E0,1.113530885E0,1.009263784E1
6.931302167E0,-3.069525678E0,1.101626889E1,2.057242548E0,1.161948429E1
6.941326167E0,-2.647229531E0,1.217613078E1,2.440555162E0,1.269733415E1
6.951349167E0,-2.378178088E0,1.293481753E1,2.215569506E0,1.333694057E1
6.961373167E0,-2.334997570E0,1.357412637E1,2.005619673E0,1.391875104E1
6.971397167E0,-2.330864173E0,1.407759502E1,1.835628104E0,1.438683912E1
6.981420167E0,-2.236223187E0,1.443160066E1,1.867698036E0,1.472277446E1
6.991444167E0,-2.279469194E0,1.472770249E1,2.101123270E0,1.505044582E1
7.001468167E0,-2.303273940E0,1.497540692E1,2.360086803E0,1.533420663E1
7.011491167E0,-2.326974606E0,1.509422234E1,2.564284438E0,1.548631375E1
7.021515167E0,-2.340095173E0,1.504839888E1,2.767189837E0,1.547862054E1
7.031539167E0,-2.382881004E0,1.476942121E1,2.959674329E0,1.525036382E1
7.041562167E0,-2.330097750E0,1.441001742E1,3.256103897E0,1.495594096E1
7.051586167E0,-2.265193948E0,1.349841662E1,3.636631044E0,1.416204223E1
7.061609042E0,-2.657605415E0,1.123044188E1,4.279209054E0,1.230842482E1
7.071633042E0,-3.000354286E0,9.673651702E0,5.088618944E0,1.133471243E1
7.081657042E0,-3.141922978E0,8.969915909E0,5.831405951E0,1.115062181E1
7.091680042E0,-3.178043568E0,8.409143955E0,6.227115101E0,1.093574988E1
7.101704042E0,-3.004398220E0,8.060242935E0,6.196896690E0,1.060167220E1
7.111728042E0,-2.594306674E0,7.860252957E0,5.582691125E0,9.984009408E0
7.121751042E0,-1.990606801E0,7.873554788E0,4.839475809E0,9.453883146E0
7.131775042E0,-1.361879529E0,7.995431812E0,4.259772324E0,9.161184747E0
7.141798042E0,-8.430720180E-1,8.185276871E0,3.705583165E0,9.024459789E0
7.151822042E0,-4.869971231E-1,8.424779994E0,3.333961912E0,9.073554220E0
7.161846042E0,-1.128098565E-1,8.739612796E0,2.772201486E0,9.169441584E0
7.171869042E0,2.479373474E-1,9.119030433E0,2.311714250E0,9.410749797E0
7.181893042E0,5.272242858E-1,9.461550971E0,2.162463778E0,9.719833425E0
7.191917042E0,6.882229102E-1,9.704710942E0,2.286402823E0,9.994133435E0
7.201940042E0,6.864165591E-1,9.805647333E0,2.547052693E0,1.015427815E1
7.211964042E0,6.311925309E-1,9.807415531E0,2.776869903E0,1.021248304E1
7.221988042E0,6.733551950E-1,9.779209732E0,2.862699720E0,1.021182647E1
7.232011042E0,8.347394434E-1,9.826321918E0,2.927642990E0,1.028710289E1
7.242035042E0,1.020871228E0,9.860770204E0,3.038498890E0,1.036867603E1
7.252058042E0,1.205628917E0,9.836127698E0,3.149096050E0,1.039806497E1
7.262082042E0,1.364663827E0,9.603013828E0,3.187128679E0,1.020969986E1
7.272106042E0,1.403708171E0,9.067362682E0,3.157278351E0,9.703394726E0
7.282129042E0,1.423504066E0,8.612494327E0,2.938298371E0,9.210592798E0
7.292153042E0,1.479275978E0,8.326181905E0,2.516793644E0,8.823140755E0
7.302177042E0,1.547819525E0,7.946550844E0,2.036116265E0,8.348004854E0
7.312200042E0,1.714716163E0,6.219094475E0,1.444781499E0,6.610959173E0
7.322224042E0,3.159621038E0,-4.949414281E0,5.031567076E-1,5.893477199E0
7.332247042E0,-1.607513604E0,-5.328602240E1,-2.396272005E0,5.336409282E1
7.342271042E0,-4.302605225E0,-7.020372934E1,-7.180397193E0,7.070101929E1
7.352295042E0,1.568341352E0,-6.188543826E1,-3.948023636E0,6.203107329E1
7.362318042E0,3.365645635E0,-5.740206460E1,2.233414185E0,5.754400690E1
7.372342042E0,2.912566529E0,-4.524465544E1,6.286803478E0,4.577210709E1
7.382366042E0,1.328174278E0,-3.276323569E1,3.302413845E0,3.295602520E1
7.392389042E0,1.042557162E0,-2.354675848E1,-8.022733047E0,2.489781127E1
7.402413042E0,-1.016707280E0,-2.295433496E1,-7.525898641E0,2.417797216E1
7.412437042E0,-2.545707541E0,-2.216142212E1,-1.120008547E1,2.496099300E1
7.422460042E0,-3.079322103E0,-1.832525572E1,-2.027788894E1,2.750436332E1
7.432484042E0,-1.156824254E0,-1.371570383E1,-2.220051426E1,2.612128648E1
7.442507042E0,-2.966142483E-1,-1.145015919E1,-1.604786345E1,1.971618743E1
7.452531042E0,-1.186150380E0,-8.545351335E0,-1.003754206E1,1.323564251E1
7.462555042E0,-1.561444707E0,-5.637566074E0,-6.589850632E0,8.811719024E0
7.472578042E0,-1.664510654E0,-2.788078138E0,-4.036147023E0,5.180198666E0
7.482602042E0,-1.759909585E0,4.371015894E-1,-2.662796280E0,3.221618161E0
7.492626042E0,-1.785053051E0,3.159973918E0,-1.765972563E0,4.036150226E0
7.502649042E0,-1.810944230E0,5.248560172E0,-1.403487293E0,5.726838523E0
7.512673042E0,-1.879821652E0,6.872619057E0,-1.224188272E0,7.229471563E0
7.522697042E0,-1.860212576E0,8.298198300E0,-6.968296462E-1,8.532646565E0
7.532720042E0,-1.644341122E0,9.304746189E0,-5.755589783E-2,9.449099007E0
7.542744042E0,-1.211497183E0,1.008477937E1,5.052351004E-1,1.016984577E1
7.552767042E0,-7.004117967E-1,1.070533268E1,9.970081562E-1,1.077444893E1
7.562791042E0,-3.277823380E-1,1.113144384E1,1.358963084E0,1.121887980E1
7.572815042E0,-5.403156169E-2,1.146987016E1,1.542026542E0,1.157318827E1
7.582838042E0,1.136692510E-1,1.171857095E1,1.457356521E0,1.180939092E1
7.592862042E0,1.554045567E-1,1.193095352E1,1.282490859E0,1.200069103E1
7.602886042E0,9.903557058E-2,1.206149144E1,1.176210698E0,1.211911116E1
7.612909042E0,-1.197330695E-2,1.234446627E1,1.093112335E0,1.239277553E1
7.622933042E0,-1.951656049E-1,1.266026737E1,1.149125226E0,1.271380935E1
7.632957042E0,-4.128750036E-1,1.292228812E1,1.222728807E0,1.298657236E1
7.642980042E0,-6.786046059E-1,1.308489685E1,1.344563877E0,1.317129006E1
7.653004042E0,-1.004390412E0,1.323016040E1,1.517311531E0,1.335470623E1
7.663027042E0,-1.466307439E0,1.328591944E1,1.619776969E0,1.346437486E1
7.673051042E0,-2.034200571E0,1.330672384E1,1.710715352E0,1.356957694E1
7.683075042E0,-2.641234380E0,1.319809660E1,1.796579375E0,1.357915942E1
7.693098042E0,-3.272860555E0,1.312368728E1,1.823731359E0,1.364803209E1
7.703122042E0,-3.823531153E0,1.300857665E1,2.002539214E0,1.370593376E1
7.713146042E0,-4.230340657E0,1.281113021E1,2.210874192E0,1.367145947E1
7.723169042E0,-4.452751198E0,1.260139526E1,2.396602080E0,1.357813895E1
7.733193042E0,-4.566792954E0,1.233704732E1,2.577644448E0,1.340531930E1
7.743216042E0,-4.634145861E0,1.172728681E1,2.790645651E0,1.291480805E1
7.753240042E0,-4.635343079E0,1.082407793E1,2.913006824E0,1.212982594E1
7.763264042E0,-4.455228956E0,1.005266647E1,2.908033183E0,1.137373400E1
7.773287042E0,-4.057712432E0,9.543548230E0,2.873961457E0,1.076122658E1
7.783311042E0,-3.500828583E0,9.237681549E0,2.854055196E0,1.028281052E1
7.793335042E0,-2.982356556E0,9.218474615E0,2.714751130E0,1.006203749E1
7.803358042E0,-2.763462530E0,9.287558883E0,2.460419469E0,9.997456632E0
7.813382042E0,-2.814407858E0,9.393297007E0,2.126648705E0,1.003382056E1
7.823406042E0,-2.879801948E0,9.484073861E0,1.883832842E0,1.008909027E1
7.833429042E0,-2.924304230E0,9.533609717E0,1.791426662E0,1.013165727E1
7.843453042E0,-2.956416553E0,9.570165925E0,1.857947803E0,1.018726876E1
7.853476042E0,-2.880343401E0,9.715561035E0,1.986525006E0,1.032641206E1
7.863500042E0,-2.852070651E0,9.858184565E0,2.202605352E0,1.049616979E1
7.873524042E0,-2.864486044E0,9.837720480E0,2.338082854E0,1.050964585E1
7.883547042E0,-2.815821422E0,9.933456942E0,2.428867893E0,1.060668734E1
7.893571042E0,-2.981903982E0,9.666947869E0,2.583934591E0,1.044118530E1
7.903595042E0,-3.382236525E0,9.034415960E0,2.754002027E0,1.003218435E1
7.913618042E0,-3.803124078E0,8.274104263E0,2.920755554E0,9.563229952E0
7.923642042E0,-3.709507231E0,7.745912409E0,2.978832147E0,9.090271938E0
7.933666042E0,-3.292476502E0,7.370171501E0,2.966649181E0,8.600048653E0
7.943689042E0,-3.847891238E0,4.692844305E0,2.855521678E0,6.706941084E0
7.953713042E0,-6.847614609E0,-2.744371254E1,2.417968683E0,2.838826793E1
7.963736042E0,-1.385540667E1,-7.046167575E1,-3.496057255E0,7.189605316E1
7.973760042E0,-4.347799525E0,-6.630901594E1,-2.651767262E0,6.650429178E1
7.983784042E0,5.385306666E0,-5.247005982E1,8.402039587E-1,5.275238998E1
7.993807042E0,4.355533929E0,-4.337681620E1,9.483400261E-1,4.360525436E1
8.003831042E0,3.487454832E0,-3.193305269E1,1.647624772E0,3.216514981E1
8.013855042E0,2.732384579E0,-2.392531190E1,1.561725812E0,2.413142065E1
8.023878042E0,2.986350497E0,-2.272015632E1,1.143172906E0,2.294407629E1
8.033902042E0,2.612502917E0,-2.332133195E1,-1.068350619E0,2.349151056E1
8.043926042E0,1.311045737E0,-2.183008847E1,-6.188426414E0,2.272813730E1
8.053949042E0,-2.394697934E-1,-1.493801047E1,-3.459658572E1,3.768454916E1
8.063972750E0,2.971267604E0,-1.200712169E1,-4.168207792E1,4.347867319E1
8.073996750E0,8.710508280E0,-7.730282217E0,-3.377188039E1,3.572352338E1
8.084019750E0,9.574777039E0,1.458050585E0,-2.765061509E1,2.929776070E1
8.094043750E0,4.756617840E0,3.583588904E-1,-1.382946843E1,1.462901334E1
8.104066750E0,2.246913652E0,-1.653481489E-1,-4.898943454E0,5.392180258E0
8.114090750E0,8.969330603E-1,1.347292042E0,-7.365375761E-1,1.778249803E0
8.124114750E0,-3.242207258E-1,2.356026204E0,2.888945532E-1,2.395712549E0
8.134137750E0,-7.321251941E-1,4.140574787E0,-6.640331984E-2,4.205327129E0
8.144161750E0,-7.680833045E-1,6.166292948E0,-6.128068384E-1,6.244089438E0
8.154185750E0,-7.520079931E-1,7.947266543E0,-7.084275254E-1,8.014139448E0
8.164208750E0,-7.439693872E-1,9.223174022E0,-3.810548580E-1,9.260973615E0
8.174232750E0,-7.419730747E-1,1.008457823E1,9.893598519E-2,1.011232073E1
8.184256750E0,-7.502688850E-1,1.071285220E1,4.930324730E-1,1.075040402E1
8.194279750E0,-6.717158550E-1,1.101800552E1,8.158105445E-1,1.106856787E1
8.204303750E0,-5.933038891E-1,1.106006454E1,1.277285668E0,1.114937199E1
8.214326750E0,-5.579239952E-1,1.098855075E1,1.645369062E0,1.112505129E1
8.224350750E0,-5.408750858E-1,1.087319221E1,1.885391418E0,1.104869021E1
8.234374750E0,-5.237467273E-1,1.083871936E1,2.029196670E0,1.103946498E1
8.244397750E0,-5.363417760E-1,1.079314148E1,2.076794175E0,1.100421009E1
8.254421750E0,-5.939287372E-1,1.072894373E1,2.036318579E0,1.093661640E1
8.264445750E0,-6.977711941E-1,1.069991114E1,1.883234965E0,1.088676063E1
8.274468750E0,-8.735692676E-1,1.075403998E1,1.702846023E0,1.092301166E1
8.284492750E0,-1.084726916E0,1.091181891E1,1.587702798E0,1.107994696E1
8.294516750E0,-1.235094060E0,1.112143224E1,1.635780944E0,1.130873519E1
8.304539750E0,-1.236655413E0,1.128854332E1,1.770823559E0,1.149331732E1
8.314563750E0,-1.239020904E0,1.135072729E1,1.875304971E0,1.157112577E1
8.324586750E0,-1.220910030E0,1.134838373E1,2.002736850E0,1.158824359E1
8.334610750E0,-1.208323679E0,1.127048946E1,2.204747772E0,1.154750586E1
8.344634750E0,-1.187968571E0,1.117985528E1,2.408969965E0,1.149798111E1
8.354657750E0,-1.193255039E0,1.108473745E1,2.511427070E0,1.142814630E1
8.364681750E0,-1.256507002E0,1.101591572E1,2.516960875E0,1.136944595E1
8.374705750E0,-1.385052776E0,1.097846781E1,2.452068622E0,1.133392109E1
8.384728750E0,-1.562382162E0,1.088400955E1,2.418734815E0,1.125846260E1
8.394752750E0,-1.780545871E0,1.065869996E1,2.462308412E0,1.108337454E1
8.404776750E0,-2.125708327E0,1.033180669E1,2.572820203E0,1.085745225E1
8.414799750E0,-2.497609515E0,1.013129982E1,2.708329426E0,1.078036816E1
8.424823750E0,-2.757518543E0,1.013573084E1,2.815472928E0,1.087491775E1
8.434847750E0,-2.907437351E0,1.013644420E1,2.920478396E0,1.094211529E1
8.444870750E0,-3.203747343E0,1.011343541E1,3.045483973E0,1.103723450E1
8.454894750E0,-3.633126808E0,1.002692235E1,3.073873667E0,1.109898560E1
8.464917750E0,-4.089437377E0,9.918587472E0,3.112365303E0,1.117088597E1
8.474941750E0,-4.576353736E0,9.788294551E0,3.140875157E0,1.125250285E1
8.484965750E0,-5.067110546E0,9.705719002E0,3.184338096E0,1.140248217E1
8.494988750E0,-5.413836401E0,9.718412722E0,3.258441614E0,1.159200639E1
8.505012750E0,-5.631986661E0,9.693171462E0,3.381679870E0,1.170950919E1
8.515036750E0,-5.692561476E0,9.614349825E0,3.554704828E0,1.172505459E1
8.525059750E0,-5.714109635E0,9.240311041E0,3.663275928E0,1.146533853E1
8.535083750E0,-5.604413531E0,8.467409120E0,3.623519540E0,1.078129686E1
8.545107750E0,-5.256672599E0,7.713040532E0,3.544915420E0,9.984489291E0
8.555130750E0,-4.769784600E0,7.525816196E0,3.149803855E0,9.450397815E0
8.565154750E0,-4.385626917E0,7.613243179E0,2.765501746E0,9.211036590E0
8.575177750E0,-4.586102506E0,6.793493950E0,2.583157203E0,8.593986117E0
8.585201750E0,-3.690982375E0,-1.315828174E1,2.332782937E0,1.386382363E1
8.595225750E0,-2.020795683E0,-6.818613121E1,4.160661142E0,6.834283580E1
8.605248750E0,-2.067273154E0,-6.104125936E1,4.787872084E0,6.126363262E1
8.615272750E0,4.741782284E0,-4.031090117E1,3.262486718E0,4.071973812E1
8.625296750E0,8.338293242E0,-3.844435066E1,2.950930696E0,3.944874172E1
8.635319750E0,7.712928851E0,-3.298501356E1,5.111631246E0,3.425827148E1
8.645343750E0,6.120896335E0,-2.974953396E1,6.127983745E0,3.098471119E1
8.655367750E0,5.178142154E0,-2.898399310E1,5.080381386E0,2.987800675E1
8.665390750E0,4.197413816E0,-2.731328221E1,3.338812762E0,2.783489426E1
8.675414750E0,3.106825651E0,-2.504968703E1,1.751900654E0,2.530233867E1
8.685438750E0,1.870692102E0,-2.247869204E1,-5.257196875E-1,2.256252348E1
8.695461750E0,-6.647407115E-2,-2.099835245E1,-1.427633136E1,2.539190543E1
8.705485750E0,-7.680786999E-1,-1.676973965E1,-3.984830689E1,4.324004712E1
8.715509750E0,5.688910475E0,-8.834298513E0,-2.768598841E1,2.961287704E1
8.725532750E0,1.096763760E1,3.680863184E-1,-3.571778464E1,3.736555502E1
8.735556750E0,7.804768143E0,5.882307717E0,-3.047552426E1,3.200427360E1
8.745579750E0,3.244426423E0,4.993254365E0,-1.594205692E1,1.701787503E1
8.755603750E0,1.776954219E0,4.353349117E0,-4.485311419E0,6.498248484E0
8.765627750E0,9.971207882E-1,4.062896281E0,3.102731431E-1,4.194954765E0
8.775650750E0,-1.292185689E-1,3.605960936E0,9.497796106E-1,3.731183863E0
8.785674750E0,-9.246825571E-1,3.703649783E0,1.061001034E-1,3.818810912E0
8.795698750E0,-1.078150041E0,4.825619954E0,-7.090637755E-1,4.995176363E0
8.805721750E0,-1.044956567E0,6.475096686E0,-1.128263530E0,6.655207729E0
8.815745750E0,-1.021764317E0,8.058231493E0,-1.109789836E0,8.198215086E0
8.825769750E0,-9.071556743E-1,9.300824461E0,-6.136839938E-1,9.365088100E0
8.835792750E0,-8.396397024E-1,1.014760888E1,-1.336708581E-1,1.018316398E1
8.845816750E0,-7.732377713E-1,1.064057243E1,9.256728927E-2,1.066903214E1
8.855840750E0,-6.644021577E-1,1.075976090E1,4.115188515E-1,1.078810607E1
8.865863750E0,-5.479608879E-1,1.080224443E1,8.288521743E-1,1.084784503E1
8.875887750E0,-4.660737390E-1,1.080025053E1,1.139111284E0,1.087015229E1
8.885910750E0,-4.209133171E-1,1.078960626E1,1.297093695E0,1.087544129E1
8.895934750E0,-4.199093867E-1,1.081996383E1,1.294060160E0,1.090516084E1
8.905958750E0,-4.611636128E-1,1.078631194E1,1.155810932E0,1.085785872E1
8.915981750E0,-5.168101754E-1,1.072237146E1,9.133491182E-1,1.077360428E1
8.926005750E0,-5.864161249E-1,1.071613248E1,5.958441389E-1,1.074869339E1
8.936029750E0,-7.251287082E-1,1.073083355E1,2.745279809E-1,1.075880876E1
8.946052750E0,-1.000241301E0,1.093663683E1,3.177564096E-1,1.098687749E1
8.956076750E0,-1.142970885E0,1.126928376E1,1.255820539E0,1.139650052E1
8.966100750E0,-1.153968913E0,1.181004479E1,3.010683392E0,1.224226355E1
8.976123750E0,-1.543895897E0,1.245736431E1,4.808337339E0,1.344208496E1
8.986147750E0,-3.247005922E0,1.346881801E1,6.358861055E0,1.524425203E1
8.996171750E0,-2.709450337E0,1.412207362E1,6.562957533E0,1.580653334E1
9.006194750E0,-5.642004696E-1,1.399452012E1,6.607005193E0,1.548603995E1
9.016218750E0,-3.300460875E-1,1.278755892E1,6.128341595E0,1.418404611E1
9.026242750E0,-1.117252053E0,1.103671895E1,5.964290943E0,1.259484751E1
9.036265750E0,-1.744330848E0,9.968977607E0,6.007832819E0,1.176933557E1
9.046289750E0,-1.970426890E0,9.324220340E0,5.778474616E0,1.114515303E1
9.056313375E0,-1.857055957E0,8.837894551E0,5.395932811E0,1.052012965E1
9.066337375E0,-1.670810005E0,8.508631990E0,5.129697388E0,1.007483100E1
9.076361375E0,-1.532980315E0,8.251645108E0,4.958850517E0,9.748326733E0
9.086384375E0,-1.498882569E0,8.051179751E0,4.139524042E0,9.176263054E0
9.096408375E0,-1.525196502E0,7.684309654E0,3.058985487E0,8.410245622E0
9.106432375E0,-1.591541057E0,7.461307374E0,3.181453664E0,8.265939637E0
9.116455375E0,-1.663598050E0,7.667324077E0,3.803789783E0,8.719187673E0
9.126479375E0,-2.039448447E0,8.146041470E0,4.463808283E0,9.510148578E0
9.136503375E0,-2.272444934E0,8.534134621E0,4.897745360E0,1.009868156E1
9.146526375E0,-2.403979805E0,8.742292575E0,5.291108606E0,1.049774398E1
9.156550375E0,-2.434234029E0,8.750976275E0,5.635119014E0,1.068923044E1
9.166574375E0,-2.377922711E0,8.326157346E0,5.824958226E0,1.043597388E1
9.176597375E0,-2.230383427E0,7.138958561E0,5.403176926E0,9.226790366E0
9.186621375E0,-2.172545840E0,6.668634846E0,4.688738975E0,8.436522940E0
9.196644375E0,-2.068470371E0,6.542140276E0,3.754246910E0,7.821287549E0
9.206668375E0,-1.897738983E0,6.238975593E0,2.556127864E0,7.004285785E0
9.216692375E0,-1.539407575E0,4.758572271E0,-1.764466320E0,5.303501404E0
9.226715375E0,4.027700720E0,-2.649714188E1,-7.634516519E0,2.786766483E1
9.236739375E0,9.079552957E0,-7.137291987E1,-3.073370456E1,7.823741157E1
9.246763375E0,1.137622115E1,-6.926745914E1,-1.461416944E1,7.170058055E1
9.256786375E0,1.211502971E1,-6.787384312E1,3.580268855E0,6.903948761E1
9.266810375E0,8.130347543E0,-5.125324489E1,6.630660689E0,5.231599492E1
9.276834375E0,5.081991709E0,-2.830801521E1,7.066013961E0,2.961585586E1
9.286857375E0,4.429765794E0,-1.671485768E1,4.831481788E0,1.795417802E1
9.296881375E0,4.366518216E0,-1.340467873E1,1.195451692E0,1.414853342E1
9.306905375E0,3.839274196E0,-1.275839768E1,-4.465730263E0,1.405202777E1
9.316928375E0,8.027038644E-1,-1.243605822E1,-1.782629760E1,2.175032790E1
9.326952375E0,-7.896952422E0,-5.071000698E0,-6.394730215E1,6.463230120E1
9.336976375E0,-1.671500503E1,-5.199180436E0,-6.294279728E1,6.533160491E1
9.346999375E0,-5.369177706E0,-4.968716524E0,-1.139363065E1,1.353997905E1
9.357023375E0,1.579457640E0,-1.321288889E0,3.717863195E0,4.250058529E0
9.367047375E0,5.438027501E-1,1.647755896E0,3.432899140E0,3.846507173E0
9.377070375E0,-4.397875080E-1,2.982171784E0,2.295803976E0,3.789126218E0
9.387094375E0,-1.293055608E0,3.707490234E0,6.211567354E-1,3.975338015E0
9.397117375E0,-1.570703627E0,5.310014409E0,-8.899104081E-2,5.538165970E0
9.407141375E0,-1.309295373E0,7.310454472E0,-3.217570746E-1,7.433742434E0
9.417165375E0,-9.699783786E-1,8.846066034E0,-4.490133910E-1,8.910407138E0
9.427188375E0,-8.477530796E-1,9.941707363E0,-3.991813727E-1,9.985768691E0
9.437212375E0,-8.939424288E-1,1.067074757E1,-2.150724323E-1,1.071028678E1
9.447236375E0,-1.004023426E0,1.096359367E1,1.931042969E-1,1.101116426E1
9.457259375E0,-1.071541591E0,1.090352990E1,6.450028503E-1,1.097502594E1
9.467283375E0,-1.067150478E0,1.069927145E1,1.144817143E0,1.081313211E1
9.477307375E0,-9.913435929E-1,1.056797223E1,1.950195086E0,1.079203688E1
9.487330375E0,-9.457221546E-1,1.052641957E1,2.761534703E0,1.092364286E1
9.497354375E0,-1.014420433E0,1.062024867E1,3.574616936E0,1.125151621E1
9.507378375E0,-1.250023025E0,1.100496740E1,4.855843627E0,1.209343137E1
9.517401375E0,-1.602729704E0,1.162571483E1,5.957074310E0,1.316103043E1
9.527425375E0,-1.885445212E0,1.221767057E1,6.383868427E0,1.391330851E1
9.537449375E0,-2.597431718E0,1.262997411E1,6.117745271E0,1.427199022E1
9.547472375E0,-3.305366104E0,1.286585547E1,5.446981927E0,1.435706426E1
9.557496375E0,-3.469424065E0,1.266988487E1,4.824497289E0,1.399423667E1
9.567519375E0,-3.503771779E0,1.210159164E1,4.299231090E0,1.331196172E1
9.577543375E0,-3.519256083E0,1.107141866E1,4.230556419E0,1.236361930E1
9.587567375E0,-3.502024046E0,9.881076415E0,4.530025662E0,1.142020035E1
9.597590375E0,-3.524188502E0,9.139811438E0,4.728674288E0,1.087733507E1
9.607614375E0,-3.473772932E0,8.815319620E0,4.981079877E0,1.070458384E1
9.617638375E0,-3.415952740E0,8.882878350E0,5.321741000E0,1.090390701E1
9.627661375E0,-3.313657456E0,9.016909397E0,5.929056791E0,1.128887484E1
9.637685375E0,-3.199749017E0,9.074409746E0,6.377824745E0,1.154382755E1
9.647709375E0,-3.125771214E0,9.123227565E0,6.401549238E0,1.157512676E1
9.657732375E0,-3.137206029E0,9.126989663E0,6.105495939E0,1.142020502E1
9.667756375E0,-3.158688700E0,9.112616038E0,5.688185420E0,1.119698793E1
9.677780375E0,-3.150235965E0,9.161663067E0,5.244726153E0,1.101667868E1
9.687803375E0,-3.073338647E0,9.270126579E0,4.818705037E0,1.089038913E1
9.697827375E0,-2.972748996E0,9.322128791E0,4.466194240E0,1.075575254E1
9.707851375E0,-2.872422762E0,9.437514821E0,4.191250558E0,1.071839912E1
9.717874375E0,-2.868251943E0,9.539292626E0,4.081762907E0,1.076502492E1
9.727898375E0,-2.949144956E0,9.597554283E0,4.071289374E0,1.083447744E1
9.737922375E0,-3.016236493E0,9.649721387E0,4.142435371E0,1.092586730E1
9.747945375E0,-3.089403287E0,9.689395915E0,4.230390358E0,1.101476320E1
9.757969375E0,-3.174413324E0,9.690429702E0,4.357785692E0,1.108925714E1
9.767992375E0,-3.296795256E0,9.149547637E0,4.434320190E0,1.068860498E1
9.778016375E0,-3.350913575E0,8.105084063E0,4.502697237E0,9.858767259E0
9.788040375E0,-3.042397521E0,7.678265387E0,4.441594126E0,9.377616990E0
9.798063375E0,-2.520953061E0,7.745901300E0,4.219750764E0,9.173902539E0
9.808087375E0,-2.158935276E0,7.777961583E0,3.958776958E0,8.990528512E0
9.818111375E0,-1.792102308E0,7.321720887E0,3.374811146E0,8.258848449E0
9.828134375E0,-1.256552026E0,-7.257636573E0,-8.383211553E-2,7.366087119E0
9.838158375E0,-2.934431022E-1,-6.542160507E1,-1.813564922E1,6.788942695E1
9.848182375E0,4.330332722E0,-7.028118858E1,-2.207375364E1,7.379327781E1
9.858205375E0,9.820189358E0,-6.680339101E1,-2.673801033E0,6.757424347E1
9.868229375E0,7.429961035E0,-5.079253108E1,4.080995167E0,5.149504885E1
9.878253375E0,5.904956322E0,-3.255904624E1,7.625956196E0,3.395755010E1
9.888276375E0,7.155907300E0,-2.324341897E1,5.694337860E0,2.497777048E1
9.898300375E0,7.972293795E0,-1.853149871E1,1.876690615E0,2.026069792E1
9.908324375E0,8.306375631E0,-1.797211663E1,-6.033677512E0,2.069778048E1
9.918347375E0,9.015830585E0,-1.459243067E1,-2.612301363E1,3.125117718E1
9.928371375E0,1.225831690E1,-4.032518241E0,-6.148244348E1,6.282211706E1
9.938395375E0,1.136076696E1,-1.637116887E0,-5.560603852E1,5.677832947E1
9.948418375E0,7.099424366E0,-8.249712603E0,-1.186457943E1,1.610055370E1
9.958442375E0,4.501941485E0,-6.608800288E0,-5.675706585E-1,8.016598708E0
9.968466375E0,2.228206509E0,-3.107321495E0,7.584430732E-2,3.824408905E0
9.978489375E0,8.992085043E-1,-1.786371160E-1,2.464836748E-1,9.493373243E-1
9.988513375E0,1.001629503E-1,2.861171842E0,2.630652089E-1,2.874985258E0
9.998536375E0,-3.207240178E-1,5.336149124E0,5.252590366E-1,5.371521984E0
1.000856038E1,-5.175658549E-1,7.083400657E0,9.733475442E-1,7.168671057E0
1.001858438E1,-7.412968442E-1,8.284795897E0,1.389243475E0,8.433111021E0
1.002860738E1,-1.041406065E0,9.109999993E0,1.693226330E0,9.324357451E0
1.003863138E1,-1.411516104E0,9.634281229E0,1.905062621E0,9.921744610E0
1.004865538E1,-1.762323316E0,9.961354008E0,2.039356792E0,1.031956071E1
1.005867779E1,-1.953027038E0,1.009383086E1,2.510339195E0,1.058307796E1
1.006870179E1,-1.937627080E0,1.010738003E1,3.284876876E0,1.080296005E1
1.007872579E1,-1.921019087E0,1.017275424E1,3.832845182E0,1.103929098E1
1.008874879E1,-1.988360008E0,1.024249281E1,4.174764334E0,1.123792204E1
1.009877279E1,-2.082654985E0,1.035484355E1,4.581016013E0,1.151285996E1
1.010879679E1,-2.447821935E0,1.072037172E1,5.279883707E0,1.219817092E1
1.011881979E1,-2.954625551E0,1.130216032E1,5.970028231E0,1.311906540E1
1.012884379E1,-3.254205014E0,1.184669046E1,6.422645992E0,1.386305546E1
1.013886779E1,-3.755419861E0,1.235647879E1,6.472398196E0,1.444568049E1
1.014889079E1,-4.214719820E0,1.277910150E1,5.911171328E0,1.469732101E1
1.015891479E1,-4.790523212E0,1.281882398E1,5.340357365E0,1.468981884E1
1.016893879E1,-5.469407753E0,1.251540611E1,4.948645957E0,1.452717826E1
1.017896179E1,-5.839315479E0,1.184821775E1,4.736836417E0,1.403265793E1
1.018898579E1,-5.812969095E0,1.075114444E1,6.434655004E0,1.381240390E1
1.019900979E1,-5.520196669E0,1.017589420E1,1.008090384E1,1.535076598E1
1.020903279E1,-5.182481373E0,1.044975088E1,1.389298322E1,1.814029739E1
1.021905679E1,-5.029462078E0,1.131999433E1,1.521618824E1,1.962065608E1
1.022908079E1,-5.406440842E0,1.152261204E1,1.235248397E1,1.773651745E1
1.023910379E1,-5.827081350E0,1.014469696E1,9.380910265E0,1.499570708E1
1.024912779E1,-5.133832539E0,8.608631072E0,8.008686281E0,1.282980208E1
1.025915079E1,-3.852471362E0,7.931204826E0,7.300356916E0,1.144730347E1
1.026917479E1,-2.885069705E0,7.608731468E0,6.868285101E0,1.064846289E1
1.027919879E1,-2.209676682E0,7.423516819E0,6.439731556E0,1.007280574E1
1.028922179E1,-1.728432269E0,7.397490862E0,5.950535953E0,9.649830428E0
1.029924579E1,-1.466709727E0,7.578265135E0,5.539573172E0,9.500958415E0
1.030926979E1,-1.383986828E0,7.836778725E0,5.065248207E0,9.433305875E0
1.031929279E1,-1.251325200E0,8.059510864E0,4.769564452E0,9.448294830E0
1.032931679E1,-1.080003170E0,8.309375253E0,4.704290814E0,9.609499259E0
1.033934079E1,-1.009052251E0,8.525810525E0,4.721585709E0,9.798010163E0
1.034936379E1,-1.020786955E0,8.693564218E0,4.690442854E0,9.930776354E0
1.035938779E1,-1.074474043E0,8.823425031E0,4.544213346E0,9.982845219E0
1.036941179E1,-1.138020998E0,8.447899300E0,4.321839057E0,9.557216499E0
1.037943479E1,-1.305159052E0,7.650101688E0,4.012939425E0,8.736771647E0
1.038945879E1,-1.335301741E0,7.442948871E0,3.586518944E0,8.369207655E0
1.039948279E1,-1.211732314E0,7.534270685E0,3.165297223E0,8.261515385E0
1.040950579E1,-9.429212652E-1,7.429630083E0,2.958429750E0,8.052379168E0
1.041952979E1,5.465260908E-2,4.860953509E0,2.305370606E0,5.380203486E0
1.042955379E1,2.524195927E0,-3.183579478E1,-1.215071878E0,3.195881403E1
1.043957679E1,2.607154469E0,-7.143600431E1,-6.071725345E0,7.174096330E1
1.044960079E1,1.047446238E1,-6.907364499E1,-6.399422021E0,7.015579375E1
1.045962479E1,1.309847759E1,-6.710556108E1,-2.529087415E-1,6.837243893E1
1.046964779E1,8.856623767E0,-5.229344584E1,5.091137924E0,5.328192891E1
1.047967179E1,5.798482034E0,-3.384563249E1,4.344388844E0,3.461246808E1
1.048969579E1,5.041072310E0,-2.589928747E1,2.004202162E0,2.646133647E1
1.049971879E1,3.317055565E0,-2.293847732E1,-3.120767752E0,2.338623079E1
1.050974279E1,1.221787990E0,-2.290587090E1,-1.232317890E1,2.603905578E1
1.051976679E1,-1.350285816E-1,-1.831542070E1,-2.866556309E1,3.401745692E1
1.052978979E1,-3.445786403E0,-9.445678704E0,-5.397926361E1,5.490769700E1
1.053981379E1,-3.450629360E0,2.431447685E-2,-5.839531476E1,5.849718130E1
1.054983679E1,-2.614086050E0,-3.646506114E0,-2.407239744E1,2.448695104E1
1.055986079E1,-2.199352107E0,-9.692483829E0,-1.284332732E0,1.002152199E1
1.056988479E1,-2.227061624E0,-5.650789552E0,3.264764793E0,6.895644654E0
1.057990779E1,-2.293826594E0,-8.380001432E-1,3.265126151E0,4.077368448E0
1.058993179E1,-2.222171744E0,2.939528625E0,2.200621830E0,4.292040568E0
1.059995579E1,-2.109464908E0,5.226238427E0,1.519114813E0,5.837047207E0
1.060997879E1,-1.822167229E0,6.950540807E0,1.213590778E0,7.287188312E0
1.062000279E1,-1.542831412E0,8.451581292E0,1.265705842E0,8.683983324E0
1.063002679E1,-1.376997944E0,9.696791473E0,1.503139050E0,9.908749427E0
1.064004979E1,-1.366636385E0,1.047059036E1,1.814524333E0,1.071417080E1
1.065007379E1,-1.434426080E0,1.088950360E1,2.121538239E0,1.118658980E1
1.066009779E1,-1.445163468E0,1.098697434E1,2.428583719E0,1.134460760E1
1.067012079E1,-1.489990124E0,1.108905971E1,2.684256731E0,1.150619616E1
1.068014479E1,-1.636675715E0,1.133334469E1,2.786717491E0,1.178512637E1
1.069016879E1,-1.972868980E0,1.191422346E1,2.673253733E0,1.236880020E1
1.070019179E1,-2.328297392E0,1.258206905E1,2.473214346E0,1.303250626E1
1.071021579E1,-2.696366900E0,1.312939533E1,2.431872193E0,1.362223985E1
1.072023979E1,-3.268712248E0,1.363977422E1,2.636966790E0,1.427170328E1
1.073026279E1,-4.077716634E0,1.405638834E1,2.780140543E0,1.489761751E1
1.074028679E1,-4.825815251E0,1.437831732E1,3.171061993E0,1.549451955E1
1.075031079E1,-5.365883970E0,1.445520938E1,3.760218086E0,1.587088621E1
1.076033379E1,-5.925243237E0,1.435089622E1,4.446359315E0,1.615013439E1
1.077035779E1,-6.373480264E0,1.438108656E1,5.168647445E0,1.655753055E1
1.078038179E1,-6.462949680E0,1.395257453E1,5.583322624E0,1.635902033E1
1.079040479E1,-6.378746266E0,1.243666166E1,5.582961266E0,1.505086089E1
1.080042879E1,-5.939506935E0,1.107707994E1,5.215931540E0,1.360828367E1
1.081045279E1,-5.091053724E0,1.058979170E1,4.839003939E0,1.270741812E1
1.082047579E1,-4.491906201E0,1.029880150E1,4.639968811E0,1.215614430E1
1.083049979E1,-4.110305213E0,1.008100207E1,4.419798045E0,1.174971602E1
1.084052379E1,-3.965193108E0,9.952227674E0,4.084235987E0,1.146518973E1
1.085054679E1,-3.940244501E0,9.899483449E0,3.761503304E0,1.129930115E1
1.086057079E1,-3.925175934E0,9.878091996E0,3.594567929E0,1.122072307E1
1.087059479E1,-3.953324137E0,9.797744821E0,3.383876669E0,1.109392611E1
1.088061779E1,-4.040606110E0,9.751355935E0,3.245244156E0,1.104296382E1
1.089064179E1,-4.044206533E0,9.618472697E0,3.134306103E0,1.089470047E1
1.090066579E1,-3.865432592E0,9.464950542E0,2.928200522E0,1.063490556E1
1.091068879E1,-3.588291235E0,9.498645707E0,2.866717634E0,1.055074283E1
1.092071279E1,-3.371725570E0,9.607369419E0,2.889417110E0,1.058389398E1
1.093073579E1,-3.219855545E0,9.632420645E0,2.910174433E0,1.056504200E1
1.094075979E1,-3.080191291E0,9.629002948E0,2.877958906E0,1.051132359E1
1.095078379E1,-2.958541431E0,9.589623120E0,2.823323692E0,1.042520962E1
1.096080679E1,-2.879979411E0,9.452540411E0,2.782780853E0,1.026589845E1
1.097083079E1,-2.793510786E0,9.182739941E0,2.817829649E0,1.000332841E1
1.098085479E1,-2.739717279E0,8.864397056E0,2.886669503E0,9.716812582E0
1.099087779E1,-2.761738478E0,8.541044276E0,2.958653698E0,9.451469116E0
1.100090179E1,-2.639605638E0,8.419616318E0,3.009870922E0,9.322916916E0
1.101092579E1,-2.450940109E0,8.412161703E0,3.046406079E0,9.276430452E0
1.102094879E1,-2.406889818E0,8.059884501E0,2.950131381E0,8.913929096E0
1.103097279E1,-2.256547524E0,5.001215349E0,1.717737712E0,5.749329051E0
1.104099679E1,1.053540791E0,-3.748413961E1,-3.756082643E0,3.768658684E1
1.105101979E1,6.804250488E0,-7.163306016E1,-8.459771487E0,7.245109293E1
1.106104400E1,1.104975005E1,-6.778177052E1,-2.349854176E-1,6.867692924E1
1.107106800E1,1.302714507E1,-6.052103024E1,2.376495844E0,6.195279932E1
1.108109100E1,8.996658150E0,-4.534752434E1,2.217321478E0,4.628449347E1
1.109111500E1,6.368662743E0,-3.262346618E1,3.462426410E0,3.341913834E1
1.110113900E1,5.665536230E0,-2.567782768E1,2.784592613E0,2.644244866E1
1.111116200E1,4.819765137E0,-2.207048388E1,3.780939741E-1,2.259379007E1
1.112118600E1,3.245890273E0,-1.917622206E1,-4.258410215E0,1.990973013E1
1.113121000E1,1.701624101E0,-1.677009750E1,-1.227414999E1,2.085153358E1
1.114123300E1,2.115142554E-1,-9.202462015E0,-3.951449169E1,4.057246725E1
1.115125700E1,-2.549405320E0,-3.704799346E0,-5.406529252E1,5.425201251E1
1.116128100E1,1.279105175E0,-3.706876277E0,-3.421415676E1,3.443814113E1
1.117130400E1,3.725203789E0,-1.334424074E0,-1.158719571E1,1.224422048E1
1.118132800E1,1.673443299E0,3.642569768E-1,-1.570032367E0,2.323380565E0
1.119135200E1,1.012292339E0,3.563435306E0,4.673656082E-1,3.733796670E0
1.120137500E1,4.329170296E-1,5.409100156E0,7.525600433E-1,5.478332618E0
1.121139900E1,-1.281016776E-1,6.590140069E0,3.695557602E-1,6.601736713E0
1.122142300E1,-4.410455364E-1,7.584284259E0,7.865561206E-2,7.597504564E0
1.123144600E1,-6.044861774E-1,8.494167148E0,-3.241836691E-1,8.521817537E0
1.124147000E1,-9.601389764E-1,9.483694376E0,-8.335756282E-1,9.568551312E0
1.125149400E1,-1.357189185E0,1.028655743E1,-9.601935017E-1,1.042003828E1
1.126151700E1,-1.620039363E0,1.077470170E1,-6.360741520E-1,1.091436277E1
1.127154100E1,-1.750718201E0,1.092821217E1,2.018700041E-2,1.106757620E1
1.128156500E1,-1.744512258E0,1.086977860E1,7.395278422E-1,1.103368983E1
1.129158800E1,-1.666742682E0,1.073462489E1,1.370294111E0,1.094933371E1
1.130161200E1,-1.619049575E0,1.069963047E1,1.869124610E0,1.098166839E1
1.131163600E1,-1.611967135E0,1.063129172E1,2.260393238E0,1.098781959E1
1.132165900E1,-1.628198860E0,1.055608835E1,2.512481908E0,1.097244722E1
1.133168300E1,-1.654457244E0,1.053767897E1,2.673140005E0,1.099661695E1
1.134170700E1,-1.698164157E0,1.049675548E1,2.741867008E0,1.098105058E1
1.135173000E1,-1.747997930E0,1.046311060E1,2.821739682E0,1.097699390E1
1.136175400E1,-1.833482176E0,1.047949801E1,2.862575466E0,1.101707192E1
1.137177800E1,-2.082740355E0,1.071387897E1,2.734234053E0,1.125171302E1
1.138180100E1,-2.306670734E0,1.099998089E1,2.648131171E0,1.154698697E1
1.139182500E1,-2.464219282E0,1.107881773E1,2.655511819E0,1.165608519E1
1.140184900E1,-2.621751458E0,1.114539647E1,2.705099716E0,1.176482076E1
1.141187200E1,-2.765243884E0,1.129551320E1,2.859207762E0,1.197540234E1
1.142189600E1,-2.882464478E0,1.143290172E1,2.947154856E0,1.215341783E1
1.143192000E1,-2.968008658E0,1.154335212E1,2.635943235E0,1.220681163E1
1.144194300E1,-3.053241767E0,1.156840276E1,2.634261283E0,1.225110445E1
1.145196700E1,-3.214067679E0,1.126629584E1,3.041241526E0,1.210408208E1
1.146199100E1,-3.665423903E0,1.046309306E1,3.588805790E0,1.165294708E1
1.147201400E1,-4.399613457E0,9.691572833E0,4.366917873E0,1.150448409E1
1.148203800E1,-5.136837423E0,9.288292124E0,5.231165875E0,1.183319761E1
1.149206200E1,-5.645870290E0,9.157815599E0,5.840358038E0,1.224137328E1
1.150208500E1,-5.757282552E0,9.531055654E0,6.276162715E0,1.278192250E1
1.151210900E1,-5.695996131E0,1.028328299E1,6.606330425E0,1.348457944E1
1.152213300E1,-5.682139984E0,1.095823879E1,6.800650942E0,1.409320990E1
1.153215600E1,-5.627314151E0,1.128601616E1,6.542498710E0,1.420722051E1
1.154218000E1,-5.419163214E0,1.143751868E1,5.952328709E0,1.398622110E1
1.155220400E1,-5.118018159E0,1.140970582E1,5.335698888E0,1.359577800E1
1.156222700E1,-4.761585634E0,1.109870645E1,4.780824435E0,1.298885156E1
1.157225100E1,-4.350999121E0,1.076436149E1,4.335753676E0,1.239360446E1
1.158227500E1,-3.975747917E0,1.052297907E1,4.065555010E0,1.196112025E1
1.159229800E1,-3.584743729E0,1.024026035E1,3.938552609E0,1.154233582E1
1.160232200E1,-3.246151351E0,9.763198886E0,3.912958761E0,1.100766993E1
1.161234600E1,-3.170504168E0,8.946566223E0,3.999654258E0,1.030001835E1
1.162236900E1,-3.145127252E0,8.089218813E0,4.237244757E0,9.658236359E0
1.163239300E1,-2.818765203E0,7.625381999E0,4.621753272E0,9.351603671E0
1.164241600E1,-2.975270315E0,5.739893517E0,4.543076062E0,7.901781517E0
1.165244000E1,-3.839432071E0,-1.755339986E-1,1.069492580E0,3.989469287E0
1.166246400E1,-3.412040952E0,-4.825372149E1,-5.860815107E0,4.872794696E1
1.167248800E1,-4.210166301E-1,-7.179507949E1,-1.403555588E1,7.315536565E1
1.168251100E1,1.474777598E1,-6.835150918E1,-1.008181250E1,7.064749569E1
1.169253500E1,1.875543771E1,-6.149440922E1,-1.457690865E1,6.592279632E1
1.170255900E1,1.351805624E1,-4.841528240E1,-6.994359841E0,5.075133973E1
1.171258200E1,1.054148200E1,-3.189648654E1,-3.470090940E0,3.377203322E1
1.172260600E1,1.001772584E1,-2.158652153E1,-6.752592677E0,2.473722399E1
1.173263000E1,9.975014273E0,-1.466310362E1,-1.503768210E1,2.325165372E1
1.174265300E1,7.919991036E0,-9.203589358E0,-2.901491318E1,3.145310003E1
1.175267700E1,1.513273737E0,-5.161550680E0,-4.880631144E1,4.910180892E1
1.176270000E1,2.152373238E-1,-8.884655319E0,-3.687814588E1,3.793390397E1
1.177272400E1,2.282411075E0,-1.009014946E1,-1.760645983E1,2.042077237E1
1.178274800E1,1.900149205E0,-8.658184471E0,-7.891220981E0,1.186785970E1
1.179277100E1,1.485019113E0,-4.782687943E0,-3.665825315E0,6.206259821E0
1.180279500E1,7.467555124E-1,-8.071426320E-1,-3.026486077E0,3.220052950E0
1.181281900E1,-5.435060039E-2,2.278923064E0,-2.976350881E0,3.749014389E0
1.182284200E1,-9.544955362E-1,4.972969204E0,-3.506065350E0,6.159056638E0
1.183286600E1,-1.544397588E0,6.943802476E0,-3.015880398E0,7.726389280E0
1.184289000E1,-2.047634257E0,8.303297072E0,-9.336880732E-1,8.602867065E0
1.185291300E1,-2.351062649E0,9.083720852E0,8.454699612E-1,9.421056180E0
1.186293700E1,-2.452794700E0,9.778619163E0,1.526125624E0,1.019640397E1
1.187296100E1,-2.562821757E0,1.039322936E1,1.874301004E0,1.086739509E1
1.188298400E1,-2.595472609E0,1.084080799E1,2.514355940E0,1.142722983E1
1.189300800E1,-2.719064914E0,1.113409380E1,3.018323364E0,1.185207301E1
1.190303200E1,-3.117407942E0,1.143256492E1,3.303230116E0,1.230175200E1
1.191305500E1,-3.846504863E0,1.189037384E1,3.027856665E0,1.285863545E1
1.192307900E1,-4.407530002E0,1.241173732E1,2.487366947E0,1.340390011E1
1.193310300E1,-4.748487286E0,1.278669353E1,2.036329104E0,1.379109492E1
1.194312600E1,-5.124152473E0,1.311669050E1,1.753471216E0,1.419081286E1
1.195315000E1,-5.640144696E0,1.357652138E1,1.793446290E0,1.481045626E1
1.196317400E1,-6.063851484E0,1.404560257E1,1.636434371E0,1.538594046E1
1.197319800E1,-6.291673039E0,1.431233266E1,1.436907492E0,1.570008659E1
1.198322100E1,-6.479920054E0,1.428455020E1,1.009755817E0,1.571805793E1
1.199324500E1,-6.523920937E0,1.406529482E1,1.560668489E0,1.558299550E1
1.200326800E1,-6.565624448E0,1.381537547E1,2.349511675E0,1.547553646E1
1.201329200E1,-6.322950965E0,1.356572041E1,3.144880500E0,1.529374880E1
1.202331600E1,-6.180439117E0,1.286928428E1,4.238024483E0,1.489218443E1
1.203333900E1,-5.957056183E0,1.201681403E1,4.717462252E0,1.421776311E1
1.204336300E1,-5.152859963E0,1.205788137E1,4.216074035E0,1.377387923E1
1.205338700E1,-4.597682624E0,1.197628581E1,3.659125575E0,1.334013895E1
1.206341325E1,-4.285402717E0,1.161498402E1,3.584669470E0,1.288884732E1
1.207343725E1,-3.849286968E0,1.113901365E1,3.480856833E0,1.228865328E1
1.208346125E1,-3.260325587E0,1.104832333E1,3.115951985E0,1.193332846E1
1.209348425E1,-2.858019608E0,1.080399392E1,3.005533165E0,1.157271750E1
1.210350825E1,-2.466320187E0,1.051030932E1,3.024912007E0,1.121157571E1
1.211353225E1,-2.194640713E0,1.021259834E1,3.080143052E0,1.089040375E1
1.212355525E1,-2.116875376E0,9.857451324E0,3.089881882E0,1.054504045E1
1.213357925E1,-2.073108675E0,9.580113793E0,3.084113019E0,1.027560767E1
1.214360325E1,-1.976873592E0,9.402494677E0,3.090839071E0,1.009297882E1
1.215362625E1,-1.830032904E0,9.254491709E0,3.135134361E0,9.941011250E0
1.216365025E1,-1.687250329E0,9.097068291E0,3.164444114E0,9.778403332E0
1.217367425E1,-1.588065180E0,8.937621152E0,3.040850347E0,9.573389876E0
1.218369725E1,-1.580232103E0,8.735533778E0,2.692287590E0,9.276588616E0
1.219372125E1,-1.651936363E0,8.550348950E0,2.459723650E0,9.049176833E0
1.220374525E1,-1.751859431E0,8.331216357E0,2.551226728E0,8.887459439E0
1.221376825E1,-1.775826291E0,8.085472502E0,2.640271929E0,8.689042551E0
1.222379225E1,-1.744560644E0,7.775433832E0,2.511573543E0,8.355169943E0
1.223381625E1,-1.844032307E0,7.276149443E0,2.197703193E0,7.821298178E0
1.224383925E1,-2.537262992E0,5.671950041E0,9.252479097E-1,6.282101914E0
1.225386325E1,-5.133496324E0,-4.757178880E0,-1.636996727E0,7.187718253E0
1.226388725E1,-8.319828320E0,-4.405699707E1,-3.181807713E0,4.494844195E1
1.227391025E1,-2.285322842E0,-7.034105003E1,2.000419160E0,7.040658845E1
1.228393425E1,8.777020358E0,-5.320759954E1,3.759236923E0,5.405753044E1
1.229395825E1,1.238352918E1,-4.325998415E1,4.177038023E0,4.519099103E1
1.230398125E1,1.108416442E1,-3.789688053E1,3.590741218E0,3.964751792E1
1.231400525E1,8.430219659E0,-3.048651469E1,2.494255259E0,3.172881168E1
1.232402925E1,7.443475120E0,-2.672481608E1,1.647038881E0,2.779089516E1
1.233405325E1,6.201469213E0,-2.594002853E1,-1.216406505E-1,2.667129725E1
1.234407625E1,3.013125190E0,-2.363232664E1,-3.826836584E0,2.412903777E1
1.235410025E1,1.427389541E0,-2.154964665E1,-8.420222089E0,2.318026859E1
1.236412325E1,2.809139517E0,-1.926885950E1,-1.434440698E1,2.418557882E1
1.237414725E1,4.255332241E0,-1.481754028E1,-1.982077467E1,2.511036561E1
1.238417125E1,4.345635470E0,-9.868272182E0,-2.322806886E1,2.560879783E1
1.239419425E1,3.931057940E0,-5.777223312E0,-2.263854790E1,2.369247511E1
1.240421825E1,4.236946256E0,-4.064247572E0,-1.632205811E1,1.734587567E1
1.241424225E1,3.010274087E0,-3.308632944E0,-1.173015662E1,1.255409799E1
1.242426625E1,3.700943984E-1,-2.573007022E0,-7.568431288E0,8.002405086E0
1.243428925E1,-9.217727633E-1,-2.792460626E-1,-4.037932763E0,4.151209991E0
1.244431325E1,-1.698206842E0,2.560853584E0,-2.165135078E0,3.758947654E0
1.245433625E1,-2.261536369E0,5.112540488E0,-1.782233670E0,5.867620799E0
1.246436025E1,-2.631873865E0,7.042360804E0,-1.350540755E0,7.638426937E0
1.247438425E1,-2.786642647E0,8.363249744E0,-2.451282171E-1,8.818696693E0
1.248440825E1,-2.730909326E0,9.072262064E0,9.003367245E-1,9.517058943E0
1.249443125E1,-2.616965512E0,9.565709762E0,1.500970902E0,1.003016577E1
1.250445525E1,-2.541387618E0,1.007695346E1,1.859168117E0,1.055746883E1
1.251447925E1,-2.510569283E0,1.053918054E1,2.031282080E0,1.102285768E1
1.252450225E1,-2.577226665E0,1.094041063E1,2.141384712E0,1.144203699E1
1.253452625E1,-3.143473660E0,1.159390948E1,2.188147380E0,1.221016596E1
1.254455025E1,-3.703000157E0,1.239652520E1,2.190355435E0,1.312187883E1
1.255457325E1,-4.447970807E0,1.340051318E1,2.218728464E0,1.429268882E1
1.256459725E1,-5.700270445E0,1.468232810E1,2.618731663E0,1.596626434E1
1.257462125E1,-6.117095060E0,1.520066505E1,3.496332074E0,1.675420568E1
1.258464425E1,-5.682743416E0,1.487503128E1,4.021037526E0,1.642342446E1
1.259466825E1,-4.854398780E0,1.460396839E1,3.289005010E0,1.573717364E1
1.260469225E1,-3.925400759E0,1.419653908E1,2.847858025E0,1.500202614E1
1.261471525E1,-3.623069889E0,1.354840329E1,2.303919619E0,1.421245626E1
1.262473925E1,-3.111216325E0,1.265268470E1,1.980834496E0,1.317929446E1
1.263476325E1,-3.168796781E0,1.251045001E1,2.463717591E0,1.313858961E1
1.264478625E1,-3.626095823E0,1.267185070E1,3.699869851E0,1.368990168E1
1.265481025E1,-4.159636125E0,1.224358426E1,5.359580086E0,1.399760790E1
1.266483425E1,-4.595475593E0,1.133023631E1,6.790173901E0,1.398567526E1
1.267485725E1,-4.318752896E0,1.047578269E1,7.588323516E0,1.363731290E1
1.268488125E1,-3.365316437E0,9.902271402E0,7.479317383E0,1.285770283E1
1.269490525E1,-2.734590733E0,9.443523420E0,6.757655196E0,1.192996332E1
1.270492825E1,-2.468358818E0,9.039157467E0,5.945397420E0,1.109715790E1
1.271495225E1,-2.299574115E0,8.733388435E0,5.266825705E0,1.045464335E1
1.272497625E1,-2.046682915E0,8.581963676E0,4.675213780E0,9.984820248E0
1.273499925E1,-1.680520330E0,8.599737457E0,4.178195480E0,9.707571806E0
1.274502325E1,-1.293633313E0,8.698211585E0,3.797479760E0,9.578790344E0
1.275504725E1,-8.982310691E-1,8.879116251E0,3.549360181E0,9.604347045E0
1.276507025E1,-5.852902070E-1,9.163338295E0,3.338196466E0,9.769999436E0
1.277509425E1,-5.037548777E-1,9.435700430E0,3.068788051E0,9.934972153E0
1.278511825E1,-4.927721257E-1,9.544513021E0,2.909578894E0,9.990305426E0
1.279514125E1,-4.778174331E-1,9.581724116E0,2.859605666E0,1.001074878E1
1.280516525E1,-4.675660215E-1,9.622317241E0,2.844811918E0,1.004492717E1
1.281518925E1,-4.348491689E-1,9.671683529E0,2.842491742E0,1.009010978E1
1.282521225E1,-3.638087147E-1,9.686373489E0,2.797944438E0,1.008893856E1
1.283523625E1,-2.974982194E-1,9.400239991E0,2.765754346E0,9.803183880E0
1.284526025E1,-3.500033654E-1,8.923350438E0,2.827536027E0,9.367157807E0
1.285528325E1,-4.004280721E-1,8.609549670E0,2.722358650E0,9.038579799E0
1.286530725E1,-4.526533558E-1,7.936341605E0,2.161437592E0,8.237853215E0
1.287533125E1,-1.198144554E0,3.633795437E0,9.310696900E-1,3.937881463E0
1.288535425E1,-2.001908738E0,-2.960805707E1,-1.814631922E0,2.973108762E1
1.289537825E1,-4.783440480E-1,-7.038211620E1,-2.293909478E0,7.042111270E1
1.290540225E1,8.337575789E0,-6.887547584E1,-6.932223819E0,6.972375541E1
1.291542525E1,1.283477167E1,-6.049486279E1,-4.721720195E0,6.202140299E1
1.292544925E1,1.149735558E1,-3.665485708E1,2.376647726E0,3.848916974E1
1.293547325E1,1.057453865E1,-2.332276802E1,2.184508073E0,2.570105934E1
1.294549625E1,8.625131330E0,-1.908114633E1,-2.438991762E0,2.108154920E1
1.295552025E1,2.079176331E0,-1.972218594E1,-9.474505477E0,2.197848599E1
1.296554425E1,-3.316336650E0,-2.214161877E1,-1.577944702E1,2.739051512E1
1.297556725E1,-4.729630893E0,-2.398564347E1,-2.141748087E1,3.250213821E1
1.298559125E1,-3.916147540E0,-1.993258279E1,-1.900613240E1,2.781864729E1
1.299561525E1,-1.390465689E0,-1.426739798E1,-1.103934084E1,1.809306735E1
1.300563825E1,-4.905384162E-1,-1.057729035E1,-6.193460866E0,1.226697422E1
1.301566225E1,-9.043951307E-1,-7.865713087E0,-3.872844815E0,8.813983202E0
1.302568625E1,-1.307349858E0,-5.000069879E0,-2.037185136E0,5.555176480E0
1.303570925E1,-1.480213433E0,-2.193346725E0,-1.561352760E-3,2.646092232E0
1.304573325E1,-1.956131764E0,7.006116253E-1,1.280581012E0,2.440736744E0
1.305575725E1,-2.626621311E0,3.311688699E0,2.046941800E0,4.696423350E0
1.306578017E1,-3.112382845E0,5.748597683E0,2.056398063E0,6.852888098E0
1.307580417E1,-3.472402929E0,8.098805323E0,1.615044086E0,8.958604643E0
1.308582817E1,-3.863650361E0,1.012989883E1,1.364972852E0,1.092729588E1
1.309585117E1,-4.332551740E0,1.171796167E1,1.248443399E0,1.255548650E1
1.310587517E1,-4.776370611E0,1.282781583E1,1.254676239E0,1.374557338E1
1.311589917E1,-4.758253013E0,1.343047197E1,1.801191512E0,1.436185364E1
1.312592217E1,-4.862820525E0,1.384289597E1,2.936576951E0,1.496316399E1
1.313594617E1,-5.007471870E0,1.433232546E1,4.388454630E0,1.580344462E1
1.314597017E1,-5.012373590E0,1.507770980E1,5.464503694E0,1.680244097E1
1.315599417E1,-4.805091550E0,1.611503393E1,6.528005801E0,1.803879383E1
1.316601717E1,-4.466405032E0,1.672442373E1,7.692606268E0,1.894284335E1
1.317604117E1,-4.256197629E0,1.671700244E1,8.063626134E0,1.904193938E1
1.318606517E1,-3.876239416E0,1.648490306E1,7.483164266E0,1.851418398E1
1.319608817E1,-3.127522748E0,1.552756183E1,5.993609467E0,1.693546366E1
1.320611217E1,-2.006360369E0,1.403632070E1,5.065621845E0,1.505670300E1
1.321613617E1,-1.337281609E0,1.238969565E1,4.819414304E0,1.336112400E1
1.322615917E1,-1.099634392E0,1.115231021E1,4.743411318E0,1.216894284E1
1.323618317E1,-1.232673313E0,9.861704589E0,4.918513500E0,1.108893484E1
1.324620717E1,-1.755499907E0,8.500199720E0,5.209415987E0,1.012290423E1
1.325623017E1,-2.210589579E0,7.539436115E0,5.355806293E0,9.508652074E0
1.326625417E1,-2.224972267E0,7.021327200E0,5.298703555E0,9.073356413E0
1.327627817E1,-1.748758360E0,7.028076641E0,5.251229426E0,8.945805026E0
1.328630117E1,-1.063253090E0,7.295304337E0,5.248152037E0,9.049589620E0
1.329632517E1,-4.641976599E-1,7.509941590E0,5.282650609E0,9.193535751E0
1.330634917E1,-4.760183545E-2,7.583297249E0,5.245859928E0,9.221047093E0
1.331637217E1,2.500445926E-1,7.606183836E0,5.128542563E0,9.177064000E0
1.332639617E1,4.575581099E-1,7.584245083E0,4.980125027E0,9.084700225E0
1.333642017E1,6.500166915E-1,7.576888701E0,4.820826115E0,9.004006248E0
1.334644317E1,8.324139326E-1,7.555017775E0,4.705871317E0,8.939599062E0
1.335646717E1,9.809806457E-1,7.536689093E0,4.640817534E0,8.905121723E0
1.336649117E1,1.103241320E0,7.546576150E0,4.570650946E0,8.891501733E0
1.337651417E1,1.172121886E0,7.670096242E0,4.507141998E0,8.973214311E0
1.338653817E1,1.156166881E0,7.897169938E0,4.630297809E0,9.227224539E0
1.339656217E1,1.108693922E0,8.347019042E0,4.723654746E0,9.654783440E0
1.340658517E1,1.075548615E0,8.587937776E0,4.637096366E0,9.818968519E0
1.341660917E1,1.186754251E0,8.234308698E0,4.521862949E0,9.468868460E0
1.342663317E1,1.094345074E0,7.589963660E0,4.418551711E0,8.850352463E0
1.343665617E1,9.418813379E-1,7.253150005E0,4.082673611E0,8.376368501E0
1.344668017E1,8.793380575E-1,6.912239206E0,3.614723573E0,7.849746032E0
1.345670417E1,9.260138950E-1,6.170991771E0,3.018711619E0,6.931901688E0
1.346672717E1,1.185138811E0,3.101341547E0,2.015701296E0,3.884060390E0
1.347675117E1,1.753246391E0,-7.970536122E0,-1.115482101E0,8.236966632E0
1.348677517E1,-9.025961617E-1,-4.269104539E1,-6.530688504E0,4.319710556E1
1.349679817E1,-4.050867389E0,-6.677024431E1,-1.309243508E1,6.816221027E1
1.350682217E1,8.608357130E-1,-5.953782795E1,-1.701238857E1,6.192669344E1
1.351684617E1,2.587243237E0,-4.399097031E1,-8.431406643E0,4.486633386E1
1.352686917E1,1.973242763E0,-3.045077650E1,-4.312277105E0,3.081783916E1
1.353689317E1,1.412114128E0,-2.232745731E1,-9.738275714E0,2.439966045E1
1.354691717E1,-2.797142419E-1,-1.947344305E1,-2.030718817E1,2.813672184E1
1.355694117E1,-2.896025414E-2,-2.058026718E1,-2.205037647E1,3.016234968E1
1.356696417E1,1.088982958E0,-2.194150834E1,-1.883332964E1,2.893630898E1
1.357698817E1,-1.807529163E0,-2.164322315E1,-1.392164276E1,2.579744963E1
1.358701217E1,-2.324051583E0,-2.203546607E1,-6.934010144E0,2.321730987E1
1.359703517E1,-6.046136102E-1,-1.997325603E1,-2.794139947E0,2.017681174E1
1.360705917E1,7.843216802E-1,-1.627069616E1,-1.236956106E0,1.633648599E1
1.361708317E1,1.083016752E0,-1.210735232E1,-1.564143928E0,1.225591497E1
1.362710617E1,1.081092360E0,-8.267096375E0,-2.050075908E0,8.585828696E0
1.363713017E1,9.196994868E-1,-4.645430987E0,-2.025418930E0,5.150553179E0
1.364715417E1,5.746003639E-1,-1.293905793E0,-1.619485485E0,2.151067413E0
1.365717717E1,3.356104806E-1,1.771664243E0,-9.319840483E-1,2.029783942E0
1.366720117E1,2.887639593E-1,4.609327354E0,-2.950795917E-1,4.627780813E0
1.367722517E1,2.847151279E-1,6.990939220E0,2.160683593E-1,7.000069958E0
1.368724817E1,1.996639410E-1,8.657042509E0,9.016830459E-1,8.706163507E0
1.369727217E1,1.132164938E-1,9.780942847E0,1.750054395E0,9.936918603E0
1.370729617E1,-6.454041520E-2,1.054519615E1,2.354548613E0,1.080505560E1
1.371731917E1,-2.402601725E-1,1.105287013E1,2.704864658E0,1.138156210E1
1.372734317E1,-4.393649004E-1,1.132669407E1,3.082025270E0,1.174674081E1
1.373736717E1,-7.396403280E-1,1.168705095E1,3.451585964E0,1.220850824E1
1.374739017E1,-1.080633719E0,1.201621995E1,3.914286664E0,1.268380666E1
1.375741417E1,-1.343320905E0,1.254352186E1,4.596870739E0,1.342667764E1
1.376743817E1,-1.496635631E0,1.337060350E1,5.048074350E0,1.436996906E1
1.377746117E1,-1.535073911E0,1.425186310E1,5.487085640E0,1.534862087E1
1.378748517E1,-1.456041628E0,1.505293047E1,6.509817452E0,1.646476530E1
1.379750917E1,-1.105853272E0,1.564925408E1,7.258929977E0,1.728624104E1
1.380753217E1,-6.721369276E-1,1.612441520E1,6.812721934E0,1.751746882E1
1.381755617E1,-1.132847600E-1,1.623369732E1,6.301185290E0,1.741409481E1
1.382758017E1,4.884576114E-1,1.576760290E1,6.062846932E0,1.690011849E1
1.383760417E1,1.277998443E0,1.468622000E1,5.769806703E0,1.583063509E1
1.384762717E1,1.242172699E0,1.200583998E1,5.518154821E0,1.327151910E1
1.385765117E1,5.474784561E-1,9.851793559E0,5.396744404E0,1.124644029E1
1.386767517E1,3.093475288E-1,8.628412787E0,5.636269162E0,1.031080662E1
1.387769817E1,2.869600750E-1,7.970818543E0,5.694517370E0,9.800195019E0
1.388772217E1,4.884359036E-1,7.583643989E0,5.593775691E0,9.436130153E0
1.389774617E1,9.103262539E-1,7.460451341E0,5.446501871E0,9.281778425E0
1.390776917E1,1.376498153E0,7.456125571E0,5.290471845E0,9.245412270E0
1.391779317E1,1.515210334E0,7.312796282E0,5.265814136E0,9.137923743E0
1.392781717E1,1.416038487E0,7.133131226E0,5.314699783E0,9.007372528E0
1.393784017E1,1.266280038E0,7.135135067E0,5.330441072E0,8.995955734E0
1.394786417E1,1.164090955E0,7.332596124E0,5.249626120E0,9.092889973E0
1.395788817E1,1.068526620E0,7.644542740E0,5.272276479E0,9.347603014E0
1.396791117E1,9.967421810E-1,8.083873288E0,5.303997039E0,9.719819284E0
1.397793517E1,9.111672297E-1,8.529815868E0,5.334924717E0,1.010195061E1
1.398795917E1,9.010856067E-1,8.830283815E0,5.372412386E0,1.037538830E1
1.399798217E1,9.039350279E-1,8.950896671E0,5.449045994E0,1.051797281E1
1.400800617E1,9.126865556E-1,9.020446962E0,5.581253879E0,1.064668282E1
1.401803017E1,8.816635682E-1,9.085310125E0,5.681183964E0,1.075155998E1
1.402805317E1,8.210853908E-1,9.149458759E0,5.701336977E0,1.081166130E1
1.403807717E1,6.890339921E-1,9.209537730E0,5.657236692E0,1.083026685E1
1.404810117E1,3.376092417E-1,9.320978644E0,5.399739348E0,1.077737482E1
1.405812417E1,-6.167628452E-1,8.807756247E0,4.741361577E0,1.002184993E1
1.406814517E1,-8.409127144E-1,7.337935216E0,4.012552339E0,8.405534112E0
1.407816917E1,5.103164770E-2,6.890025634E0,2.970491971E0,7.503257960E0
1.408819317E1,9.581955812E-1,6.519104000E0,1.267860248E0,6.710016792E0
1.409821617E1,2.038365543E0,4.217658046E0,-8.393385708E-3,4.684404330E0
1.410824017E1,4.391971146E0,-2.224130912E1,-2.512350930E0,2.280958458E1
1.411826417E1,-5.152165899E0,-6.971179607E1,-1.427239033E1,7.134409892E1
1.412828717E1,-7.806842735E0,-6.907649375E1,-2.156367997E1,7.278393419E1
1.413831117E1,5.095134350E-1,-6.393858278E1,-1.228869436E1,6.511078237E1
1.414833517E1,2.629885519E0,-3.973740626E1,-4.553415109E0,4.008380401E1
1.415835817E1,1.066185541E0,-2.014378422E1,-1.241461999E1,2.368610529E1
1.416838217E1,-2.469165442E0,-1.194995697E1,-2.778534664E1,3.034672531E1
1.417840617E1,-6.846433471E0,-1.705943410E1,-3.281605008E1,3.761370875E1
1.418842917E1,-1.754397561E0,-2.127899074E1,-2.024120585E1,2.942073711E1
1.419845317E1,2.544056872E0,-2.150909972E1,-1.101725357E1,2.430007145E1
1.420847717E1,1.331788296E0,-2.242704241E1,-3.036242741E0,2.267078873E1
1.421850017E1,1.930545079E0,-1.787331974E1,7.193841112E-1,1.799166686E1
1.422852417E1,3.244275565E0,-1.134906083E1,6.664130151E-1,1.182246218E1
1.423854817E1,3.494136445E0,-6.135866961E0,-5.510907197E-1,7.082482181E0
1.424857117E1,3.042352497E0,-2.353993127E0,-9.363263369E-1,3.959027579E0
1.425859517E1,2.330550470E0,5.639522552E-1,-8.658111088E-1,2.549340408E0
1.426861917E1,1.510487684E0,2.514148949E0,2.693256766E-2,2.933128593E0
1.427864317E1,7.117910631E-1,3.995067410E0,1.062511297E0,4.194775367E0
1.428866617E1,2.779807617E-1,5.756045866E0,1.768320512E0,6.027959418E0
1.429869017E1,-6.274570372E-2,7.404302868E0,2.396097465E0,7.782603745E0
1.430871417E1,-4.700063204E-1,8.653968628E0,3.169182405E0,9.227989818E0
1.431873717E1,-7.499317199E-1,9.706519486E0,3.999841077E0,1.052509604E1
1.432876117E1,-1.068499285E0,1.074731101E1,4.841207462E0,1.183569492E1
1.433878517E1,-1.429664838E0,1.170268056E1,5.787336656E0,1.313354253E1
1.434880817E1,-2.000505406E0,1.249710900E1,6.748599613E0,1.434305937E1
1.435883217E1,-2.661352603E0,1.321008807E1,7.557351399E0,1.545000922E1
1.436885617E1,-3.034212003E0,1.371386312E1,8.198071164E0,1.626299035E1
1.437887917E1,-3.125608662E0,1.418990366E1,9.057431186E0,1.712191155E1
1.438890317E1,-3.021593127E0,1.482697301E1,9.716155697E0,1.798257032E1
1.439892717E1,-2.229746958E0,1.508123217E1,1.041290524E1,1.846195901E1
1.440895017E1,-9.905678136E-1,1.453360300E1,1.054360805E1,1.798261692E1
1.441897417E1,1.379602294E-1,1.269665108E1,1.013763820E1,1.624794418E1
1.442899817E1,7.018571553E-1,9.117178035E0,9.721994142E0,1.334663661E1
1.443902117E1,8.536608870E-1,6.267946208E0,9.520023712E0,1.143008040E1
1.444904517E1,9.473108431E-1,4.962125543E0,9.561890361E0,1.081433470E1
1.445906917E1,9.169312687E-1,4.087831732E0,9.618737576E0,1.049148435E1
1.446909317E1,8.754883238E-1,3.424733503E0,9.573211155E0,1.020498169E1
1.447911617E1,9.095633385E-1,3.000520347E0,9.617547083E0,1.011571252E1
1.448914017E1,9.046210525E-1,2.748866125E0,9.761270474E0,1.018120845E1
1.449916417E1,7.845307182E-1,2.603932945E0,9.865488907E0,1.023346601E1
1.450918717E1,6.711249939E-1,2.500246024E0,1.003780051E1,1.036624705E1
1.451921117E1,6.280865631E-1,2.464606075E0,1.034810288E1,1.065607851E1
1.452923517E1,5.948700658E-1,2.623142803E0,1.080935347E1,1.113897980E1
1.453925817E1,5.565321751E-1,3.004943181E0,1.124114345E1,1.164915094E1
1.454928217E1,5.175791574E-1,3.670437598E0,1.152964741E1,1.211085339E1
1.455930617E1,4.748325757E-1,4.563212119E0,1.147952742E1,1.236235902E1
1.456932917E1,3.187949482E-1,5.208353548E0,1.122631959E1,1.237977498E1
1.457935317E1,1.588537562E-1,5.545690529E0,1.093157431E1,1.225884313E1
1.458937717E1,8.836551664E-2,5.735568917E0,1.065243643E1,1.209871733E1
1.459940017E1,1.371727556E-1,5.845232862E0,1.037386104E1,1.190808786E1
1.460942417E1,3.464946340E-1,5.868249257E0,1.004176375E1,1.163586813E1
1.461944817E1,6.699634445E-1,5.742225972E0,9.662046733E0,1.125953628E1
1.462947117E1,9.273305418E-1,5.237662717E0,9.108758630E0,1.054810582E1
1.463949517E1,1.104884169E0,4.628275257E0,8.221288118E0,9.499014644E0
1.464951917E1,1.237028757E0,4.355016158E0,7.229921941E0,8.530426552E0
1.465954317E1,1.418716512E0,4.306500641E0,5.873490116E0,7.420012834E0
1.466956617E1,1.599048589E0,4.173525601E0,3.878716004E0,5.917745363E0
1.467959017E1,1.495910430E0,3.614164580E0,2.132449143E0,4.455027830E0
1.468961417E1,1.193836837E0,1.419333247E0,7.030826586E-1,1.983451155E0
1.469963717E1,9.785904501E-1,-6.600401348E0,-1.048433248E0,6.754417036E0
1.470966117E1,2.121811303E-1,-3.529658631E1,-5.265351037E0,3.568778429E1
1.471968517E1,3.467667123E-1,-5.416179029E1,-1.216607708E1,5.551245992E1
1.472970817E1,3.692657018E0,-5.813018329E1,-1.457200751E1,6.004246271E1
1.473973217E1,1.019362763E1,-5.889403080E1,-6.936874695E0,6.017089943E1
1.474975617E1,1.479923967E1,-4.924700439E1,9.988058826E-1,5.143231036E1
1.475977917E1,1.359488866E1,-3.883161175E1,-6.710238955E0,4.168623724E1
1.476980317E1,8.536522624E0,-2.855558866E1,-3.666500785E1,4.725057315E1
1.477982717E1,-6.003011790E0,-2.277674567E1,-7.045182436E1,7.428509844E1
1.478985117E1,-4.793362328E0,-2.487917053E1,-2.697028687E1,3.700467299E1
1.479987417E1,3.258523183E-1,-2.267601218E1,-6.733264121E0,2.365680777E1
1.480989817E1,-2.809996426E0,-2.185833286E1,-4.008867424E0,2.239986191E1
1.481992217E1,-1.594076994E0,-1.586336041E1,-1.747321992E-1,1.594420949E1
1.482994517E1,-5.153865977E-1,-1.095488482E1,1.088464749E0,1.102088383E1
1.483996917E1,-9.315472613E-1,-8.928592467E0,2.050763248E0,9.208320891E0
1.484999317E1,-1.237301091E0,-7.218573080E0,2.069112688E0,7.610515003E0
1.486001617E1,-1.191498170E0,-5.142622073E0,1.363046487E0,5.451983621E0
1.487004017E1,-1.105342590E0,-2.937460465E0,1.260024395E0,3.382028637E0
1.488006417E1,-1.244991788E0,-7.810196114E-1,1.568337551E0,2.149343821E0
1.489008717E1,-1.371196044E0,1.385127620E0,2.186441748E0,2.929041589E0
1.490011117E1,-1.630896619E0,3.427820249E0,3.001740368E0,4.839444253E0
1.491013517E1,-1.893377837E0,5.360407467E0,3.769262559E0,6.821010782E0
1.492015817E1,-2.205649266E0,7.075257239E0,4.711477042E0,8.781922888E0
1.493018217E1,-2.963060452E0,8.577866532E0,6.453720435E0,1.113597903E1
1.494020617E1,-3.361631522E0,9.651773760E0,7.263755684E0,1.253871803E1
1.495022917E1,-3.208532412E0,1.023278293E1,7.612453220E0,1.315119655E1
1.496025317E1,-3.135489872E0,1.078650606E1,8.386821039E0,1.401851550E1
1.497027717E1,-3.274817618E0,1.135824096E1,8.640353386E0,1.464205501E1
1.498030117E1,-3.643662321E0,1.221062584E1,8.971766553E0,1.558423093E1
1.499032417E1,-3.493171654E0,1.291697066E1,9.641317184E0,1.649258550E1
1.500034817E1,-3.518115584E0,1.376819311E1,9.647403551E0,1.717593299E1
1.501037217E1,-3.303971836E0,1.409022267E1,9.751913175E0,1.745137288E1
1.502039517E1,-2.758067596E0,1.368393941E1,9.854223661E0,1.708692069E1
1.503041917E1,-2.151417949E0,1.285773018E1,9.242984388E0,1.598069413E1
1.504044317E1,-1.994010465E0,1.084709257E1,9.289606578E0,1.441985733E1
1.505046617E1,-2.841169979E0,7.543574190E0,1.034013898E1,1.311092035E1
1.506049017E1,-3.375761611E0,6.136261064E0,1.108545081E1,1.311246300E1
1.507051738E1,-3.658958929E0,5.392945468E0,1.130513538E1,1.304905848E1
1.508054037E1,-3.792173120E0,4.895846184E0,1.155308305E1,1.310815070E1
1.509056438E1,-3.745716991E0,4.621762043E0,1.188733095E1,1.329284459E1
1.510058838E1,-3.474199194E0,4.505352750E0,1.174298892E1,1.304860346E1
1.511061138E1,-3.199012853E0,4.386398749E0,1.127448077E1,1.251351645E1
1.512063538E1,-2.945814382E0,4.285851198E0,1.069294711E1,1.189056183E1
1.513065938E1,-2.449007458E0,4.458123620E0,1.015452730E1,1.135724123E1
1.514068338E1,-1.926859286E0,4.976641256E0,9.605421127E0,1.098835110E1
1.515070638E1,-1.623840784E0,5.602555870E0,8.909231166E0,1.064893850E1
1.516073038E1,-1.368342457E0,6.002419467E0,8.633339651E0,1.060358213E1
1.517075438E1,-1.151269546E0,6.263435665E0,8.580825223E0,1.068581346E1
1.518077738E1,-1.004712886E0,6.443165626E0,8.500240066E0,1.071344541E1
1.519080138E1,-9.191318683E-1,6.625245582E0,8.509448846E0,1.082355774E1
1.520082538E1,-8.767327575E-1,6.796325757E0,8.553485981E0,1.095996471E1
1.521084838E1,-8.906422602E-1,7.057167708E0,8.524176813E0,1.110218222E1
1.522087238E1,-8.819395568E-1,7.341088035E0,8.338669803E0,1.114463122E1
1.523089638E1,-8.397997700E-1,7.571578844E0,8.095511001E0,1.111626593E1
1.524091938E1,-6.974009192E-1,7.720371771E0,7.900609855E0,1.106843008E1
1.525094338E1,-3.943841708E-1,7.740528878E0,7.618517953E0,1.086798703E1
1.526096738E1,-5.371215753E-3,7.499338249E0,7.235473287E0,1.042075701E1
1.527099138E1,3.178878624E-1,6.827606022E0,6.823037592E0,9.657696344E0
1.528101438E1,3.244962759E-1,5.978273390E0,5.989524018E0,8.468733584E0
1.529103837E1,4.226842194E-1,5.427239388E0,4.036621233E0,6.777012638E0
1.530106238E1,3.384474400E-1,4.665614406E0,-2.229987717E-1,4.683186192E0
1.531108538E1,5.918880589E-3,2.803060459E0,-7.227633925E0,7.752152935E0
1.532110938E1,-9.213435777E-1,-5.607435957E0,-9.909631877E0,1.142335397E1
1.533113338E1,-1.691483713E0,-5.203349267E1,-1.504647164E1,5.419171325E1
1.534115638E1,4.329615853E0,-7.185216702E1,-1.828919594E1,7.426960460E1
1.535118038E1,1.360182813E1,-6.524423329E1,5.541955912E-1,6.664928236E1
1.536120438E1,1.683034955E1,-6.248538597E1,7.634415947E0,6.516109601E1
1.537122737E1,1.285880022E1,-4.202782612E1,9.940192934E0,4.506100695E1
1.538125138E1,7.957635995E0,-2.239774786E1,8.015914024E0,2.508461595E1
1.539127538E1,6.326164595E0,-1.398296953E1,3.340490913E0,1.570677163E1
1.540129838E1,5.179015144E0,-1.208958614E1,-1.919677151E0,1.329155564E1
1.541132238E1,2.158826956E0,-1.604740737E1,-8.721201668E0,1.839127988E1
1.542134638E1,-1.323200344E0,-1.790541394E1,-1.953219002E1,2.653038173E1
1.543137038E1,-3.280266054E0,-1.711294314E1,-2.580159920E1,3.113415311E1
1.544139338E1,-6.703995298E0,-1.583457574E1,-2.680757991E1,3.184844867E1
1.545141738E1,-7.135636758E0,-1.547376043E1,-2.203583796E1,2.785556907E1
1.546144138E1,-3.699846169E0,-1.191065666E1,-1.445183437E1,1.908947669E1
1.547146438E1,-1.897231299E0,-9.031680633E0,-8.007822647E0,1.221867281E1
1.548148838E1,-1.439257927E0,-4.153492455E0,-3.853442584E0,5.845680688E0
1.549151238E1,-2.278774107E0,1.229934331E0,-1.926704335E0,3.227652317E0
1.550153538E1,-3.352613946E0,4.627354320E0,-1.078573891E0,5.815131117E0
1.551155938E1,-3.889087796E0,7.377033793E0,-1.354053762E0,8.448614860E0
1.552158337E1,-4.258876531E0,9.550675986E0,-1.134993748E0,1.051863356E1
1.553160638E1,-4.271668485E0,1.093043645E1,9.778649569E-2,1.173589173E1
1.554163038E1,-4.524215868E0,1.125188596E1,9.292044282E-1,1.216293088E1
1.555165438E1,-4.197500939E0,1.102594954E1,1.804809769E0,1.193515462E1
1.556167738E1,-4.733660794E0,1.092460560E1,3.398715148E0,1.238167262E1
1.557170138E1,-7.124009569E0,1.184584612E1,4.841403344E0,1.464632271E1
1.558172537E1,-9.449747196E0,1.365195047E1,5.038317686E0,1.735102645E1
1.559174938E1,-8.464844531E0,1.491754989E1,4.849264633E0,1.782420419E1
1.560177237E1,-5.803024735E0,1.532509965E1,3.693603097E0,1.679810939E1
1.561179638E1,-3.765391410E0,1.527503579E1,3.078177803E0,1.603059791E1
1.562182038E1,-3.036697070E0,1.527675604E1,3.240641812E0,1.590919745E1
1.563184338E1,-2.441424643E0,1.519416529E1,3.368144735E0,1.575333654E1
1.564186738E1,-2.344716081E0,1.495105443E1,3.505998691E0,1.553459845E1
1.565189138E1,-2.328161152E0,1.442468340E1,3.810447131E0,1.510004414E1
1.566191437E1,-2.370698915E0,1.370568170E1,4.463416227E0,1.460780643E1
1.567193838E1,-2.543696684E0,1.307058754E1,5.133787515E0,1.427117465E1
1.568196238E1,-2.838471197E0,1.247278926E1,5.647539085E0,1.398292131E1
1.569198538E1,-3.153022163E0,1.178964269E1,6.028411510E0,1.361172174E1
1.570200938E1,-3.329293495E0,1.080872314E1,6.450443655E0,1.302001976E1
1.571203338E1,-3.159185713E0,9.815094094E0,6.869121838E0,1.238956663E1
1.572205638E1,-2.629232385E0,9.274229570E0,6.917535614E0,1.186492714E1
1.573208038E1,-1.942898345E0,9.305093513E0,6.330561701E0,1.142084194E1
1.574210438E1,-1.316736978E0,9.531386606E0,5.440367557E0,1.105344860E1
1.575212838E1,-7.605531871E-1,9.991640246E0,4.580143316E0,1.101766893E1
1.576215138E1,-3.960810328E-1,1.033281358E1,4.031888204E0,1.109865033E1
1.577217538E1,-1.828927378E-1,1.028672115E1,3.564927515E0,1.088847051E1
1.578219938E1,1.946825701E-1,1.009172704E1,3.538278245E0,1.069580613E1
1.579222238E1,4.975193339E-1,9.940870042E0,3.892708099E0,1.068745054E1
1.580224638E1,6.605309355E-1,9.720969125E0,4.362708755E0,1.067552198E1
1.581227037E1,8.732515445E-1,9.155289018E0,5.057918723E0,1.049592431E1
1.582229338E1,1.420649894E0,8.710128211E0,6.522418202E0,1.097390171E1
1.583231738E1,1.887309743E0,8.207800346E0,8.709615995E0,1.211558234E1
1.584234138E1,2.303582527E0,7.588946244E0,1.021765033E1,1.293441054E1
1.585236538E1,2.782075387E0,7.230392641E0,1.080156849E1,1.329256947E1
1.586238838E1,3.151574685E0,6.836571558E0,1.007214237E1,1.257454515E1
1.587241237E1,3.430396532E0,6.282849591E0,8.504718449E0,1.111629683E1
1.588243638E1,3.724374654E0,5.657776390E0,6.930419369E0,9.690826223E0
1.589245937E1,4.033371935E0,4.252615625E0,5.415369540E0,7.979915794E0
1.590248338E1,4.226877936E0,-2.486183470E-1,3.217230438E0,5.317789001E0
1.591250738E1,2.345338079E0,-1.538271461E1,-3.193308894E0,1.588476443E1
1.592253038E1,-8.153203139E0,-6.291405237E1,-2.441673997E1,6.797668643E1
1.593255438E1,-1.348837929E1,-7.080505232E1,-3.916498724E1,8.203162826E1
1.594257838E1,-6.230127586E0,-5.635438857E1,-1.842459289E1,5.961624967E1
1.595260138E1,-4.453710434E0,-4.470054630E1,-2.412981885E0,4.498662976E1
1.596262538E1,-4.434882107E0,-3.884578774E1,-1.667795620E0,3.913368046E1
1.597264938E1,6.574540575E-1,-4.130575112E1,1.504517239E1,4.396537881E1
1.598267238E1,-1.385076048E1,-3.501129364E1,-7.250404737E0,3.834322127E1
1.599269638E1,-3.217422227E1,-3.205029170E1,-7.437182113E1,8.714108993E1
1.600272038E1,-1.191209859E1,-1.696680719E1,-4.893424852E1,5.314443825E1
1.601274438E1,-4.155826372E0,1.122365443E0,-3.901307658E1,3.924985020E1
1.602276738E1,-6.130836602E0,4.928751975E0,-2.171740093E1,2.309816566E1
1.603279138E1,-1.005809970E1,-3.515679926E0,-8.137849520E0,1.340708655E1
1.604281538E1,-1.261885271E1,-8.210806400E0,-3.253518258E0,1.540253767E1
1.605283838E1,-9.898373648E0,-3.114284944E0,3.112249528E0,1.083340522E1
1.606286204E1,-4.986951651E0,2.853366394E0,1.952981722E0,6.068403757E0
1.607288604E1,-1.982872689E0,6.439818095E0,2.002495944E-1,6.741152802E0
1.608290904E1,-1.358004872E0,8.177408273E0,9.547099829E-2,8.289951629E0
1.609293304E1,-1.301747933E0,8.958591607E0,6.889458454E-1,9.078852220E0
1.610295704E1,-1.374057087E0,9.136509515E0,1.779585027E0,9.409078694E0
1.611298004E1,-1.652598852E0,9.731337408E0,3.000655417E0,1.031668278E1
1.612300404E1,-2.139771465E0,1.015543713E1,3.788934932E0,1.104841858E1
1.613302804E1,-2.778034668E0,1.055073697E1,4.364312939E0,1.175086187E1
1.614305204E1,-3.362301612E0,1.099201464E1,4.948607365E0,1.251471825E1
1.615307504E1,-3.719853587E0,1.147810304E1,5.479629271E0,1.325181108E1
1.616309904E1,-3.865155434E0,1.205650727E1,5.802879725E0,1.392739054E1
1.617312304E1,-3.901342975E0,1.251482841E1,5.982259437E0,1.440933152E1
1.618314604E1,-3.784202780E0,1.278059371E1,6.192125362E0,1.469714880E1
1.619317004E1,-3.635789045E0,1.305541519E1,6.848703361E0,1.518445144E1
1.620319404E1,-3.615074991E0,1.328513358E1,7.227634510E0,1.554999170E1
1.621321704E1,-3.596050490E0,1.322316713E1,7.418799870E0,1.558275712E1
1.622324104E1,-3.563551081E0,1.291975744E1,7.468658493E0,1.534274710E1
1.623326504E1,-3.873320779E0,1.193217208E1,7.648075043E0,1.469259665E1
1.624328804E1,-4.518946650E0,9.745321609E0,7.781206788E0,1.326421318E1
1.625331204E1,-4.313640676E0,7.726367506E0,7.611384349E0,1.167207875E1
1.626333604E1,-3.270059739E0,6.764670101E0,7.329889448E0,1.049672957E1
1.627336004E1,-2.096385563E0,6.612901525E0,6.982202895E0,9.842583822E0
1.628338304E1,-1.110055739E0,6.792281238E0,6.688000240E0,9.596700233E0
1.629340704E1,-1.860477674E-1,7.173615593E0,6.579008725E0,9.735436829E0
1.630343104E1,5.977077927E-1,7.532763273E0,6.391812454E0,9.897224034E0
1.631345404E1,1.238889341E0,7.732432238E0,6.148416840E0,9.956323858E0
1.632347804E1,1.741768891E0,7.821322196E0,5.952222875E0,9.981773235E0
1.633350204E1,2.166863662E0,7.834245712E0,5.807572115E0,9.989924818E0
1.634352504E1,2.560626419E0,7.751799386E0,5.651930344E0,9.929326160E0
1.635354904E1,2.953328054E0,7.621415248E0,5.473946947E0,9.837286829E0
1.636357304E1,3.276486998E0,7.459474272E0,5.319136065E0,9.729970809E0
1.637359604E1,3.581091558E0,7.312005154E0,5.256272065E0,9.691131623E0
1.638362004E1,3.907221766E0,7.161798955E0,5.302850400E0,9.730260457E0
1.639364404E1,4.158498257E0,7.058231317E0,5.305168821E0,9.759946378E0
1.640366704E1,4.337182150E0,7.076793888E0,5.268693890E0,9.831139102E0
1.641369104E1,4.380548025E0,7.252947691E0,5.129740072E0,9.904982808E0
1.642371504E1,4.370034147E0,7.338135191E0,4.911453572E0,9.852299362E0
1.643373904E1,4.298046444E0,6.772113022E0,4.701026899E0,9.297008762E0
1.644376204E1,3.795131811E0,6.073784149E0,4.529355571E0,8.474015650E0
1.645378604E1,3.303303499E0,5.587543144E0,4.375502463E0,7.827992987E0
1.646381004E1,3.015929222E0,4.583860976E0,4.243860004E0,6.936710910E0
1.647383304E1,2.650222135E0,2.500358875E0,3.964430339E0,5.384438669E0
1.648385704E1,2.179961425E0,-1.505017176E0,3.519554291E0,4.405061966E0
1.649388104E1,3.416308835E-1,-1.017731507E1,2.582117568E0,1.050532174E1
1.650390404E1,-6.517237569E0,-2.815536312E1,-6.354245263E-1,2.890679198E1
1.651392804E1,-1.295381748E1,-4.368666249E1,-9.032664719E0,4.645336262E1
1.652395204E1,-7.864009209E0,-4.463159125E1,-9.778591681E0,4.636207970E1
1.653397504E1,-2.400741909E0,-4.381254603E1,-3.806573350E0,4.404307837E1
1.654399904E1,-7.261031467E-1,-4.345848543E1,-5.507647374E-1,4.346804025E1
1.655402304E1,-3.139586138E0,-4.156288828E1,-4.539991656E-1,4.168377140E1
1.656404704E1,-5.024108368E0,-3.931584540E1,-2.728852276E0,3.972938458E1
1.657407004E1,-3.913439402E0,-3.450364539E1,-8.157806067E0,3.567024465E1
1.658409404E1,-1.323873651E0,-2.426592157E1,-2.829331999E1,3.729744692E1
1.659411804E1,-4.801689640E0,-1.616332257E1,-5.796037079E1,6.036318250E1
1.660414104E1,5.332113376E0,-1.083024675E1,-3.336981648E1,3.548619915E1
1.661416504E1,2.861545479E0,-1.251230709E1,-2.026567762E1,2.398841305E1
1.662418904E1,-5.477662852E0,-1.995043083E1,-3.825049675E0,2.103937941E1
1.663421204E1,-2.272219232E0,-1.459295224E1,1.812100078E0,1.487954777E1
1.664423604E1,4.503024828E-2,-8.401944863E0,1.742597588E0,8.580871258E0
1.665426004E1,1.042987371E0,-3.675235239E0,2.481531426E0,4.555565270E0
1.666428404E1,1.493635278E0,-3.749310690E-1,3.029423718E0,3.398371333E0
1.667430704E1,1.838453771E0,2.148264692E0,3.216596600E0,4.282691577E0
1.668433104E1,1.951952320E0,4.158109417E0,3.067894012E0,5.523763704E0
1.669435504E1,1.647803404E0,5.462454829E0,2.721648506E0,6.321474465E0
1.670437804E1,1.359606278E0,6.573415278E0,2.511276212E0,7.166925831E0
1.671440204E1,1.106131087E0,7.548748391E0,2.551601827E0,8.044737418E0
1.672442604E1,1.029494409E0,8.265768473E0,2.746929235E0,8.770884072E0
