"Time (s)","Linear Acceleration x (m/s^2)","Linear Acceleration y (m/s^2)","Linear Acceleration z (m/s^2)","Absolute acceleration (m/s^2)"
2.113916664E-3,5.995878826E-3,3.315441442E-1,1.540396339E-1,3.656305224E-1
1.213791667E-2,3.653230933E-2,1.566735122E-1,2.241910189E-1,2.759398703E-1
2.216291666E-2,4.094706450E-1,1.151872247E-1,4.867152143E-1,6.463946207E-1
3.218691667E-2,6.381921597E-1,-4.316356122E-2,2.522985846E-1,6.876095560E-1
4.221191666E-2,6.574237981E-1,-7.929935396E-2,-5.073921382E-1,8.342309152E-1
5.223591666E-2,9.842395914E-1,-1.342570415E-1,-8.631121802E-1,1.315946489E0
6.226091666E-2,9.590319523E-1,-5.155887651E-1,-6.605201912E-1,1.273523060E0
7.228491666E-2,1.283200419E0,-9.053325856E-1,-1.027732351E0,1.876822898E0
8.230991666E-2,2.128601967E0,-1.542629390E0,-1.180401982E0,2.881666291E0
9.233491667E-2,2.636997780E0,-1.627091543E0,-1.057253773E0,3.273983770E0
1.023589167E-1,1.049474491E0,-9.795273203E-1,-2.235501056E0,2.656752802E0
1.123839167E-1,-1.883227217E0,-6.548016143E-1,-3.593352585E0,4.109439463E0
1.224079167E-1,-1.262515601E0,-9.649662915E-1,-3.884501824E0,4.196958424E0
1.324329167E-1,9.262340426E-2,-1.462409100E0,-3.368306118E0,3.673241835E0
1.424569167E-1,7.553672916E-1,-1.841696637E0,-3.449854896E0,3.982954312E0
1.524819167E-1,1.132478203E0,-2.235864168E0,-3.888258660E0,4.626029709E0
1.625069167E-1,1.635610937E0,-2.565742148E0,-3.785587986E0,4.856843862E0
1.725309167E-1,1.623866804E0,-3.165810316E0,-4.269356203E0,5.557580476E0
1.825559167E-1,1.545294551E0,-4.080009035E0,-4.570864955E0,6.318798573E0
1.925799167E-1,1.460251477E0,-4.530362754E0,-4.583213689E0,6.607750659E0
2.026049167E-1,1.033533373E0,-4.349699577E0,-4.673299402E0,6.467441917E0
2.126289167E-1,5.250402045E-1,-3.963059167E0,-4.252027395E0,5.836201002E0
2.226539167E-1,6.690699899E-1,-3.804410757E0,-3.831838292E0,5.440972391E0
2.326779167E-1,1.036608424E0,-4.497216642E0,-3.987564847E0,6.099195682E0
2.427029167E-1,9.447159219E-1,-5.587772940E0,-3.403839648E0,6.610735129E0
2.527279167E-1,4.516915619E-1,-6.577283796E0,-3.456790863E0,7.444064110E0
2.627519167E-1,-1.029765428E0,-6.660672108E0,-3.768172638E0,7.721663992E0
2.727769167E-1,-2.719925331E0,-6.496321494E0,-4.131307535E0,8.165040643E0
2.828009167E-1,-3.756533756E0,-6.981045731E0,-4.223174894E0,8.982302129E0
2.928259167E-1,-3.628697834E0,-7.699853892E0,-3.397661187E0,9.165113173E0
3.028499167E-1,-2.715864440E0,-8.559148425E0,-1.706576839E0,9.140423728E0
3.128749167E-1,-1.325532798E0,-9.163724796E0,8.615753858E-1,9.299096810E0
3.228999167E-1,2.835104370E-1,-9.241780447E0,4.322777535E0,1.020672766E1
3.329239167E-1,1.739069524E0,-8.945373391E0,7.029769995E0,1.150920215E1
3.429489167E-1,2.586751487E0,-8.482248183E0,7.993467733E0,1.193881669E1
3.529729167E-1,3.551396474E0,-7.353485302E0,7.027092555E0,1.077340210E1
3.629979167E-1,4.653475002E0,-6.411951435E0,6.586925270E0,1.030318083E1
3.730219167E-1,6.085975009E0,-5.724978440E0,7.004793613E0,1.090328407E1
3.830469167E-1,7.300007837E0,-4.889772096E0,7.036028270E0,1.125636173E1
3.930719167E-1,9.005413771E0,-3.402435147E0,5.930540230E0,1.130687178E1
4.030959167E-1,1.119546033E1,-1.466835735E0,4.823157692E0,1.227814274E1
4.131209167E-1,1.263696622E1,-4.723006582E-1,3.949443925E0,1.324817310E1
4.231449167E-1,1.262611261E1,-1.523875908E0,3.086032952E0,1.308680698E1
4.331699167E-1,1.292754827E1,-1.721287849E0,1.721085827E0,1.315471295E1
4.431939167E-1,1.271300224E1,-7.823036599E-1,4.757914460E-1,1.274593278E1
4.532189167E-1,1.162587855E1,5.487945181E-1,7.196753025E-2,1.163904664E1
4.632439167E-1,1.127258510E1,2.321766783E0,1.260870194E-1,1.150989460E1
4.732679167E-1,1.117423844E1,3.143542072E0,-9.702705932E-1,1.164847143E1
4.832929167E-1,1.111753098E1,4.079579557E0,-2.441507673E0,1.209146079E1
4.933169167E-1,1.115654594E1,5.697443317E0,-3.676722186E0,1.305556064E1
5.033419167E-1,1.202042059E1,8.022015009E0,-4.256523904E0,1.506523255E1
5.133659167E-1,1.260440775E1,7.617782373E0,-4.469728589E0,1.539091214E1
5.233909167E-1,9.063394761E0,4.781875180E0,-3.487912669E0,1.082483208E1
5.334149167E-1,7.435294281E0,6.437879158E0,-2.967536788E0,1.027307956E1
5.434399167E-1,7.541424753E0,6.065803285E0,-3.273755472E0,1.021687485E1
5.534649167E-1,6.766528346E0,4.095804995E0,-3.511011217E0,8.653827141E0
5.634889167E-1,5.490824350E0,4.559416691E0,-2.341590598E0,7.511356677E0
5.735139167E-1,3.753565124E0,5.815803241E0,-1.747233991E0,7.139022699E0
5.835379167E-1,2.573676528E0,5.977835433E0,-1.957111611E0,6.796220508E0
5.935629167E-1,2.214032419E0,6.556142018E0,-1.979540068E0,7.197465985E0
6.035869167E-1,1.519220647E0,6.353943547E0,-2.749676257E0,7.088113253E0
6.136119167E-1,7.738298750E-1,5.747620028E0,-3.613688324E0,6.833205102E0
6.236369167E-1,3.748474538E-2,4.698158255E0,-3.731413532E0,5.999795250E0
6.336609167E-1,-1.107864348E0,3.072564476E0,-4.065842400E0,5.215274710E0
6.436859167E-1,-2.123061438E0,1.888848292E0,-4.680691744E0,5.475765969E0
6.537099167E-1,-2.420168406E0,1.809156590E0,-4.825277600E0,5.693291367E0
6.637349167E-1,-2.707010586E0,1.735426708E0,-4.917250502E0,5.875284220E0
6.737589167E-1,-2.601059623E0,1.649847445E0,-4.167577813E0,5.182298002E0
6.837839167E-1,-2.257911680E0,1.434181666E0,-2.790873984E0,3.865749578E0
6.938089167E-1,-1.629273432E0,1.481194742E0,-1.239792444E0,2.526965588E0
7.038329167E-1,-7.381688762E-1,1.515407970E0,1.775014405E-1,1.694951730E0
7.138579167E-1,1.645155054E-1,2.926255153E0,9.486660084E-1,3.080584647E0
7.238819167E-1,1.542959173E0,3.741300589E0,2.456604745E0,4.734232777E0
7.339069167E-1,3.868251243E0,3.876874424E0,5.670383572E0,7.883322449E0
7.439309167E-1,4.210805109E0,4.051290435E0,5.465585428E0,8.001028555E0
7.539559167E-1,1.374377514E0,2.663479820E0,1.726527685E0,3.458892330E0
7.639809167E-1,2.216868904E0,2.760365552E0,4.772054197E0,5.941937981E0
7.740049167E-1,2.296371156E0,3.035153405E0,5.013953508E0,6.294855555E0
7.840299167E-1,-8.524883741E-1,8.645190203E-1,3.935066206E0,4.118115542E0
7.940539167E-1,-2.768480610E0,6.657142729E-2,2.981829137E0,4.069425223E0
8.040789167E-1,-3.446198632E0,-7.813973415E-1,1.521093510E0,3.847153790E0
8.141029167E-1,-4.030060072E0,-1.370342935E0,-5.836960367E-1,4.296501485E0
8.241279167E-1,-3.812372326E0,-1.191193603E0,-2.296406824E0,4.607234448E0
8.341519167E-1,-4.285459435E0,-1.247436509E0,-4.542157465E0,6.368080939E0
8.441769167E-1,-3.799218430E0,-7.294734818E-1,-2.259888039E0,4.480322107E0
8.542019167E-1,-3.085938812E0,-7.459512278E-1,-9.085918236E-1,3.302272049E0
8.642259167E-1,-3.508472064E0,-1.130516462E0,-3.738990355E-1,3.705029579E0
8.742509167E-1,-3.470306702E0,-1.857032422E0,3.447834464E-1,3.951009194E0
8.842749167E-1,-1.901071896E0,-1.213730527E0,1.206484072E0,2.557893657E0
8.942999167E-1,4.445579588E-2,-4.700518191E-1,3.489191455E0,3.520991627E0
9.043239167E-1,-7.147811830E-2,-9.648788756E-1,6.013253188E-1,1.139163072E0
9.143489167E-1,4.145558953E-1,-1.080540602E0,-2.423366102E-1,1.182434614E0
9.243739167E-1,2.006939244E0,-9.953957865E-1,1.217252378E0,2.549572758E0
9.343979167E-1,2.925394735E0,-8.278318352E-1,1.557568442E0,3.416029765E0
9.444229167E-1,2.433295405E0,-1.029785893E0,7.055204359E-1,2.734802479E0
9.544469167E-1,3.245570723E0,5.995989284E-1,7.892513216E-1,3.393547678E0
9.644719167E-1,4.474952492E0,2.466596467E0,1.571466250E0,5.345914712E0
9.744959167E-1,4.609955930E0,3.016958916E0,1.760654082E0,5.783911961E0
9.845209167E-1,5.146195891E0,2.571924410E0,2.036774662E0,6.102997488E0
9.945449167E-1,5.009081023E0,2.200242054E0,1.857350510E0,5.777690604E0
1.004569917E0,4.512550088E0,2.623307987E0,1.896042706E0,5.553362138E0
1.014594917E0,4.370011927E0,3.143860161E0,1.973130058E0,5.733594264E0
1.024618917E0,3.872434341E0,3.529225586E0,1.489058955E0,5.446877778E0
1.034643917E0,2.726706932E0,3.535280378E0,9.443450622E-1,4.563433536E0
1.044667917E0,1.701370770E0,3.289918345E0,-1.084564948E-1,3.705399847E0
1.054692917E0,4.391089386E-1,3.230374394E0,-2.777395860E0,4.282763494E0
1.064716917E0,-1.061972476E0,3.540775591E0,-5.291253033E0,6.454629035E0
1.074741917E0,-1.900989450E0,4.019117593E0,-5.480064304E0,7.056781978E0
1.084766917E0,-2.017821497E0,4.591448323E0,-3.133756757E0,5.913834011E0
1.094790917E0,-1.357690145E0,5.301397952E0,-4.131174803E-2,5.472645561E0
1.104815917E0,-7.334659606E-1,5.633733224E0,1.876814722E0,5.983256292E0
1.114839917E0,-9.315824908E-1,5.767687672E0,2.651539221E0,6.415974381E0
1.124864917E0,-1.387968197E0,5.710335258E0,2.001244640E0,6.208008101E0
1.134888917E0,-8.695195591E-1,4.860188109E0,9.462793943E-1,5.027219650E0
1.144913917E0,-5.021001157E-1,3.640078855E0,2.227648830E-1,3.681290913E0
1.154938917E0,-1.723837819E0,3.110884788E0,1.556755679E0,3.882358721E0
1.164962917E0,-4.580386853E0,2.547699103E0,5.820546502E0,7.832590633E0
1.174987917E0,-1.049925575E1,-3.926381922E-1,9.165586549E0,1.394261499E1
1.185011917E0,-1.471803003E1,-2.878313540E0,8.283068630E0,1.713225971E1
1.195036917E0,-8.469514117E0,6.774180597E-1,-5.224099807E-1,8.512606933E0
1.205060917E0,-3.536962914E0,2.789142916E0,-1.281193362E1,1.358068731E1
1.215085917E0,-2.719700798E0,3.401000825E0,-1.068254023E1,1.153604112E1
1.225109917E0,-2.251535583E0,3.970497410E0,6.864898686E-1,4.615791428E0
1.235134917E0,-1.436563237E0,3.072676157E0,4.283273746E0,5.463651406E0
1.245159917E0,-2.357461403E-1,2.587354335E0,3.305061464E0,4.203975497E0
1.255183917E0,9.136255454E-1,2.060012081E0,5.042814926E-1,2.309255559E0
1.265208917E0,1.457625931E0,6.415377903E-1,-7.691473516E-1,1.768567709E0
1.275232917E0,9.463622054E-1,1.295174639E0,-1.242959003E0,2.029291959E0
1.285257917E0,7.581208916E-1,2.139602627E0,-1.281228884E0,2.606567501E0
1.295281917E0,3.151685782E-1,2.792454779E0,-1.057908734E0,3.002716406E0
1.305306917E0,-3.235933196E-1,3.494498388E0,-4.278325101E-1,3.535430988E0
1.315331917E0,-7.443452170E-1,3.595030151E0,1.840609932E-1,3.675890373E0
1.325355917E0,-8.873345634E-1,3.715004491E0,2.170253292E-1,3.825666085E0
1.335380917E0,-7.014631992E-1,4.207716025E0,4.042799985E-1,4.284899892E0
1.345404917E0,-4.666461449E-1,4.844730409E0,-6.293007374E-2,4.867559097E0
1.355429917E0,-7.046997061E-1,5.468894953E0,-4.245324147E-1,5.530428686E0
1.365453917E0,-1.093222847E0,2.749751394E0,1.281394287E-1,2.961872488E0
1.375478917E0,-3.189794133E0,-2.729617091E1,6.582942731E0,2.825935010E1
1.385503917E0,-7.337430602E0,-4.680966505E1,9.232329007E0,4.827233710E1
1.395527917E0,-8.679139137E0,-3.183024694E1,1.798556757E-1,3.299279353E1
1.405552917E0,-5.678657382E0,-1.188119605E1,-5.277630190E0,1.418673147E1
1.415576917E0,-2.381127716E0,-1.486934077E0,-5.947448623E0,6.576692731E0
1.425601917E0,3.623098540E-1,3.009937872E0,-4.734904497E0,5.622305134E0
1.435626208E0,9.495175092E-1,4.407474453E0,-2.848690960E0,5.333146796E0
1.445651208E0,1.061678215E-1,4.027485543E0,-1.423506989E0,4.272971279E0
1.455675208E0,-6.765925059E-1,2.830994362E0,-5.677189585E-1,2.965570993E0
1.465700208E0,-9.962306958E-1,1.711944875E0,2.067295154E-1,1.991473813E0
1.475725208E0,-1.071162911E0,7.720271784E-1,1.012895553E0,1.664143427E0
1.485749208E0,-1.153330982E0,-2.859873176E-3,1.268303175E0,1.714285121E0
1.495774208E0,-9.813263623E-1,-2.881648207E-1,1.131043442E0,1.524893328E0
1.505798208E0,-7.488040844E-1,-2.826883185E-1,6.265174627E-1,1.016437098E0
1.515823208E0,-6.264424722E-1,-2.841425210E-1,2.354346299E-1,7.270464966E-1
1.525847208E0,-4.976682552E-1,-1.957946008E-1,-2.497455440E-2,5.353811225E-1
1.535872208E0,-5.142280450E-1,1.306735754E-2,2.072026648E-2,5.148111960E-1
1.545897208E0,-4.334501129E-1,3.826891547E-1,1.578409819E-1,5.993694729E-1
1.555921208E0,-6.968637794E-1,6.828115314E-1,1.023087323E-1,9.809779769E-1
1.565946208E0,-1.050780467E0,7.606490815E-1,9.768504649E-3,1.297236308E0
1.575970208E0,-1.187040472E0,6.089302075E-1,-2.988500226E-1,1.367176805E0
1.585995208E0,-1.206416683E0,5.564356595E-1,-1.941064366E-1,1.342661225E0
1.596019208E0,-1.187971568E0,6.576550555E-1,2.922496124E-1,1.388955167E0
1.606044208E0,-1.237746065E0,4.710610485E-1,-8.585474052E-2,1.327134081E0
1.616068208E0,-1.254404490E0,1.887124532E-1,1.450612342E-1,1.276787287E0
1.626093208E0,-1.039976128E0,2.807020193E-1,2.360333848E-1,1.102749169E0
1.636118208E0,-7.136367367E-1,3.543137866E-1,1.681729388E-1,8.143081657E-1
1.646142208E0,-4.588288561E-1,2.779678613E-1,5.002877712E-2,5.387883904E-1
1.656167208E0,-3.456920671E-1,1.230125535E-1,1.116712940E-1,3.835434415E-1
1.666191208E0,-1.105412830E-1,2.365169495E-1,2.398505203E-1,3.545249141E-1
1.676216208E0,1.321624227E-2,2.614974242E-1,2.961651273E-1,3.953091886E-1
1.686240208E0,4.721973818E-2,2.186420113E-1,3.586799756E-1,4.227119086E-1
1.696265208E0,9.702559020E-2,1.660205787E-1,3.679231080E-1,4.151436030E-1
1.706290208E0,1.252077444E-1,1.129179204E-1,3.338244121E-1,3.739868635E-1
1.716314208E0,1.634216010E-1,1.021508574E-2,2.051858139E-1,2.625113062E-1
1.726339208E0,1.686754705E-1,-1.192931396E-1,-5.700209342E-2,2.143163693E-1
1.736363208E0,2.168599627E-1,-2.768639070E-1,-2.860609925E-1,4.533351496E-1
1.746388208E0,2.408842349E-1,-4.225385141E-1,-4.511150265E-1,6.633767992E-1
1.756412208E0,2.041212552E-1,-4.322004533E-1,-5.626307845E-1,7.382520696E-1
1.766437208E0,8.274186563E-2,-4.040034252E-1,-6.308818245E-1,7.537087371E-1
1.776462208E0,-8.956147324E-2,-3.269394618E-1,-6.108223665E-1,6.985804410E-1
1.786486208E0,-3.437476852E-1,-2.589866298E-1,-5.459019005E-1,6.951585650E-1
1.796511208E0,-6.003275646E-1,-1.287235290E-1,-6.215262794E-1,8.736462944E-1
1.806535208E0,-7.891010481E-1,-4.250224113E-2,-9.020522976E-1,1.199243617E0
1.816560208E0,-7.309288538E-1,-1.161110848E-1,-1.194859807E0,1.405499460E0
1.826584208E0,-5.136301672E-1,-4.614914954E-2,-1.616420667E0,1.696691329E0
1.836609208E0,-2.195272432E-1,3.483665836E-1,-1.665083535E0,1.715241868E0
1.846633208E0,9.409410691E-2,1.094432709E0,-1.181539850E0,1.613280222E0
1.856658208E0,3.601112279E-1,1.998778285E0,-2.229601618E-1,2.043160777E0
1.866683208E0,3.931072851E-1,2.788818396E0,7.494668663E-1,2.914402506E0
1.876707208E0,4.064768706E-2,3.074533818E0,1.399414122E0,3.378279195E0
1.886732208E0,-5.098596632E-1,2.663986189E0,1.628189943E0,3.163507828E0
1.896756208E0,-8.550684580E-1,1.839742205E0,1.398505465E0,2.464063916E0
1.906781208E0,-1.006692022E0,7.441909236E-1,9.722212243E-1,1.585075098E0
1.916805208E0,-9.896818873E-1,-6.313677281E-1,3.845748818E-1,1.235311008E0
1.926830208E0,-8.424200535E-1,-2.058042739E0,-4.583281517E-1,2.270523322E0
1.936855208E0,-5.840340423E-1,-3.163833665E0,-1.244444196E0,3.449576869E0
1.946879208E0,-3.842079690E-1,-3.516546484E0,-1.596344837E0,3.880983351E0
1.956904208E0,-3.495913194E-1,-2.996535469E0,-1.490023745E0,3.364759972E0
1.966928208E0,-4.694403465E-1,-1.815627118E0,-1.002171832E0,2.126317110E0
1.976953208E0,-8.063112310E-1,-5.633920920E-1,-6.656037605E-1,1.187677067E0
1.986977208E0,-1.053558406E0,4.749997330E-1,-4.872391248E-1,1.254197762E0
1.997002208E0,-1.282545092E0,1.184718981E0,-3.931901693E-2,1.746432639E0
2.007027208E0,-1.379939532E0,1.565358687E0,4.312321544E-1,2.130854782E0
2.017051208E0,-1.318145572E0,1.640869045E0,8.018099713E-1,2.252300647E0
2.027076208E0,-1.147027975E0,1.517443094E0,1.044734885E0,2.170202225E0
2.037100208E0,-1.041796366E0,1.278931074E0,1.274280199E0,2.084417038E0
2.047125208E0,-9.916817813E-1,1.005552692E0,1.380850382E0,1.975175119E0
2.057149208E0,-8.572322202E-1,7.099127913E-1,1.311999418E0,1.720513215E0
2.067174208E0,-8.155678850E-1,2.252242219E-1,1.232286665E0,1.494793414E0
2.077198208E0,-8.256458536E-1,-4.133905452E-1,1.052910461E0,1.400429669E0
2.087223208E0,-8.540808633E-1,-1.111321807E0,8.870237839E-1,1.658704758E0
2.097248208E0,-7.300126681E-1,-1.655266644E0,5.400640404E-1,1.887987110E0
2.107272208E0,-6.030405995E-1,-1.890122985E0,2.436347651E-1,1.998894885E0
2.117297208E0,-6.440615217E-1,-1.667038259E0,6.888951939E-2,1.788456755E0
2.127321208E0,-8.354966578E-1,-1.020748436E0,8.559271216E-2,1.321857840E0
2.137346208E0,-1.043201087E0,-1.104410398E-1,3.501593764E-1,1.105928261E0
2.147370208E0,-1.152811749E0,7.555210733E-1,8.128658867E-1,1.600168107E0
2.157395208E0,-9.473957008E-1,1.237730423E0,1.467885017E0,2.141079550E0
2.167420208E0,-5.628518824E-1,1.461719128E0,2.015682731E0,2.552724412E0
2.177444208E0,-3.645840555E-1,1.748939624E0,2.388456616E0,2.982689449E0
2.187469208E0,-2.048117383E-1,1.934058378E0,2.280614079E0,2.997287146E0
2.197493208E0,9.624206331E-2,1.640117678E0,1.531507548E0,2.246055187E0
2.207518208E0,4.234443940E-1,1.706076609E0,3.839736418E-1,1.799288279E0
2.217542208E0,7.817459817E-1,2.079361687E0,-7.043139361E-1,2.330435566E0
2.227567208E0,1.251553241E0,2.588716151E0,-1.095888958E0,3.077143064E0
2.237591208E0,1.653566420E0,3.220331216E0,-8.452395809E-1,3.717424512E0
2.247616208E0,1.958947052E0,3.569529859E0,-1.204692485E0,4.246210187E0
2.257641208E0,2.085455948E0,3.914371156E0,-1.525377181E0,4.690224259E0
2.267665208E0,2.426674603E0,4.267189225E0,-4.568812582E-1,4.930151518E0
2.277690208E0,2.647393545E0,4.020294637E0,7.839443886E-1,4.877092408E0
2.287714208E0,2.699553047E0,3.338813347E0,6.807424942E-1,4.347260237E0
2.297739208E0,2.403369940E0,2.527996325E0,1.577470610E-1,3.491681060E0
2.307763208E0,2.081774395E0,1.871093806E0,-9.932019112E-1,2.970054999E0
2.317788208E0,2.016784201E0,1.701013505E0,-2.630490414E0,3.725633540E0
2.327813208E0,2.036277063E0,1.904189631E0,-2.128845504E0,3.507755067E0
2.337837208E0,1.941028113E0,2.562391986E0,5.818266088E-1,3.266797366E0
2.347862208E0,1.998756212E0,3.185797561E0,1.537717729E0,4.063115591E0
2.357886208E0,1.896229086E0,3.444633917E0,-3.202911776E-1,3.945094930E0
2.367911208E0,1.418060454E0,3.221899440E0,-3.250824154E0,4.791595677E0
2.377935208E0,2.506761284E-1,2.395239971E0,-4.182198191E0,4.826053745E0
2.387960208E0,2.257398002E-1,1.772366493E0,-2.951192651E0,3.449895579E0
2.397985208E0,1.039168628E0,5.581711131E-1,-2.348708999E0,2.628280881E0
2.408009208E0,6.575129682E-1,-1.090255458E0,-2.431273145E0,2.744461582E0
2.418034208E0,-3.120528893E-1,-2.452991166E0,-7.877105802E-2,2.474014460E0
2.428058208E0,-1.715975069E-1,-4.163450848E0,6.242405570E-1,4.213483706E0
2.438082792E0,5.170723499E-1,-4.870953417E0,-5.157568726E-1,4.925399087E0
2.448106792E0,1.245403578E0,-4.282702473E0,-7.414918488E-1,4.521325105E0
2.458131792E0,1.143253305E0,-2.849278606E0,-5.467222649E-1,3.118384506E0
2.468156792E0,3.170176139E-1,-1.690780293E0,-1.952244681E0,2.602017960E0
2.478180792E0,-5.693198530E-1,-1.438400432E0,-3.377070802E0,3.714529324E0
2.488205792E0,-5.683376670E-1,-1.841117470E0,-3.434770249E0,3.938320442E0
2.498229792E0,6.012750328E-2,-2.454868122E0,-4.758662319E0,5.354891211E0
2.508254792E0,4.320805854E-1,-3.173855792E0,-5.552703679E0,6.410348849E0
2.518278792E0,9.821261153E-2,-4.199456833E0,-4.648134740E0,6.265001195E0
2.528303792E0,4.763849384E-1,-5.571477334E0,-5.189263558E0,7.628680002E0
2.538327792E0,1.613324859E0,-6.826508499E0,-5.362967963E0,8.829805251E0
2.548352792E0,2.409184557E0,-7.559666896E0,-4.134811186E0,8.947032880E0
2.558377792E0,2.788333077E0,-8.187110558E0,-4.161352867E0,9.597939275E0
2.568401792E0,2.983126634E0,-8.697792925E0,-5.472696812E0,1.070051665E1
2.578426792E0,2.813585739E0,-8.999969428E0,-6.558618899E0,1.148613061E1
2.588450792E0,2.176856261E0,-9.187172715E0,-5.531948987E0,1.094281980E1
2.598475792E0,1.382277980E0,-9.818885429E0,-3.760776495E0,1.060493486E1
2.608500792E0,9.076070063E-1,-1.152468547E1,-3.113614561E0,1.197233148E1
2.618524792E0,4.217454490E-1,-1.453455843E1,-2.753756444E0,1.479913621E1
2.628549792E0,-2.893046440E-1,-1.786211764E1,-4.355941772E-2,1.786451347E1
2.638573792E0,-1.252583667E0,-2.015819878E1,2.625468825E0,2.036700838E1
2.648598792E0,-1.865911711E0,-2.140495613E1,3.299199923E0,2.173795054E1
2.658622792E0,-2.333666452E0,-2.256272588E1,9.021667568E-1,2.270102428E1
2.668647792E0,-1.869899220E0,-1.827500007E1,-2.494502889E0,1.853900470E1
2.678671792E0,-1.336761206E-1,-9.868051157E0,-3.773778949E0,1.056587481E1
2.688696792E0,1.912606406E0,-3.923232611E0,-3.157253208E0,5.386841858E0
2.698721792E0,3.625610504E0,1.548682428E0,-3.058105481E0,4.989536844E0
2.708745792E0,4.792256911E0,5.634847704E0,-4.126271912E0,8.470144913E0
2.718770792E0,5.437818171E0,6.954843773E0,-5.152678115E0,1.022202573E1
2.728794792E0,4.189359861E0,7.149065473E0,-4.279430225E-1,8.297168699E0
2.738819792E0,2.061132262E0,7.328320055E0,5.632031100E0,9.469546733E0
2.748843792E0,8.219941212E-1,7.036349282E0,6.701016142E0,9.751384665E0
2.758868792E0,3.112781332E-1,7.747047939E0,3.286960824E0,8.421268152E0
2.768893792E0,6.155947177E-1,6.706181572E0,-3.224058232E0,7.466349819E0
2.778917792E0,8.152818831E-1,6.580293358E0,-8.263500338E0,1.059482813E1
2.788942792E0,5.780961583E-1,9.546961834E0,-8.736501492E0,1.295396209E1
2.798966792E0,-2.734936450E-1,1.258496108E1,-3.565350269E0,1.308310998E1
2.808991792E0,-1.033086427E0,1.279120056E1,9.265918922E-1,1.286626021E1
2.819015792E0,-1.447489637E0,1.211027359E1,3.517883742E0,1.269367790E1
2.829040792E0,-2.084938323E0,1.148989570E1,6.197615898E0,1.322025393E1
2.839065792E0,-2.042601266E0,1.194336833E1,5.897964807E0,1.347598812E1
2.849089792E0,-1.145169584E0,1.196098014E1,4.910303425E0,1.298027500E1
2.859114792E0,-4.730295137E-1,1.153575191E1,4.461316785E0,1.237742608E1
2.869138792E0,-1.799816101E-1,1.106184443E1,4.177015804E0,1.182557638E1
2.879163792E0,-1.366268449E-1,1.048561770E1,3.531278543E0,1.106511517E1
2.889187792E0,-2.881158502E-1,9.745864815E0,2.502649230E0,1.006618820E1
2.899212792E0,-4.078785212E-1,9.185431999E0,1.488804162E0,9.314239836E0
2.909236792E0,-4.490458430E-1,9.240532651E0,9.095859964E-1,9.296043918E0
2.919261792E0,-4.571472334E-1,9.710479220E0,1.036741741E0,9.776360453E0
2.929286792E0,-5.817193124E-1,1.007831937E1,1.265739756E0,1.017413465E1
2.939310792E0,-8.681122805E-1,1.020042327E1,1.746742240E0,1.038524733E1
2.949335792E0,-1.166981014E0,1.019154719E1,2.068726187E0,1.046465990E1
2.959359792E0,-1.353456469E0,9.950339023E0,2.432228873E0,1.033231960E1
2.969384792E0,-1.202350164E0,9.823466138E0,2.422149442E0,1.018886357E1
2.979408792E0,-7.303803849E-1,1.007011690E1,2.104858471E0,1.031363849E1
2.989433792E0,-9.286482118E-2,1.020181958E1,1.590823896E0,1.032552504E1
2.999458792E0,5.870388899E-1,1.018942465E1,8.783850344E-1,1.024404948E1
3.009482792E0,9.084892780E-1,1.017737588E1,4.473166752E-1,1.022763046E1
3.019507792E0,7.739023805E-1,1.021181598E1,1.227213987E-1,1.024183436E1
3.029531792E0,3.940690789E-1,1.043645197E1,-5.507469765E-1,1.045840057E1
3.039556792E0,2.411594926E-1,1.070889246E1,-1.446754349E0,1.080886829E1
3.049580792E0,4.487237345E-1,1.083185122E1,-2.150851500E0,1.105244389E1
3.059605792E0,5.440383929E-1,1.098496524E1,-2.685104578E0,1.132144981E1
3.069629792E0,6.307016572E-1,1.118721809E1,-2.938665576E0,1.158392803E1
3.079654792E0,6.574292799E-1,1.101716703E1,-2.835440000E0,1.139517014E1
3.089679792E0,3.188948625E-1,1.049304600E1,-2.080856528E0,1.070213401E1
3.099703792E0,2.614380750E-1,9.973020372E0,-5.130136514E-1,9.989628032E0
3.109728792E0,5.129342023E-1,9.347943664E0,1.619536210E0,9.501055192E0
3.119752792E0,9.160791101E-1,8.680070599E0,3.586899598E0,9.436560563E0
3.129777792E0,1.486767723E0,8.173566068E0,5.418449854E0,9.918531108E0
3.139801792E0,1.973433236E0,7.850736614E0,6.860415334E0,1.061102270E1
3.149826792E0,2.087119773E0,7.577227839E0,6.887569803E0,1.045031428E1
3.159851792E0,1.600142165E0,7.377483444E0,4.994087008E0,9.051443087E0
3.169875792E0,1.433708042E0,5.045617350E0,-5.904456970E-1,5.278484566E0
3.179900792E0,1.387917034E0,-8.342550015E0,-1.522368320E1,1.741507923E1
3.189924792E0,8.872288019E-1,-3.872319969E1,-2.632319189E1,4.683144030E1
3.199949792E0,-1.442751638E0,-6.616610531E1,-2.632410172E1,7.122494897E1
3.209973792E0,3.136204547E-1,-6.935052702E1,-1.760600960E1,7.155113927E1
3.219998792E0,2.203485212E0,-5.015234048E1,9.375436102E0,5.106869300E1
3.230023792E0,2.435550384E0,-1.571415350E1,2.201672692E1,2.715884368E1
3.240047792E0,1.495827399E-1,-2.158973283E0,2.648802958E1,2.657629115E1
3.250072792E0,-2.792809413E0,4.805426595E0,1.660714144E1,1.751253997E1
3.260096792E0,-3.659866125E0,7.134570225E0,-1.739494032E0,8.205032105E0
3.270121792E0,-3.973030716E0,6.078479463E0,-8.730924418E0,1.135614049E1
3.280145792E0,-5.400081995E0,6.357800370E0,-4.205593778E0,9.341816212E0
3.290170792E0,-6.556354857E0,6.985527622E0,-3.074290574E-2,9.580413890E0
3.300195792E0,-7.801697770E0,7.932298256E0,-1.715979454E0,1.125754988E1
3.310219792E0,-8.062045047E0,7.330845467E0,-4.137693864E0,1.165583013E1
3.320244792E0,-6.857971782E0,2.711290163E0,-3.790693190E0,8.291696218E0
3.330268792E0,-4.709500684E0,-1.963971564E0,-2.142532666E0,5.534169063E0
3.340293792E0,-3.293975143E0,-4.784851413E0,-1.779600376E0,6.075529013E0
3.350317792E0,-2.147576182E0,-6.848648981E0,-1.905764871E0,7.426171024E0
3.360342792E0,-1.409131025E0,-7.160088059E0,-1.369214423E0,7.424773357E0
3.370367792E0,-1.502688230E0,-4.746106008E0,-5.543531737E-1,5.009081911E0
3.380391792E0,-3.325203076E0,-2.122120621E0,-1.254816572E0,4.139436683E0
3.390416792E0,-3.417689655E0,-3.942824292E-1,-3.343464223E0,4.797375764E0
3.400440792E0,-1.844368815E0,1.462330163E-1,-5.142425022E0,5.465127220E0
3.410465792E0,-6.961724192E-1,4.524955541E-1,-4.974945563E0,5.043757688E0
3.420489792E0,3.711556681E-2,1.656296924E0,-2.629203442E0,3.107637013E0
3.430514792E0,9.495982739E-1,2.902838516E0,-3.554250500E-1,3.074822808E0
3.440539958E0,2.107361957E0,3.588764859E0,1.042586910E0,4.290360719E0
3.450563958E0,3.091178502E0,3.903109419E0,2.651321120E0,5.640846687E0
3.460588958E0,3.904810666E0,3.485856203E0,3.705749518E0,6.413370354E0
3.470612958E0,4.897684548E0,1.970173121E0,2.250915194E0,5.738947227E0
3.480637958E0,5.845455641E0,-3.439829260E-1,-9.541343245E-1,5.932794300E0
3.490661958E0,6.083527949E0,-2.771087884E0,-2.305703897E0,7.071386769E0
3.500686958E0,5.049118663E0,-5.589194983E0,-1.796079292E0,7.743293915E0
3.510711958E0,3.038262370E0,-8.593468072E0,-1.416558451E0,9.224173111E0
3.520735958E0,1.689167339E0,-1.099263679E1,-1.768809340E0,1.126144024E1
3.530760958E0,9.611577076E-1,-1.247694079E1,-2.455222464E0,1.275248967E1
3.540784958E0,1.047609083E-1,-1.373391791E1,-2.357251488E0,1.393513941E1
3.550809958E0,-9.150917347E-1,-1.494070954E1,-2.491340422E0,1.517461603E1
3.560833958E0,-1.597771265E0,-1.607221009E1,-2.546710631E0,1.635097995E1
3.570858958E0,-2.511438472E0,-1.692914878E1,-2.339759835E0,1.727361797E1
3.580882958E0,-3.582647795E0,-1.704741222E1,-2.597000486E0,1.761232637E1
3.590907958E0,-4.115460995E0,-1.581820587E1,-1.565821787E0,1.641963623E1
3.600932958E0,-3.642113978E0,-1.348952885E1,-4.336606492E-1,1.397928626E1
3.610956958E0,-2.108153962E0,-1.062618594E1,4.065476950E-1,1.084091425E1
3.620981958E0,-4.983511734E-1,-7.907614235E0,-1.830527870E-1,7.925416399E0
3.631005958E0,2.047605751E-1,-6.079531962E0,-1.025999090E0,6.168898597E0
3.641030958E0,5.407805436E-1,-4.198841706E0,-1.638862281E0,4.539667922E0
3.651054958E0,3.959458159E-1,-3.430703511E0,-1.495012590E0,3.763185128E0
3.661079958E0,1.422099857E-1,-3.327497815E0,-1.130436282E0,3.517151060E0
3.671104958E0,5.731712678E-1,-1.426454571E0,-1.673608775E0,2.272501766E0
3.681128958E0,1.173510600E0,1.543702354E0,-3.364220084E0,3.883055609E0
3.691153958E0,6.926857245E-1,3.861334571E0,-4.448209666E0,5.930960075E0
3.701177958E0,-7.457170469E-1,5.317915167E0,-2.900717146E0,6.103316770E0
3.711202958E0,-1.388466819E0,7.054634110E0,-5.639072317E-1,7.212051989E0
3.721226958E0,-1.747427826E0,8.685525466E0,-7.894167978E-1,8.894663316E0
3.731251958E0,-1.878996464E0,9.490969482E0,-5.161731359E0,1.096597465E1
3.741276958E0,-3.412822433E-1,7.626906953E0,-8.533566856E0,1.145023784E1
3.751300958E0,2.568409941E0,7.346399646E0,-9.172089822E0,1.202886317E1
3.761325958E0,3.437522241E0,7.986579128E0,-6.838135103E0,1.106174023E1
3.771349958E0,3.338136240E0,9.024647017E0,-1.313910288E0,9.711527562E0
3.781374958E0,3.471423813E0,1.016319404E1,4.542324110E0,1.166078920E1
3.791398958E0,3.587808255E0,1.136129204E1,7.857559730E0,1.427209059E1
3.801423958E0,3.427102503E0,1.233284434E1,8.386646208E0,1.530293814E1
3.811447958E0,3.172181734E0,1.228573684E1,7.200213407E0,1.458921313E1
3.821472958E0,2.773671768E0,1.191281779E1,5.094784248E0,1.325010601E1
3.831497958E0,2.213448575E0,1.135872862E1,3.362250742E0,1.205092530E1
3.841521958E0,1.633222057E0,1.071999165E1,2.078563689E0,1.104110783E1
3.851546958E0,1.273373296E0,1.002127861E1,1.207755111E0,1.017379855E1
3.861570958E0,1.009231761E0,9.393250229E0,6.834482932E-1,9.472000854E0
3.871595958E0,8.108315673E-1,9.123440988E0,2.992404704E-1,9.164287651E0
3.881619958E0,6.611292518E-1,9.059212248E0,-2.847155482E-2,9.083349001E0
3.891644958E0,4.863006467E-1,8.881468002E0,-1.635232329E-1,8.896274615E0
3.901669958E0,1.659587444E-1,8.683339192E0,-1.804988694E-1,8.686800428E0
3.911693958E0,-2.460066882E-1,8.740410356E0,1.481241520E-1,8.745126257E0
3.921718958E0,-4.638396641E-1,8.948309278E0,1.179382228E0,9.037606354E0
3.931742958E0,-5.345689002E-1,9.480381929E0,2.449094582E0,9.806195475E0
3.941767958E0,-1.182113316E0,1.008161252E1,3.723856591E0,1.081218807E1
3.951791958E0,-2.367351676E0,1.030225136E1,4.547977198E0,1.150759895E1
3.961816958E0,-2.257300646E0,1.098908870E1,4.660046103E0,1.214790131E1
3.971841958E0,-1.474900507E0,1.157481598E1,3.165466207E0,1.209015603E1
3.981865958E0,-8.196808165E-1,1.147326622E1,1.470347865E0,1.159610440E1
3.991890958E0,-2.450437979E-1,1.145062112E1,4.091331875E-1,1.146054800E1
4.001914958E0,4.280677874E-1,1.142824266E1,-3.864214325E-1,1.144278348E1
4.011939958E0,9.090799199E-1,1.121756748E1,-1.056132350E0,1.130378972E1
4.021963958E0,1.254198521E0,1.100917739E1,-1.706212850E0,1.121098404E1
4.031988958E0,1.515703401E0,1.075582689E1,-2.526095395E0,1.115196516E1
4.042013958E0,1.695196695E0,1.039684761E1,-3.263288956E0,1.102801827E1
4.052037958E0,1.975828548E0,9.665066235E0,-3.142303047E0,1.035333146E1
4.062062958E0,2.037291263E0,8.969349314E0,-1.975017685E0,9.407469249E0
4.072086958E0,1.851945344E0,8.228481948E0,-2.963019522E-1,8.439514889E0
4.082111958E0,1.105399601E0,7.139419906E0,6.362236945E-1,7.252448239E0
4.092135958E0,3.611738862E-1,6.057721263E0,5.106779811E-1,6.089928200E0
4.102160958E0,-3.735417706E-1,4.800707892E0,-1.959298177E0,5.198574715E0
4.112185958E0,-1.742895357E0,7.522852242E-2,-1.394823824E1,1.405690910E1
4.122209958E0,-4.689558170E0,-9.804195469E0,-2.615394073E1,2.832212598E1
4.132234958E0,-9.479310134E0,-2.847843816E1,-1.528541226E1,3.368267490E1
4.142258958E0,-1.124590192E1,-6.236636940E1,-6.430252050E0,6.369758617E1
4.152283958E0,-1.169047932E0,-6.640267430E1,1.474916645E1,6.803102041E1
4.162307958E0,1.347863549E1,-5.011401549E1,7.714307624E0,5.246521424E1
4.172332958E0,1.156691756E1,-2.278032650E1,7.508877397E0,2.662930899E1
4.182357958E0,3.911916787E0,-5.618037543E0,8.786269484E0,1.113840070E1
4.192381958E0,-1.246097058E0,-4.026948184E-1,2.618649802E0,2.927840122E0
4.202406958E0,-4.357870477E0,2.671727318E0,-2.947701571E0,5.900686952E0
4.212430958E0,-6.383582498E0,5.080692458E0,-4.986443528E0,9.561808429E0
4.222455958E0,-8.229670102E0,7.535619053E0,-3.730070719E0,1.176547713E1
4.232479958E0,-9.353119619E0,1.006096834E1,-3.453379598E0,1.416438355E1
4.242504958E0,-9.970807786E0,1.137196204E1,-5.056950424E0,1.594714006E1
4.252529958E0,-8.951146932E0,9.296202822E0,-5.397562430E0,1.398842731E1
4.262553958E0,-5.658742350E0,4.713663901E0,-3.360525228E0,8.095253064E0
4.272578958E0,-2.728458173E0,-6.636911362E-1,-1.941068313E0,3.413607494E0
4.282602958E0,-1.479293520E0,-5.758747864E0,-1.063262664E0,6.040034253E0
4.292627958E0,-1.255070634E0,-1.098005241E1,-1.246408568E0,1.112161353E1
4.302651958E0,-9.044761878E-1,-1.589718538E1,-2.917619985E0,1.618799205E1
4.312676958E0,-2.895095341E-1,-1.867770950E1,-4.683999514E0,1.925825796E1
4.322700958E0,7.061675765E-1,-1.902731804E1,-4.899534900E0,1.966069547E1
4.332725958E0,1.957570910E0,-1.622744080E1,-3.519528271E0,1.671971884E1
4.342750958E0,2.214437193E0,-1.177744306E1,-1.600899818E0,1.209027614E1
4.352774958E0,8.340629205E-1,-7.841625482E0,6.088588715E-2,7.886092711E0
4.362799958E0,-9.641995753E-1,-4.442938986E0,1.465377731E0,4.776684996E0
4.372823958E0,-2.312850949E0,-1.512673520E0,1.530105239E0,3.158905306E0
4.382848958E0,-2.927060607E0,9.955463523E-1,1.572881130E0,3.468825649E0
4.392872958E0,-2.984894832E0,2.908237835E0,1.372792919E0,4.387710663E0
4.402897958E0,-2.613280304E0,4.510508240E0,7.919869414E-1,5.272680708E0
4.412922958E0,-1.947087290E0,5.787914361E0,5.441044664E-1,6.130836096E0
4.422946958E0,-9.085536705E-1,6.891720741E0,9.414673550E-1,7.014816129E0
4.432971958E0,-7.094426751E-2,7.738065446E0,1.351968352E0,7.855603628E0
4.442996417E0,7.720913516E-1,8.405288885E0,1.335217249E0,8.545631130E0
4.453021417E0,1.583528617E0,8.949665247E0,1.461796896E0,9.205483208E0
4.463045417E0,2.269527758E0,9.316838230E0,1.961439135E0,9.787822758E0
4.473070417E0,2.854349896E0,9.531800589E0,2.333112866E0,1.021988021E1
4.483095417E0,3.396305803E0,9.577722867E0,2.387848506E0,1.043884519E1
4.493119417E0,3.868785678E0,9.688704774E0,2.193463815E0,1.066066538E1
4.503144417E0,4.244105002E0,9.631792070E0,1.839819388E0,1.068497923E1
4.513168417E0,4.388234775E0,9.051641858E0,1.466963789E0,1.016566808E1
4.523193417E0,4.003495002E0,7.915071774E0,9.986402602E-1,8.926007830E0
4.533217417E0,3.080830684E0,6.818831690E0,6.073749943E-1,7.507122465E0
4.543242417E0,2.018828533E0,5.966095394E0,1.161328657E-1,6.299480117E0
4.553267417E0,1.290093263E0,5.259750574E0,-1.947729461E-1,5.419156136E0
4.563291417E0,7.421518533E-1,4.748741933E0,-3.471316516E-1,4.818904409E0
4.573316417E0,1.495340618E-1,4.870803729E0,-9.344433872E-1,4.961882087E0
4.583340417E0,-3.502103569E-1,5.659905946E0,-1.975576825E0,6.005005113E0
4.593365417E0,-7.756724788E-1,6.247189761E0,-2.689271596E0,6.845526234E0
4.603389417E0,-9.460471867E-1,6.550255626E0,-3.121536368E0,7.317434205E0
4.613414417E0,-1.091605873E0,6.687828916E0,-3.157529197E0,7.475871162E0
4.623439417E0,-1.466191371E0,6.501947100E0,-3.019576715E0,7.317299828E0
4.633463417E0,-1.708429091E0,5.453537825E0,-3.419104681E0,6.659585692E0
4.643488417E0,-1.101105990E0,2.174464896E0,-2.320075768E0,3.365038418E0
4.653512417E0,1.550884051E0,-3.434276159E0,-7.511906254E-1,3.842366645E0
4.663537417E0,4.000179338E0,-8.970005372E0,-1.131132174E-1,9.822180293E0
4.673561417E0,4.847556076E0,-1.436643344E1,2.893369535E0,1.543582836E1
4.683586417E0,6.488865125E0,-1.930211612E1,3.625546477E0,2.068384985E1
4.693610417E0,8.241773254E0,-1.857444767E1,4.963271012E0,2.091819763E1
4.703635417E0,7.953486226E0,-1.075195954E1,7.596593817E0,1.538085872E1
4.713660417E0,4.217045550E0,-3.611492402E0,3.315184456E0,6.466590950E0
4.723684417E0,2.900853387E-1,2.260171044E-1,-2.780316837E0,2.804531146E0
4.733709417E0,-2.055165617E0,2.796073621E0,-7.875434668E0,8.606056275E0
4.743733417E0,-3.783284767E0,3.636189287E0,-1.043013464E1,1.167573659E1
4.753758417E0,-4.572534042E0,2.234062641E0,-6.658699257E0,8.380774383E0
4.763782417E0,-4.082920071E0,-1.516304641E0,-3.750247414E0,5.747501347E0
4.773807417E0,-3.504583373E0,-8.977774567E0,-3.206468053E0,1.015696698E1
4.783832417E0,-4.094180639E0,-1.830641716E1,-1.455521665E0,1.881504099E1
4.793856417E0,-5.685799756E0,-2.645924490E1,-6.536540982E-1,2.707115113E1
4.803881417E0,-7.319831067E0,-3.027769658E1,-1.552318519E0,3.118859615E1
4.813905417E0,-4.347993068E0,-2.385795899E1,-3.967055446E0,2.457325335E1
4.823930417E0,8.963470231E-1,-1.533891311E1,-7.750140531E0,1.720902007E1
4.833954417E0,2.912197570E0,-1.186363803E1,-7.503528364E0,1.433630845E1
4.843979417E0,2.856520382E0,-1.128504903E1,-5.151368923E0,1.272983276E1
4.854004417E0,2.855374913E0,-1.264133876E1,-4.651308024E0,1.376921486E1
4.864028417E0,3.260641921E0,-1.323813600E1,-4.430003775E0,1.433544432E1
4.874053417E0,2.321151948E0,-1.141948821E1,-4.313634828E0,1.242577574E1
4.884077417E0,5.021914785E-1,-8.024132286E0,-4.823048934E0,9.375537117E0
4.894102417E0,-2.254879314E-1,-4.911770491E0,-4.004163923E0,6.341108964E0
4.904126417E0,8.129702595E-1,-6.091664350E-1,-1.589654453E0,1.886532710E0
4.914151417E0,2.347415448E0,3.912756740E0,8.142154241E-1,4.634972637E0
4.924176417E0,2.055725195E0,6.158434875E0,1.831267251E0,6.745803579E0
4.934200417E0,5.449666384E-1,5.225630316E0,2.519978038E0,5.827048151E0
4.944225417E0,-9.597418043E-1,5.121959767E0,2.524587983E0,5.790433548E0
4.954249417E0,-2.089924390E0,5.561062859E0,-3.998562291E0,7.161124525E0
4.964274417E0,-2.750654496E-1,3.610380846E0,-1.174052140E1,1.228618548E1
4.974298417E0,2.551160654E0,4.328638784E0,-1.206984945E1,1.307389766E1
4.984323417E0,3.248131511E0,6.403163654E0,-4.412329397E0,8.427307625E0
4.994348417E0,2.997954004E0,8.488569608E0,2.258583525E0,9.281419166E0
5.004372417E0,3.443664449E0,1.079002843E1,5.355897510E0,1.252873403E1
5.014397417E0,3.473188210E0,1.229637526E1,7.904839731E0,1.502499158E1
5.024421417E0,3.017409444E0,1.298893234E1,8.597503236E0,1.586613328E1
5.034446417E0,2.479181430E0,1.284060953E1,7.196513289E0,1.492706928E1
5.044470417E0,1.545186085E0,1.207544289E1,4.136789299E0,1.285756380E1
5.054495417E0,1.021825347E0,1.121561919E1,1.425611987E0,1.135194302E1
5.064520417E0,7.718530776E-1,1.073911438E1,-7.665231943E-2,1.076708923E1
5.074544417E0,6.326311652E-1,1.051767682E1,-5.224639213E-1,1.054963110E1
5.084569417E0,4.534094739E-1,9.855227044E0,-4.473716390E-1,9.875789670E0
5.094593417E0,-3.780780405E-2,9.047966298E0,-3.323768608E-1,9.054148107E0
5.104618417E0,-8.147412349E-1,8.111513076E0,-3.189422250E-2,8.152390135E0
5.114642417E0,-1.938076000E0,7.121749036E0,5.796333182E-1,7.403473691E0
5.124667417E0,-2.834749444E0,7.024627368E0,1.681432350E0,7.759407762E0
5.134692417E0,-3.092043305E0,7.910547783E0,3.144026806E0,9.056622029E0
5.144716417E0,-3.111107567E0,9.380040784E0,4.031785001E0,1.067330528E1
5.154741417E0,-2.676475841E0,1.049144621E1,4.010399394E0,1.154630979E1
5.164765417E0,-1.876362440E0,1.137452780E1,3.679670352E0,1.210126409E1
5.174790417E0,-1.077782324E0,1.183477851E1,3.161660839E0,1.229714180E1
5.184814417E0,-2.009902905E-1,1.174678143E1,2.482938266E0,1.200800789E1
5.194839417E0,4.438817284E-1,1.148358773E1,1.809553031E0,1.163375693E1
5.204864417E0,9.120624384E-1,1.119130880E1,1.242243304E0,1.129692078E1
5.214888417E0,1.177925686E0,1.086970960E1,8.230692049E-1,1.096428469E1
5.224913417E0,1.468179863E0,1.062674844E1,5.962827531E-1,1.074424905E1
5.234937417E0,1.694885185E0,1.042962710E1,4.298732615E-1,1.057518550E1
5.244962417E0,1.877908151E0,1.031419605E1,4.377319924E-1,1.049289228E1
5.254986417E0,2.085466327E0,1.028257431E1,5.480842276E-1,1.050623151E1
5.265011417E0,2.260958225E0,1.033472212E1,6.602757776E-1,1.059973478E1
5.275035417E0,2.506414252E0,1.040421978E1,4.394872534E-1,1.071088468E1
5.285060417E0,2.752343464E0,1.049975861E1,-5.393097496E-1,1.086789678E1
5.295085417E0,2.772208795E0,1.013669096E1,-1.964683170E0,1.069100674E1
5.305109417E0,2.600825150E0,9.395625953E0,-3.189237478E0,1.025735415E1
5.315134417E0,2.411859512E0,8.564041375E0,-3.781911256E0,9.667612101E0
5.325158417E0,2.345235314E0,7.901743045E0,-3.162519211E0,8.828318050E0
5.335183417E0,2.362817599E0,7.590064232E0,-1.951623999E0,8.185402756E0
5.345207417E0,2.293251813E0,7.015842512E0,-1.351885468E0,7.503908604E0
5.355232417E0,1.925017267E0,5.935515625E0,-1.506580721E0,6.419176169E0
5.365257417E0,1.698494671E0,4.269024081E0,-2.323640669E0,5.148665528E0
5.375281417E0,1.656876968E0,9.682696760E-2,-8.731516156E0,8.887856386E0
5.385306417E0,-3.550898583E-1,-9.083569994E0,-2.010998966E1,2.206918704E1
5.395330417E0,-1.224950866E1,-4.181023486E1,-1.462918860E1,4.595823496E1
5.405355417E0,-1.596438626E1,-7.054553886E1,-1.154544308E1,7.324501306E1
5.415379417E0,-6.001903743E0,-6.637500996E1,-4.831370691E0,6.682070740E1
5.425404417E0,2.289439282E0,-3.782829269E1,1.303992591E1,4.007818519E1
5.435429417E0,4.711826121E0,-8.308982905E0,1.945042724E1,2.166932445E1
5.445452792E0,4.279792898E0,4.109254176E0,7.543850763E0,9.597514338E0
5.455477792E0,1.809216231E0,9.450796772E0,-2.646618204E0,9.979750042E0
5.465501792E0,-8.848259617E-1,1.060632762E1,-5.702730954E0,1.207469432E1
5.475526792E0,-2.287092940E0,9.847822130E0,-4.237952854E0,1.096223696E1
5.485550792E0,-3.606722536E0,9.255967546E0,-5.083381593E0,1.115894937E1
5.495575792E0,-6.441977472E0,8.050038375E0,-6.385779297E0,1.212766955E1
5.505600792E0,-9.424013016E0,4.282600147E0,-3.577906288E0,1.095235585E1
5.515624792E0,-1.186919756E1,-7.819978505E-1,-2.426997954E-1,1.189740622E1
5.525649792E0,-1.372960968E1,-6.678863381E0,2.233423541E0,1.543041084E1
5.535673792E0,-1.391378411E1,-1.322804137E1,2.912022445E0,1.941788715E1
5.545698792E0,-9.644476435E0,-1.811626687E1,-2.172513680E0,2.063818952E1
5.555722792E0,-4.587109981E0,-1.928964635E1,-6.685906352E0,2.092446840E1
5.565747792E0,-8.881025952E-1,-1.639595288E1,-3.710618202E0,1.683403352E1
5.575772792E0,6.276239021E-1,-1.241006033E1,8.815931824E-1,1.245715520E1
5.585796792E0,1.143455619E0,-8.408156945E0,2.888686500E0,8.963766153E0
5.595821792E0,1.885684948E0,-4.547307692E0,2.742395889E0,5.635117584E0
5.605845792E0,2.374938146E0,-9.070236003E-1,1.759793810E0,3.091908353E0
5.615870792E0,1.812441848E0,1.891101809E0,1.024270507E0,2.812532946E0
5.625894792E0,-2.084568925E-1,2.823294749E0,6.558798409E-1,2.905963847E0
5.635919792E0,-1.660952477E0,2.676799192E0,5.253047910E-1,3.193737962E0
5.645944792E0,-2.255016285E0,2.522600514E0,8.672087395E-1,3.492944717E0
5.655968792E0,-2.049404940E0,2.738113096E0,1.027784099E0,3.571227252E0
5.665993792E0,-1.360502510E0,3.221048085E0,1.113587311E0,3.669631391E0
5.676017792E0,-8.381230809E-1,3.885242667E0,8.655250338E-1,4.067762832E0
5.686042792E0,-1.923744182E-1,4.672069148E0,7.658820471E-1,4.738334449E0
5.696066792E0,7.456091657E-1,5.661832604E0,1.311233578E0,5.859318643E0
5.706091792E0,1.643563588E0,6.861762532E0,2.066267871E0,7.352179896E0
5.716116792E0,2.371526442E0,8.069424818E0,1.937046890E0,8.630869320E0
5.726140792E0,2.841962569E0,9.104558575E0,1.880597870E0,9.721439525E0
5.736165792E0,3.030502822E0,9.880773529E0,2.032777505E0,1.053308204E1
5.746189792E0,3.062200286E0,1.049572520E1,2.319089781E0,1.117656009E1
5.756214792E0,3.025389432E0,1.085676621E1,2.487853435E0,1.154174027E1
5.766238792E0,3.011471597E0,1.099377583E1,2.629440254E0,1.169812054E1
5.776263792E0,3.100471482E0,1.069896389E1,2.784101447E0,1.148181051E1
5.786288792E0,3.082464689E0,1.000383052E1,2.316500781E0,1.072121213E1
5.796312792E0,2.872008487E0,8.941222453E0,1.326810122E0,9.484424959E0
5.806337792E0,2.635106206E0,7.516891006E0,2.697434601E-1,7.969955874E0
5.816361792E0,2.454840640E0,5.911105254E0,-7.275164187E-1,6.441792300E0
5.826386792E0,2.007689295E0,4.773002030E0,-2.149525644E0,5.606498478E0
5.836410792E0,1.107086669E0,4.122982854E0,-3.741628618E0,5.676655108E0
5.846435792E0,-1.799572711E-1,3.235332248E0,-6.950467132E0,7.668686506E0
5.856459792E0,-1.779732377E0,2.419923407E0,-1.084397718E1,1.125234721E1
5.866484792E0,-2.452521050E0,1.593579104E0,-1.141878186E1,1.178740570E1
5.876509792E0,-2.005052347E0,-4.794161350E-1,-6.814304191E0,7.119326959E0
5.886533792E0,-7.381497265E-1,-4.676814748E0,-2.504818839E0,5.356452056E0
5.896558792E0,7.824784186E-1,-9.521175613E0,1.331068065E0,9.645558549E0
5.906582792E0,2.135368219E0,-1.266464226E1,8.445094975E0,1.537116099E1
5.916607792E0,3.478936023E0,-1.500359518E1,1.146664016E1,1.920142444E1
5.926631792E0,3.738807629E0,-1.532707952E1,6.818997166E0,1.718711062E1
5.936656792E0,2.876312622E0,-1.116295916E1,1.235095668E0,1.159354531E1
5.946681792E0,8.649463056E-1,-5.795497030E0,-4.485307910E0,7.379288922E0
5.956705792E0,-1.428838188E0,-1.211964667E0,-8.070327044E0,8.284963217E0
5.966730792E0,-2.696938757E0,3.324002350E0,-7.028326902E0,8.229207089E0
5.976754792E0,-2.619938236E0,6.050994626E0,-4.866662146E0,8.195304312E0
5.986779792E0,-1.582347918E0,7.912832875E0,-2.790669039E0,8.538418046E0
5.996804792E0,1.261233307E0,8.107442830E0,-1.864443768E0,8.414124390E0
6.006828792E0,3.546915752E0,5.369609815E0,-3.403032732E0,7.279694547E0
6.016853792E0,4.463327057E0,2.171303891E0,-5.581640380E0,7.469307755E0
6.026877792E0,4.307432687E0,-6.256076360E-1,-6.088610934E0,7.484420109E0
6.036902792E0,4.141707685E0,-2.364761360E0,-4.685462195E0,6.685760601E0
6.046926792E0,3.641630706E0,-3.946281166E0,-3.326501450E0,6.316662183E0
6.056951792E0,2.337832008E0,-5.821813594E0,-2.610609004E0,6.795163823E0
6.066976792E0,1.022395451E0,-7.492343810E0,-2.780101367E0,8.056641473E0
6.077000792E0,2.706827788E-1,-9.072985949E0,-3.959625682E0,9.903079255E0
6.087025792E0,-5.501348827E-1,-1.002525004E1,-3.279349503E0,1.056231130E1
6.097049792E0,-1.241211271E0,-1.011441891E1,-1.310326529E0,1.027419247E1
6.107074792E0,-1.582727110E0,-9.811328487E0,-1.140246229E0,1.000336710E1
6.117098792E0,-1.064285708E0,-8.890455757E0,-3.683807842E0,9.682114844E0
6.127123792E0,2.354651633E-1,-7.954140530E0,-5.311501940E0,9.567436871E0
6.137147792E0,1.212367102E0,-8.121103095E0,-5.234083636E0,9.737442219E0
6.147172792E0,1.351405412E0,-1.057142442E1,-4.196431776E0,1.145387928E1
6.157197792E0,9.390066274E-1,-1.459556477E1,-4.129700427E0,1.519758764E1
6.167221792E0,4.863885011E-1,-1.825217371E1,-4.069920249E0,1.870675465E1
6.177246792E0,5.523550339E-2,-2.009060263E1,-3.651378599E0,2.041979262E1
6.187270792E0,5.066629905E-1,-1.888096807E1,-3.122146233E0,1.914407114E1
6.197295792E0,1.215688467E0,-1.565924814E1,-2.709083717E0,1.593828992E1
6.207319792E0,9.325307630E-1,-1.108990990E1,-2.920653813E0,1.150590865E1
6.217344792E0,-9.556149857E-1,-8.612929945E0,-2.667603861E0,9.067076298E0
6.227369792E0,-2.093514580E0,-7.006516203E0,-2.980412357E0,7.896640451E0
6.237393792E0,-2.510771597E0,-4.498116236E0,-2.763625667E0,5.845908870E0
6.247418792E0,-2.843224983E0,-1.107442179E0,-2.298670281E0,3.820241033E0
6.257442792E0,-2.807387983E0,2.873003683E0,-3.552629067E0,5.362532120E0
6.267467792E0,-2.726166649E0,4.979049724E0,-5.729128209E0,8.065099552E0
6.277491792E0,-2.735386831E0,5.040900401E0,-4.869688080E0,7.523754380E0
6.287516792E0,-2.957673412E0,4.918254468E0,-2.941789159E0,6.449122613E0
6.297541792E0,-3.097903385E0,5.182582530E0,-6.608654693E-2,6.038255915E0
6.307565792E0,-2.218031038E0,5.740068349E0,-4.033700548E0,7.357906391E0
6.317590792E0,4.562108749E-1,4.195694734E0,-8.563580030E0,9.547087807E0
6.327614792E0,3.122168160E0,5.952030501E0,-5.028629435E0,8.394147670E0
6.337639792E0,4.294364744E0,9.822825283E0,-9.196202570E-1,1.075988692E1
6.347663792E0,4.459649743E0,1.243034433E1,2.173465022E0,1.338379192E1
6.357688792E0,4.545358815E0,1.263864787E1,5.133033224E0,1.437858605E1
6.367713792E0,4.899403045E0,1.241297926E1,8.593836447E0,1.587262515E1
6.377737792E0,4.944609624E0,1.245152177E1,9.531371988E0,1.644191627E1
6.387762792E0,4.299167063E0,1.267942986E1,7.713374408E0,1.545143760E1
6.397786792E0,3.344163550E0,1.269599620E1,6.240548494E0,1.453671884E1
6.407811792E0,2.528922231E0,1.207865068E1,4.560206065E0,1.315616696E1
6.417835792E0,2.031439223E0,1.149857297E1,2.830245334E0,1.201474986E1
6.427860792E0,1.363611913E0,1.125779632E1,1.477192615E0,1.143588709E1
6.437886167E0,9.219530037E-1,1.119417979E1,7.060140140E-1,1.125424872E1
6.447910167E0,7.618676412E-1,1.138226600E1,7.030374889E-1,1.142937808E1
6.457935167E0,1.687889430E-1,1.133396449E1,1.949128407E0,1.150158000E1
6.467959167E0,-9.160930704E-1,1.060596276E1,3.775720224E0,1.129520853E1
6.477984167E0,-1.809898747E0,1.019431527E1,4.791048292E0,1.140850301E1
6.488008167E0,-2.439612444E0,9.703891162E0,5.059969926E0,1.121251570E1
6.498033167E0,-2.549770771E0,9.461902973E0,4.674840728E0,1.085739723E1
6.508058167E0,-2.040588069E0,9.699976451E0,3.333304685E0,1.045774655E1
6.518082167E0,-7.259274378E-1,1.018624728E1,1.832669413E0,1.037522440E1
6.528107167E0,5.423071785E-1,1.015626743E1,7.042012310E-1,1.019508532E1
6.538131167E0,1.827887414E0,9.923041881E0,2.073457754E-1,1.009212192E1
6.548156167E0,2.240989253E0,9.952183235E0,-1.859648466E-2,1.020138862E1
6.558180167E0,1.886230932E0,9.972367823E0,-3.196789742E-1,1.015421990E1
6.568205167E0,1.591551728E0,9.941560013E0,-4.486241126E-1,1.007814050E1
6.578230167E0,1.297077469E0,1.003062948E1,-6.055458391E-1,1.013225658E1
6.588254167E0,9.704914717E-1,1.018573155E1,-7.601263404E-1,1.026005716E1
6.598279167E0,6.987332073E-1,1.038725935E1,-8.373645508E-1,1.044435562E1
6.608303167E0,5.733417141E-1,1.056474924E1,-1.048743736E0,1.063214516E1
6.618328167E0,5.372665863E-1,1.072652299E1,-1.657104424E0,1.086705783E1
6.628352167E0,5.505945835E-1,1.085039274E1,-2.885706174E0,1.124106210E1
6.638377167E0,5.490691911E-1,1.069422765E1,-4.525219835E0,1.162521382E1
6.648401167E0,3.773430455E-1,9.963192372E0,-6.099955702E0,1.168832963E1
6.658426167E0,6.001587993E-1,8.801366410E0,-6.536215292E0,1.097936025E1
6.668451167E0,9.809574030E-1,7.863563066E0,-5.608986053E0,9.708688174E0
6.678475167E0,1.209659987E0,7.248248869E0,-3.813403190E0,8.279035743E0
6.688500167E0,1.619873448E0,6.742373498E0,-2.289691151E0,7.302484231E0
6.698524167E0,2.252667751E0,5.819002837E0,-1.659262047E0,6.456659860E0
6.708549167E0,2.640313736E0,3.801326936E0,8.967102814E-1,4.714385689E0
6.718573167E0,2.012646126E0,-1.258041312E0,2.099772563E0,3.168983620E0
6.728598167E0,1.602458686E-2,-1.489877799E1,1.930151854E0,1.502329286E1
6.738623167E0,-2.927956985E0,-4.150117443E1,1.454330294E0,4.162974282E1
6.748647167E0,-5.716622769E0,-6.748938635E1,-2.860282715E1,7.352291321E1
6.758672167E0,1.515358561E-1,-6.795678938E1,-4.490084852E1,8.145080959E1
6.768696167E0,-4.949651678E0,-3.543839064E1,1.186968639E1,3.769970873E1
6.778721167E0,-5.355071298E0,-5.073757076E0,2.483298922E1,2.590554290E1
6.788745167E0,-1.646153466E0,1.670544249E0,1.949219390E1,1.963278285E1
6.798770167E0,-3.442875367E0,6.370890532E0,6.211065663E0,9.540386451E0
6.808795167E0,-4.812437407E0,7.453981397E0,-1.688400184E0,9.031726726E0
6.818819167E0,-4.442596924E0,7.828203784E0,-2.742895241E0,9.409618282E0
6.828844167E0,-5.672659893E0,7.053899115E0,-2.645325969E0,9.430499057E0
6.838868167E0,-9.323535047E0,4.531881568E0,-3.475696958E0,1.093374253E1
6.848893167E0,-1.324205129E1,-2.354474938E0,-3.143240941E0,1.381214821E1
6.858917167E0,-1.744615491E1,-1.239349166E1,-2.102101801E0,2.150315765E1
6.868942167E0,-1.522577885E1,-1.814461184E1,-1.620023283E0,2.374185662E1
6.878967167E0,-6.471197178E0,-1.583384834E1,-2.021350438E0,1.722419821E1
6.888991167E0,-7.174614005E-1,-1.350873812E1,-3.227467158E-1,1.353162673E1
6.899016167E0,2.212031210E0,-1.195193333E1,6.888933666E-1,1.217441442E1
6.909040167E0,4.234732793E0,-8.668914696E0,-7.174288023E-1,9.674592907E0
6.919065167E0,5.391384262E0,-4.041451033E0,-1.919921711E0,7.006172285E0
6.929089167E0,5.358965544E0,8.315418935E-1,-2.014585648E0,5.785199128E0
6.939114167E0,4.775252039E0,4.570979560E0,-1.343835022E0,6.745574752E0
6.949139167E0,3.781191464E0,7.311744953E0,-2.419341025E-1,8.235141483E0
6.959163167E0,2.774771922E0,8.850187737E0,9.978110520E-1,9.328494471E0
6.969188167E0,2.154763433E0,9.499988812E0,2.197491377E0,9.986078371E0
6.979212167E0,1.300521187E0,9.720491992E0,2.437346356E0,1.010544295E1
6.989237167E0,6.332984787E-1,9.511809543E0,1.889530077E0,9.718328646E0
6.999261167E0,5.019369784E-1,9.334009749E0,1.341297476E0,9.443238726E0
7.009286167E0,6.821238989E-1,9.043128312E0,7.594340301E-1,9.100560572E0
7.019311167E0,1.078585293E0,8.571604748E0,4.334494185E-1,8.650065468E0
7.029335167E0,1.407214162E0,7.762638955E0,1.496477171E-1,7.890577271E0
7.039360167E0,1.717650150E0,6.719176424E0,-1.577918652E-1,6.937042030E0
7.049384167E0,1.850515261E0,5.710296081E0,-6.185840336E-1,6.034445648E0
7.059409167E0,1.826069368E0,4.363218632E0,-1.009148730E0,4.836381636E0
7.069433167E0,1.804299454E0,3.191530171E0,-1.454924079E0,3.944384036E0
7.079458167E0,1.992236274E0,2.574151906E0,-2.075796640E0,3.860595174E0
7.089483167E0,2.056189025E0,2.152550701E0,-2.508895226E0,3.893063457E0
7.099507167E0,1.679840153E0,1.981131388E0,-2.086418692E0,3.331649362E0
7.109532167E0,1.262604917E0,2.076823411E0,-1.171332951E0,2.698034014E0
7.119556167E0,9.244016714E-1,2.242252252E0,-1.168858043E-1,2.428142480E0
7.129581167E0,5.460876958E-1,2.211421053E0,8.764134995E-1,2.440634234E0
7.139605167E0,2.060538331E-1,1.744952407E0,1.821670800E0,2.530968509E0
7.149630167E0,-1.577631408E-1,6.077555019E-1,2.395765636E0,2.476681033E0
7.159655167E0,-6.155029164E-1,-1.455104173E0,2.411920323E0,2.883319553E0
7.169679167E0,-1.443039613E0,-4.677156225E0,1.855909756E0,5.234744951E0
7.179704167E0,-2.542513792E0,-8.834542927E0,9.260013235E-1,9.239643043E0
7.189728167E0,-3.644266630E0,-1.276536522E1,-6.349023700E-2,1.327551353E1
7.199753167E0,-4.309143874E0,-1.407060175E1,-5.296665215E-1,1.472518595E1
7.209777167E0,-3.781951310E0,-1.115289260E1,-5.520145798E-1,1.178960937E1
7.219802167E0,-2.407253222E0,-6.201444654E0,-1.711994576E-1,6.654479178E0
7.229827167E0,-1.661496122E0,-3.365233406E0,2.391511202E-1,3.760659317E0
7.239851167E0,-1.109271042E0,-1.708531855E0,-2.013804825E-1,2.046977637E0
7.249876167E0,-8.605891067E-1,3.611942053E-1,-7.993915629E-1,1.228861968E0
7.259900167E0,-5.844398756E-1,2.361468208E0,-1.870194504E0,3.068506078E0
7.269925167E0,-6.341567038E-1,3.547261907E0,-2.419933348E0,4.340656537E0
7.279949167E0,-1.687142448E-1,4.289044948E0,-1.883187017E0,4.687298199E0
7.289974167E0,-1.916958489E-1,4.441253818E0,-7.500738072E-1,4.508225093E0
7.299998167E0,-1.370626818E-1,4.448092722E0,8.428876480E-2,4.451002093E0
7.310023167E0,5.596758941E-1,4.480400342E0,3.892994320E-1,4.531972902E0
7.320048167E0,1.362690684E0,4.219871217E0,5.904226005E-1,4.473571038E0
7.330072167E0,2.092096046E0,3.891102746E0,1.005546845E0,4.530857635E0
7.340097167E0,2.554254709E0,3.749762095E0,1.661294539E0,4.831649039E0
7.350121167E0,2.856567745E0,3.765427371E0,2.176818985E0,5.203552965E0
7.360146167E0,2.929450364E0,3.864506101E0,2.062580763E0,5.269755805E0
7.370170167E0,2.983208495E0,4.112891144E0,1.281789193E0,5.240075384E0
7.380195167E0,3.034551142E0,4.132850615E0,-1.667662449E-3,5.127275848E0
7.390220167E0,3.102699271E0,3.518739774E0,-1.453848338E0,4.911409915E0
7.400244167E0,2.921506922E0,2.805960678E0,-2.348943472E0,4.682537074E0
7.410269167E0,2.631476547E0,1.644098462E0,-2.126343480E0,3.761524314E0
7.420293167E0,2.788059135E0,9.328940213E-2,-8.828595431E-1,2.925990025E0
7.430318167E0,2.945806196E0,-5.634026170E-1,-1.215884641E-1,3.001662940E0
7.440342208E0,2.441110355E0,-1.578450018E-1,-2.294008588E0,3.353566790E0
7.450367208E0,3.985235609E-1,-5.279094332E-1,-5.804376612E0,5.841942934E0
7.460392208E0,-1.835641114E0,-6.663054264E-1,-5.759537823E0,6.081596596E0
7.470416208E0,-4.020237334E0,1.572733780E0,-7.249556306E-1,4.377369122E0
7.480441208E0,-5.603774430E0,4.678568328E0,5.494731460E0,9.136923075E0
7.490465208E0,-6.180100563E0,6.592621627E0,9.555682372E0,1.315170592E1
7.500490208E0,-6.588745508E0,7.557435599E0,8.669890012E0,1.325493844E1
7.510514208E0,-3.111714216E0,8.242957315E0,-6.001544139E-1,8.831154849E0
7.520539208E0,2.770924746E0,6.050079537E0,-1.097970275E1,1.283882233E1
7.530564208E0,6.973601641E0,-1.408825216E0,-1.515956030E1,1.674598987E1
7.540588208E0,6.936151979E0,-7.626650845E0,-9.584443656E0,1.407613468E1
7.550613208E0,5.395331132E0,-9.901152245E0,5.223440534E-1,1.128783669E1
7.560637208E0,4.860156241E0,-1.111546106E1,3.494946869E0,1.262494542E1
7.570662208E0,5.110441922E0,-1.111653929E1,2.119747821E0,1.241722164E1
7.580686208E0,4.098628908E0,-7.838275613E0,8.011492360E-1,8.881394238E0
7.590711208E0,1.353296255E0,-3.201323088E0,8.104275978E-1,3.568847595E0
7.600736208E0,-1.349823886E0,-4.870572764E-1,-4.278290749E-1,1.497426803E0
7.610760208E0,-3.257611017E0,9.343400377E-1,-2.923711322E0,4.475836094E0
7.620785208E0,-4.829667397E0,1.538515874E0,-3.826586323E0,6.351022055E0
7.630809208E0,-5.985436229E0,1.464604145E0,-4.086007401E0,7.393643799E0
7.640834208E0,-6.703640957E0,1.026857607E0,-3.722383677E0,7.736238031E0
7.650858208E0,-6.143315729E0,-2.386605388E-1,-2.307652481E0,6.566775996E0
7.660883208E0,-4.270975882E0,-2.927160010E0,-1.550596806E0,5.404983919E0
7.670908208E0,-1.621511545E0,-5.327929108E0,-1.515135198E0,5.771634339E0
7.680932208E0,-8.078275602E-3,-7.435088459E0,-1.820137661E0,7.654639557E0
7.690957208E0,1.341093993E0,-7.920608502E0,-1.680163212E0,8.207162759E0
7.700981208E0,1.843006706E0,-7.413864820E0,-1.096611966E0,7.717812066E0
7.711006208E0,2.001445492E0,-6.942794416E0,-1.379689710E0,7.356067024E0
7.721030208E0,1.965627934E0,-7.111490096E0,-1.256590910E0,7.484384094E0
7.731055208E0,1.176933633E0,-8.370329552E0,-2.935958607E0,8.948041268E0
7.741080208E0,5.899074608E-1,-1.010276424E1,-4.858036333E0,1.122561148E1
7.751104208E0,-1.735430217E-1,-1.159880477E1,-5.158898968E0,1.269553574E1
7.761129208E0,-8.782121761E-1,-1.289261233E1,-4.890521125E0,1.381694272E1
7.771153208E0,-1.675218660E0,-1.463669877E1,-4.167418477E0,1.531034569E1
7.781178208E0,-2.149862736E0,-1.804794917E1,-1.954202621E0,1.828029778E1
7.791202208E0,-2.145044338E0,-2.183035978E1,-2.355083048E-1,2.193675654E1
7.801227208E0,-1.064624189E0,-2.046549569E1,-2.015866480E0,2.059207751E1
7.811252208E0,1.577822904E-1,-1.587924963E1,-4.715925604E0,1.656548878E1
7.821276208E0,4.591087550E-2,-1.145730800E1,-3.577665675E0,1.200298738E1
7.831301208E0,3.469780160E-1,-7.983868359E0,-1.950491978E0,8.225993355E0
7.841325208E0,7.573768334E-1,-4.142646455E0,-1.782665194E0,4.573077139E0
7.851350208E0,6.598164788E-1,-8.178518075E-1,-1.073924770E0,1.502515815E0
7.861374208E0,4.725792781E-2,3.213655450E0,-1.475847171E0,3.536656548E0
7.871399208E0,-2.560739855E-1,4.543216395E0,-2.895485643E0,5.393535594E0
7.881424208E0,-8.982153547E-1,2.452436265E0,-2.716720473E0,3.768528172E0
7.891448208E0,-1.524676099E0,1.988364394E0,-2.548838725E0,3.574186483E0
7.901473208E0,-1.874917300E0,2.253628594E0,-1.622852166E0,3.350791828E0
7.911497208E0,-1.801596432E0,1.321581835E0,-9.703299424E0,9.957225917E0
7.921522208E0,-1.011694315E0,-1.733260900E-1,-1.654861432E1,1.658041626E1
7.931546208E0,2.425024518E-1,3.715551791E0,-1.280656704E1,1.333687715E1
7.941571208E0,1.490075932E0,8.784313590E0,-6.142113542E0,1.082173971E1
7.951596208E0,2.137882814E0,1.237746328E1,1.446875387E0,1.264379644E1
7.961620208E0,3.070102505E0,1.357335453E1,6.677521445E0,1.543537416E1
7.971645208E0,3.734807841E0,1.333269015E1,8.886129402E0,1.645213397E1
7.981669208E0,4.385954069E0,1.316643744E1,1.031187938E1,1.728949173E1
7.991694208E0,4.613676513E0,1.249703533E1,9.632504261E0,1.643919223E1
8.001718208E0,3.837646916E0,1.221049720E1,6.696643009E0,1.444537308E1
8.011743208E0,2.964345085E0,1.179872809E1,4.361224147E0,1.292352902E1
8.021768208E0,2.607649435E0,1.121036605E1,3.305242728E0,1.197483912E1
8.031792208E0,2.297846847E0,1.086496166E1,2.131714733E0,1.130803696E1
8.041817208E0,2.105206380E0,1.021221125E1,6.792593479E-1,1.044904521E1
8.051841208E0,1.865646101E0,9.845527682E0,1.665883434E-1,1.002211566E1
8.061866208E0,1.634297944E0,9.874087822E0,-6.631911993E-3,1.000842565E1
8.071890208E0,1.556479105E0,1.009758478E1,-9.208268300E-3,1.021684542E1
8.081915208E0,1.450102319E0,1.021997402E1,3.361119525E-1,1.032780891E1
8.091940208E0,1.128142638E0,1.025672143E1,7.183772206E-1,1.034355384E1
8.101964208E0,7.455144408E-1,1.016261283E1,1.550948224E0,1.030727567E1
8.111989208E0,7.330011070E-2,9.655413651E0,3.219485124E0,1.017828424E1
8.122013208E0,-3.855633536E-1,9.455110263E0,3.791168568E0,1.019415167E1
8.132038208E0,6.629602343E-2,1.019350250E1,2.617164609E0,1.052432606E1
8.142062208E0,1.980206358E-1,1.028528274E1,1.575452735E0,1.040712758E1
8.152087208E0,2.488041423E-1,1.011680574E1,1.123878118E0,1.018208053E1
8.162112208E0,5.869886769E-1,1.022739530E1,9.600870824E-1,1.028911744E1
8.172136208E0,7.654467219E-1,1.046323924E1,4.430423605E-1,1.050055097E1
8.182161208E0,7.119780278E-1,1.053316726E1,-3.444080186E-1,1.056281885E1
8.192185208E0,5.978937341E-1,1.057896499E1,-8.252081895E-1,1.062793234E1
8.202210208E0,4.725496034E-1,1.064002162E1,-1.098563182E0,1.070701659E1
8.212234208E0,3.238423379E-1,1.076012343E1,-1.486445249E0,1.086713621E1
8.222259208E0,2.445179871E-1,1.089974090E1,-1.957721475E0,1.107685940E1
8.232284208E0,2.050359790E-1,1.115670615E1,-2.701874392E0,1.148103903E1
8.242308208E0,2.852627014E-1,1.142941912E1,-3.776550529E0,1.204057017E1
8.252333208E0,5.602894132E-1,1.156730114E1,-4.971061842E0,1.260269161E1
8.262357208E0,8.749250177E-1,1.139550527E1,-5.451417625E0,1.266258221E1
8.272382208E0,1.397339530E0,1.014142369E1,-4.771570047E0,1.129464090E1
8.282406208E0,2.088418440E0,8.231607285E0,-2.304449669E0,8.799507847E0
8.292431208E0,2.750469140E0,7.216492640E0,6.771474067E-1,7.752507667E0
8.302456208E0,2.969993203E0,6.963007071E0,2.692103695E0,8.034410333E0
8.312480208E0,2.853902291E0,6.639760126E0,3.715083429E0,8.126070249E0
8.322505208E0,2.567112151E0,5.756559252E0,4.639475598E0,7.826415082E0
8.332529208E0,1.653619191E0,4.002685747E0,5.374545450E0,6.902295880E0
8.342554208E0,-1.649791896E-2,-1.150725608E0,3.532331042E0,3.715077953E0
8.352578208E0,-3.598059301E0,-2.133485270E1,-5.911855452E0,2.242926671E1
8.362603208E0,-6.962979004E0,-5.405700351E1,-1.592584259E1,5.678270130E1
8.372628208E0,-5.359817483E0,-7.028055708E1,-4.599215414E1,8.416271496E1
8.382652208E0,-4.410536056E0,-6.454992087E1,-1.345444789E1,6.608454646E1
8.392677208E0,-2.845914702E0,-3.061905703E1,2.396217977E1,3.898476553E1
8.402701208E0,1.335607258E0,-4.494921318E0,2.330513048E1,2.377219534E1
8.412726208E0,2.102347092E0,2.112414828E0,1.301569388E1,1.335254459E1
8.422750208E0,-2.484378435E0,4.188547683E0,5.253775889E0,7.163674266E0
8.432775208E0,-5.549022857E0,4.522262898E0,-2.170684086E0,7.480266425E0
8.442799167E0,-8.178397622E0,4.277796659E0,-4.701989350E0,1.035830275E1
8.452824167E0,-1.298507201E1,4.580477192E0,-7.694080936E0,1.577313374E1
8.462849167E0,-1.567077652E1,4.900888823E0,-9.608673933E0,1.902415734E1
8.472873167E0,-1.579351191E1,3.496264247E0,-7.588607690E0,1.786745222E1
8.482898167E0,-1.316313844E1,8.793107218E-1,-4.036935228E0,1.379631280E1
8.492922167E0,-9.435212188E0,-4.497549056E0,-1.865985386E0,1.061758344E1
8.502947167E0,-6.255427904E0,-1.231387130E1,-1.371081731E0,1.387954141E1
8.512971167E0,-2.766988108E0,-2.069209868E1,-6.525394727E-1,2.088647838E1
8.522996167E0,1.146252488E0,-2.267257168E1,-5.908362910E-2,2.270160549E1
8.533021167E0,4.984726201E0,-1.790913744E1,-6.274179339E-2,1.859001441E1
8.543045167E0,7.202175148E0,-1.011645725E1,-6.313376150E-1,1.243433236E1
8.553070167E0,7.802189521E0,-2.621551191E0,-9.658489287E-1,8.287312962E0
8.563094167E0,7.155368772E0,1.752415794E0,8.145946160E-1,7.411735813E0
8.573119167E0,5.427848668E0,4.168447879E0,2.272370821E0,7.211183539E0
8.583143167E0,3.076735002E0,5.444322029E0,2.878711735E0,6.884324359E0
8.593168167E0,1.099945610E0,6.273622684E0,2.929017670E0,7.010518272E0
8.603193167E0,3.943331538E-1,7.150703863E0,3.310173100E0,7.889569717E0
8.613217167E0,3.640070084E-1,7.946023425E0,3.573475560E0,8.720178722E0
8.623242167E0,8.406382607E-1,8.477020773E0,3.963309427E0,9.395444401E0
8.633266167E0,1.352119064E0,8.815954628E0,4.279575967E0,9.892626164E0
8.643291167E0,1.732918838E0,9.199484028E0,4.125752095E0,1.023011947E1
8.653315167E0,1.923381655E0,9.671966534E0,3.501815593E0,1.046465700E1
8.663340167E0,2.022837092E0,1.007836264E1,2.543391459E0,1.058933914E1
8.673365167E0,2.212088512E0,1.019024443E1,1.605985726E0,1.055052640E1
8.683389167E0,2.495417978E0,1.008402859E1,9.337386516E-1,1.043008204E1
8.693414167E0,2.830993193E0,9.479789606E0,4.485399127E-1,9.903641829E0
8.703438167E0,2.937634712E0,8.377446198E0,-2.124272981E-1,8.880114181E0
8.713463167E0,2.792278193E0,7.450736192E0,-6.020857492E-1,7.979523455E0
8.723487167E0,2.557192934E0,7.117105177E0,-2.892842701E-1,7.568097991E0
8.733512167E0,2.373467425E0,7.283715740E0,6.596966109E-1,7.689022189E0
8.743537167E0,2.134880123E0,7.612363173E0,2.095702609E0,8.179104819E0
8.753561167E0,1.772332433E0,7.675518950E0,2.948756701E0,8.411297134E0
8.763586167E0,1.152442936E0,7.724830273E0,2.009063537E0,8.064580818E0
8.773610167E0,2.531905773E-1,7.911220797E0,2.003104055E-1,7.917805519E0
8.783635167E0,-9.367729180E-1,7.988634424E0,-1.724175204E0,8.226092851E0
8.793659167E0,-2.113434290E0,7.982298966E0,-3.850264038E0,9.110885492E0
8.803684167E0,-3.009954829E0,7.353822101E0,-8.863038747E0,1.190344418E1
8.813709167E0,-3.394350201E0,5.347977456E0,-1.522343411E1,1.648864525E1
8.823733167E0,-2.507836002E0,2.446018946E-1,-1.977000681E1,1.992993328E1
8.833758167E0,-1.248633872E0,-7.915565863E0,-1.956784518E1,2.114511372E1
8.843782167E0,-4.720204304E-1,-1.488231457E1,-1.157625557E1,1.886042903E1
8.853807167E0,-5.481168258E-1,-2.015180192E1,2.290274849E0,2.028893570E1
8.863831167E0,-1.574027477E0,-2.362878556E1,1.193882855E1,2.652042037E1
8.873856167E0,-2.765781243E-1,-2.007465376E1,1.394220508E1,2.444285789E1
8.883881167E0,3.060331516E0,-9.041444898E0,1.616614327E1,1.877385264E1
8.893905167E0,3.940101829E0,2.071820533E-1,1.451571637E1,1.504238506E1
8.903930167E0,3.335194505E0,6.702168628E0,6.632266919E0,1.000147745E1
8.913954167E0,2.895126039E0,1.121888427E1,-5.600002391E0,1.286876629E1
8.923979167E0,2.384279366E0,1.318442932E1,-1.775039957E1,2.223939409E1
8.934003167E0,2.139285123E0,1.084635699E1,-2.105557564E1,2.378144795E1
8.944028167E0,1.456665819E0,3.670243471E0,-1.351311886E1,1.407824363E1
8.954053167E0,-2.385965410E0,-7.660266488E0,-1.406016798E0,8.145513909E0
8.964077167E0,-8.043785362E0,-2.398369986E1,1.178169807E0,2.532406812E1
8.974102167E0,-1.331934096E1,-3.874344041E1,3.606791533E0,4.112745997E1
8.984126167E0,-1.641223270E1,-3.679303848E1,8.045450065E-1,4.029561211E1
8.994151167E0,-9.760148978E0,-2.151356699E1,-4.238037054E0,2.400114645E1
9.004175167E0,-2.393637249E0,-1.066947053E1,-6.351414626E0,1.264545644E1
9.014200167E0,-7.953968914E-1,-7.994087538E0,-3.877053349E0,8.920181301E0
9.024225167E0,-9.489319105E-1,-8.562543318E0,-9.847228637E-1,8.671061006E0
9.034249167E0,-9.163420156E-1,-1.090536125E1,-6.216657355E-1,1.096143489E1
9.044274167E0,-5.322428048E-1,-1.249140212E1,-1.791418768E0,1.263042321E1
9.054298167E0,7.445119357E-1,-1.038392994E1,-3.581073432E0,1.100928635E1
9.064323167E0,1.489581111E0,-6.556619736E0,-5.197328038E0,8.498254702E0
9.074348167E0,6.971491966E-1,-5.646099501E0,-2.842008470E0,6.359360716E0
9.084372167E0,4.112525108E-1,-6.159932932E0,-1.430883106E-1,6.175303767E0
9.094397167E0,1.585006501E0,-4.107942061E0,-2.839700099E-1,4.412263880E0
9.104421167E0,3.339376726E0,-1.038810486E-1,-1.860728447E0,3.824204302E0
9.114446167E0,4.695317385E0,3.286774297E0,-4.042279583E0,7.013480937E0
9.124470167E0,4.562261946E0,4.485368137E0,-4.667006629E0,7.919198966E0
9.134495167E0,2.889541948E0,4.967414349E0,-2.955800257E0,6.462307107E0
9.144519167E0,1.393492647E0,5.560457087E0,1.916848853E-2,5.732440336E0
9.154544167E0,9.395452291E-1,6.091460867E0,1.113258405E0,6.263224809E0
9.164569167E0,8.674867746E-1,5.232387359E0,-2.437645733E0,5.837167763E0
9.174593167E0,1.509550814E0,4.469909268E0,-5.467888647E0,7.221955329E0
9.184618167E0,2.364663126E0,6.015499104E0,-6.298731798E0,9.025069719E0
9.194642167E0,2.593046014E0,9.144852907E0,-3.531979040E0,1.014036973E1
9.204667167E0,1.913824381E0,1.029424067E1,6.072099566E-2,1.047080712E1
9.214691167E0,5.391419345E-1,1.037953050E1,2.815033218E0,1.076799607E1
9.224716167E0,-6.829547882E-2,1.110572428E1,5.514090421E0,1.239947455E1
9.234741167E0,3.340457292E-1,1.208128543E1,6.585582165E0,1.376368180E1
9.244765167E0,5.404425015E-1,1.226356887E1,6.415757972E0,1.385096206E1
9.254790167E0,6.391914488E-1,1.209801899E1,6.365415784E0,1.368536252E1
9.264814167E0,5.203893292E-1,1.176471016E1,5.064045435E0,1.281888319E1
9.274839167E0,4.034470627E-1,1.144403365E1,3.548793293E0,1.198843649E1
9.284863167E0,2.331027603E-1,1.130420450E1,2.456039904E0,1.157028558E1
9.294888167E0,-1.435991380E-1,1.104708372E1,2.033070889E0,1.123352379E1
9.304913167E0,-1.079435186E0,1.090770130E1,1.787960579E0,1.110585121E1
9.314937167E0,-1.723131768E0,1.070502161E1,2.048744058E0,1.103467366E1
9.324962167E0,-1.857845185E0,1.057963859E1,2.798204931E0,1.110001317E1
9.334986167E0,-1.315785197E0,1.047040792E1,3.825377119E0,1.122471572E1
9.345011167E0,-3.248964447E-1,1.062196074E1,4.293555490E0,1.146151065E1
9.355035167E0,4.625353695E-1,1.077441285E1,3.809392000E0,1.143736765E1
9.365060167E0,1.020930139E0,1.069314942E1,3.233231928E0,1.121782205E1
9.375085167E0,1.510230407E0,1.046512204E1,2.883838574E0,1.095974909E1
9.385109167E0,1.860225879E0,1.001585474E1,2.112187371E0,1.040380324E1
9.395134167E0,2.207171296E0,9.622582705E0,1.139800159E0,9.938050485E0
9.405158167E0,2.619984429E0,9.363388499E0,3.763783280E-1,9.730314653E0
9.415183167E0,2.786796136E0,9.387804133E0,-4.563412678E-1,9.803333438E0
9.425207167E0,2.803215410E0,9.466082563E0,-1.265612140E0,9.953216054E0
9.435232167E0,2.886353754E0,9.536687107E0,-1.884694283E0,1.014058734E1
9.445257292E0,3.092615747E0,9.573921592E0,-2.412775040E0,1.034629065E1
9.455281292E0,3.370980635E0,9.486655406E0,-3.053403150E0,1.052061842E1
9.465306292E0,3.626826140E0,9.366347775E0,-3.729143643E0,1.071395589E1
9.475330292E0,3.718751095E0,9.150829931E0,-3.992519778E0,1.065396698E1
9.485355292E0,3.642724720E0,8.734160267E0,-3.314836839E0,1.002712034E1
9.495379292E0,3.197023338E0,8.172452173E0,-1.664372659E0,8.931968937E0
9.505404292E0,2.687554853E0,7.813136094E0,2.272836113E-1,8.265573455E0
9.515429292E0,2.694564788E0,7.499222474E0,1.900854818E0,8.192207648E0
9.525453292E0,2.717871789E0,6.635800976E0,2.782280624E0,7.691668683E0
9.535478292E0,2.239735171E0,5.128173019E0,3.533471249E0,6.618156180E0
9.545502292E0,6.777124670E-1,1.042733967E-2,2.288304337E0,2.386574880E0
9.555527292E0,-2.274343964E0,-1.755564051E1,-8.741923615E-2,1.770256469E1
9.565551292E0,-4.898078066E0,-4.166782943E1,-4.662246703E0,4.221298050E1
9.575576292E0,-3.286972518E0,-6.107183796E1,-1.590675494E1,6.319492411E1
9.585601292E0,-1.738896592E0,-6.163501370E1,-2.422357369E1,6.624711464E1
9.595625292E0,-3.467818420E-1,-3.848028764E1,-6.170068495E0,3.897335680E1
9.605650292E0,-6.719663351E-1,-1.472774342E1,7.563617860E0,1.657004165E1
9.615674292E0,-4.654638744E-1,-6.204262428E0,5.259839451E-1,6.243892055E0
9.625699292E0,-2.029093759E0,-1.342743493E0,-1.176411842E0,2.702614733E0
9.635723292E0,-4.818052196E0,8.255730557E-1,7.218238619E-1,4.941277924E0
9.645748292E0,-8.205614657E0,-2.957439816E-1,2.626318718E0,8.620738159E0
9.655773292E0,-1.244067051E1,-2.548042334E0,2.886376850E0,1.302282511E1
9.665797292E0,-1.484140160E1,-5.795190051E0,-1.018655133E0,1.596524624E1
9.675822292E0,-1.547923459E1,-1.115511922E1,-6.368579128E0,2.011472566E1
9.685846292E0,-1.359837945E1,-2.022207610E1,-1.227876812E1,2.728766080E1
9.695871292E0,-8.731407398E0,-2.787231111E1,-1.053357306E1,3.104930535E1
9.705895292E0,-2.913226680E0,-2.822891408E1,-4.269842399E0,2.869825838E1
9.715920292E0,2.065964985E0,-2.322133754E1,-1.567589254E0,2.336570274E1
9.725945292E0,5.528098011E0,-1.698502009E1,-1.773690888E0,1.794983996E1
9.735969292E0,7.163508096E0,-1.065317084E1,-3.550732230E0,1.331966953E1
9.745994292E0,7.496808743E0,-4.512159494E0,-4.181277255E0,9.697670036E0
9.756018292E0,5.613566177E0,8.377557296E-1,-2.990692931E0,6.415466008E0
9.766043292E0,1.826865174E0,4.097474375E0,-1.768711399E0,4.822351360E0
9.776067292E0,-4.259918797E-1,5.602790928E0,-1.149101837E0,5.735256777E0
9.786092292E0,-1.427180941E0,6.475690178E0,-4.707885683E-1,6.647785391E0
9.796117292E0,-1.580789782E0,7.337145258E0,-1.378230829E0,7.630997122E0
9.806141292E0,-4.212050566E-1,8.461268958E0,-2.945227321E0,8.969105310E0
9.816166292E0,1.880656343E0,9.224120101E0,-1.815069879E0,9.587269611E0
9.826190292E0,3.722678377E0,9.674573808E0,1.070187230E0,1.042118100E1
9.836215292E0,4.639914432E0,1.025130340E1,3.424738181E0,1.176209416E1
9.846239292E0,4.705463181E0,1.042729991E1,3.527508844E0,1.197135272E1
9.856264292E0,4.313038120E0,9.936553627E0,1.874939520E0,1.099330678E1
9.866289292E0,3.957988461E0,8.862455195E0,-3.325136125E-1,9.711814972E0
9.876313292E0,3.695947246E0,6.965157092E0,-3.199411633E0,8.509387414E0
9.886338292E0,3.433411941E0,5.673664445E0,-4.507353083E0,8.018417400E0
9.896362292E0,2.895932662E0,5.404272695E0,-4.268191438E0,7.470612257E0
9.906387292E0,1.834878199E0,5.933612942E0,-2.292096841E0,6.620290664E0
9.916412292E0,1.046320796E0,7.398745090E0,5.843929517E-1,7.495180534E0
9.926436292E0,6.890595737E-1,9.007910532E0,2.289382564E0,9.319792260E0
9.936461292E0,3.845226954E-1,9.582613478E0,3.303762213E0,1.014343056E1
9.946485292E0,1.240824477E-1,9.892700679E0,3.909985160E0,1.063808757E1
9.956510292E0,1.230248326E-1,1.027913381E1,3.777296634E0,1.095188097E1
9.966534292E0,3.962393461E-1,1.043193091E1,3.283472375E0,1.094364559E1
9.976559292E0,6.823940402E-1,1.041825895E1,2.732292777E0,1.079218258E1
9.986583292E0,9.072851171E-1,1.035424480E1,2.494440908E0,1.068904987E1
9.996608292E0,1.019989760E0,1.034739654E1,2.063596132E0,1.060035015E1
1.000663329E1,1.080335657E0,1.040593185E1,1.782281763E0,1.061259021E1
1.001665729E1,1.051870388E0,1.040082489E1,1.652035181E0,1.058361044E1
1.002668229E1,8.432350092E-1,1.053732931E1,1.477314237E0,1.067374403E1
1.003670629E1,6.223481056E-1,1.074713091E1,1.316624857E0,1.084535113E1
1.004673129E1,5.979548375E-1,1.085406245E1,1.371186104E0,1.095665885E1
1.005675529E1,8.971790819E-1,1.095471642E1,1.405208567E0,1.108085526E1
1.006678029E1,1.275261800E0,1.092432728E1,1.221367575E0,1.106611756E1
1.007680529E1,1.691426703E0,1.078878414E1,1.401211556E0,1.101009452E1
1.008682929E1,2.104459837E0,1.040958519E1,1.862217733E0,1.078221081E1
1.009685429E1,2.198013972E0,9.853194551E0,2.194082450E0,1.033105542E1
1.010687829E1,2.223032307E0,9.256645238E0,2.295016064E0,9.792571289E0
1.011690329E1,2.311242526E0,8.791018592E0,2.117770439E0,9.333209605E0
1.012692829E1,2.407316664E0,8.448947121E0,1.748167791E0,8.957453410E0
1.013695229E1,2.358033846E0,8.243990518E0,9.770112634E-1,8.630078463E0
1.014697729E1,1.963749078E0,7.919569452E0,-7.827470250E-1,8.196864257E0
1.015700129E1,1.271079141E0,7.135409886E0,-4.511788781E0,8.537327124E0
1.016702629E1,5.172441119E-1,5.554722723E0,-7.577122589E0,9.409318399E0
1.017705029E1,9.283346549E-2,3.168465829E0,-6.586424164E0,7.309499095E0
1.018707529E1,-1.324152271E0,-9.924631155E-1,-1.131270168E0,2.004528489E0
1.019709929E1,-5.783487434E0,-1.927473127E1,9.332438017E0,2.218238923E1
1.020712429E1,-7.720031464E0,-5.033909587E1,1.032791128E1,5.196430708E1
1.021714929E1,-3.728611254E0,-6.935783370E1,-3.851800920E1,7.942322501E1
1.022717329E1,-1.921848807E0,-5.723983945E1,-3.763203441E1,6.852928379E1
1.023719829E1,-1.861183945E0,-2.101289798E1,9.764433818E0,2.324543085E1
1.024722229E1,-2.166409479E-1,-5.712988724E0,2.172538121E1,2.246502531E1
1.025724729E1,-2.064010407E0,-3.901923603E0,9.708437372E0,1.066484425E1
1.026727129E1,-6.649299273E0,-1.999080586E0,3.055568959E0,7.585908362E0
1.027729629E1,-7.461127864E0,2.036751857E0,-2.078365906E0,8.008519962E0
1.028732129E1,-9.803782071E0,1.923149228E-1,-4.113472650E0,1.063352177E1
1.029734529E1,-1.346552954E1,-5.310830095E0,-4.417693048E0,1.513411424E1
1.030737029E1,-1.444299221E1,-1.085369993E1,-7.724216316E0,1.964857103E1
1.031739429E1,-1.389163602E1,-1.932936999E1,-6.457383131E0,2.466373639E1
1.032741929E1,-9.536792942E0,-2.529547825E1,-1.628353519E0,2.708252527E1
1.033744429E1,-2.090118225E0,-2.428469581E1,-2.519712574E0,2.450436688E1
1.034746829E1,3.508542815E0,-1.961157533E1,-4.459818728E0,2.041601682E1
1.035749329E1,6.603222045E0,-1.273246528E1,-6.163925411E0,1.561128406E1
1.036751729E1,7.604425578E0,-6.438256304E0,-5.333537757E0,1.130155112E1
1.037754229E1,7.810936956E0,-1.194727076E0,-3.564300109E0,8.668468387E0
1.038756629E1,7.099682813E0,3.396696689E0,-1.111898342E0,7.948544670E0
1.039759129E1,5.455735209E0,6.021176750E0,7.605642968E-1,8.160764313E0
1.040761629E1,3.006436267E0,7.729115698E0,7.306574699E-1,8.325367790E0
1.041764029E1,1.497393284E0,8.888751878E0,-5.119050924E-1,9.028518340E0
1.042766529E1,8.150381273E-1,8.903871608E0,-1.790697514E0,9.118652003E0
1.043768929E1,5.719114852E-1,9.078739024E0,-2.158625373E0,9.349344818E0
1.044771804E1,6.342960137E-1,9.716304801E0,-1.709021852E0,9.885831584E0
1.045774204E1,1.031242727E0,1.044621916E1,-1.100115691E0,1.055448771E1
1.046776704E1,1.227717359E0,1.081703789E1,-8.532706585E-1,1.091987497E1
1.047779104E1,1.172026138E0,1.081321147E1,-1.332710255E0,1.095788776E1
1.048781604E1,1.240791733E0,9.984538218E0,-1.993249742E0,1.025688121E1
1.049784104E1,1.750947558E0,8.554176537E0,-2.555054900E0,9.097695264E0
1.050786504E1,2.181858700E0,7.610043583E0,-2.425412189E0,8.279848731E0
1.051789004E1,2.840132391E0,7.232090088E0,-1.719763187E0,7.957830387E0
1.052791404E1,3.707093793E0,7.215203329E0,3.046153772E-1,8.117542362E0
1.053793904E1,4.104210368E0,7.084666579E0,3.215496154E0,8.796388963E0
1.054796404E1,3.853095844E0,7.443915415E0,4.566369030E0,9.545153242E0
1.055798804E1,3.323217069E0,7.946487694E0,4.456578201E0,9.698016685E0
1.056801304E1,2.664825849E0,8.222720686E0,3.757624261E0,9.425188188E0
1.057803704E1,2.211288467E0,8.466650151E0,2.923714246E0,9.226162065E0
1.058806204E1,1.768572527E0,8.462767015E0,2.447954521E0,8.985474705E0
1.059808604E1,1.386406552E0,8.387944289E0,2.395361155E0,8.832750851E0
1.060811104E1,1.243102699E0,8.753554897E0,2.300309987E0,9.135724037E0
1.061813604E1,1.102078382E0,9.257410639E0,2.290837351E0,9.600112722E0
1.062816004E1,6.727474500E-1,9.439308747E0,2.536759547E0,9.797361265E0
1.063818504E1,2.118842380E-1,9.632872050E0,2.305754621E0,9.907251044E0
1.064820904E1,5.490535498E-3,1.015915596E1,1.418176814E0,1.025766569E1
1.065823404E1,2.006029125E-1,1.073031666E1,5.645429702E-1,1.074702963E1
1.066825804E1,8.483646253E-1,1.093944116E1,2.933325899E-1,1.097620788E1
1.067828304E1,1.720051163E0,1.068205608E1,4.867809954E-1,1.083059804E1
1.068830804E1,2.501613103E0,1.031232611E1,1.130418813E0,1.067145654E1
1.069833204E1,3.049338750E0,1.005646599E1,2.074508791E0,1.071142202E1
1.070835704E1,3.325056018E0,1.009037867E1,2.628948795E0,1.094454709E1
1.071838104E1,3.544164053E0,1.029974641E1,2.682130684E0,1.121782956E1
1.072840604E1,3.818627385E0,1.044103151E1,2.459146530E0,1.138615193E1
1.073843004E1,3.972048091E0,1.049790621E1,1.945786577E0,1.139163229E1
1.074845504E1,4.040115529E0,1.033937767E1,1.386580799E0,1.118695090E1
1.075847904E1,3.643122915E0,9.520855771E0,7.646254805E-1,1.022270470E1
1.076850404E1,2.676726687E0,8.300864630E0,2.487288594E-2,8.721802453E0
1.077852904E1,1.037871569E0,5.648108604E0,1.674446681E-1,5.745114961E0
1.078855304E1,-2.914009037E0,-4.133889080E0,8.742641361E-1,5.132721050E0
1.079857804E1,-1.057584258E1,-3.335832320E1,2.303911141E-1,3.499541760E1
1.080860204E1,-1.586457195E1,-6.626877306E1,-2.172878897E1,7.152185118E1
1.081862704E1,-1.354972126E1,-6.897234783E1,-4.912304342E1,8.575460982E1
1.082865204E1,-8.383396910E0,-3.900258901E1,-1.016953477E1,4.116919638E1
1.083867604E1,-4.749509672E0,-6.745593560E0,1.908275783E1,2.078972152E1
1.084870104E1,-2.735293861E0,-6.345831120E-1,1.374970890E1,1.403349646E1
1.085872504E1,-4.431054812E0,-1.114613205E0,8.013628932E0,9.224687421E0
1.086875004E1,-5.295568278E0,1.330990005E-1,3.149207439E0,6.162650909E0
1.087877404E1,-6.633774916E0,-1.830681360E-1,-1.691391620E0,6.848451591E0
1.088879904E1,-9.584407403E0,-6.974986846E0,-2.817128860E0,1.218390421E1
1.089882304E1,-1.038012808E1,-1.481770751E1,-4.308171190E0,1.859763033E1
1.090884804E1,-1.110345673E1,-2.196923349E1,-4.059275100E0,2.494818001E1
1.091887304E1,-7.084100568E0,-2.434521917E1,-2.690040797E0,2.549726449E1
1.092889704E1,-5.268323761E-1,-2.193191890E1,-3.412443241E0,2.220205819E1
1.093892204E1,4.665888056E0,-1.635188592E1,-4.847310201E0,1.768194279E1
1.094894604E1,6.364080280E0,-1.037315937E1,-5.817151608E0,1.348863247E1
1.095897104E1,6.336510658E0,-4.329679003E0,-5.061130013E0,9.193069379E0
1.096899604E1,5.590791857E0,2.810236162E-1,-2.680926157E0,6.206713537E0
1.097902004E1,4.197031700E0,3.763531119E0,6.660212517E-2,5.637701430E0
1.098904504E1,1.604991992E0,6.948363889E0,3.619748086E-1,7.140503189E0
1.099906904E1,2.257259130E-2,9.520657550E0,-9.602168906E-1,9.568983550E0
1.100909404E1,-9.039356858E-2,1.022188723E1,-6.487725502E-1,1.024285386E1
1.101911804E1,-5.893701017E-3,1.052822753E1,-2.201488753E-1,1.053053062E1
1.102914304E1,5.013490409E-1,1.104898290E1,5.502948771E-1,1.107403262E1
1.103916804E1,1.618293530E0,1.132677008E1,2.657180176E-1,1.144487660E1
1.104919204E1,2.438503228E0,1.139684779E1,-1.432866043E0,1.174255264E1
1.105921704E1,3.093361267E0,1.089242954E1,-3.644996948E0,1.189537339E1
1.106924104E1,3.726586948E0,9.504656060E0,-4.935272205E0,1.133943777E1
1.107926604E1,4.176881610E0,8.766473735E0,-4.390786500E0,1.065722327E1
1.108929004E1,4.259131469E0,7.632602141E0,-2.387871895E0,9.060835971E0
1.109931504E1,3.788720047E0,6.507883778E0,8.022251236E-1,7.573012347E0
1.110934004E1,3.330079654E0,5.981431471E0,3.938282175E0,7.897912347E0
1.111936404E1,3.123121549E0,5.829134308E0,5.318940768E0,8.486685211E0
1.112938904E1,2.873660910E0,6.413182858E0,4.417435770E0,8.300637336E0
1.113941304E1,2.105896644E0,7.625721138E0,2.889588726E0,8.422359916E0
1.114943804E1,1.543252704E0,8.570593180E0,1.806327707E0,8.893790876E0
1.115946204E1,1.490909014E0,9.201642235E0,1.180685133E0,9.396118714E0
1.116948704E1,1.461573387E0,9.708002340E0,9.890776507E-1,9.867105999E0
1.117951204E1,1.409474549E0,9.990786552E0,1.063651870E0,1.014562910E1
1.118953604E1,1.422112721E0,1.006510934E1,1.209919896E0,1.023683236E1
1.119956104E1,1.560155250E0,1.022303094E1,1.198765748E0,1.041064289E1
1.120958504E1,1.643937225E0,1.039802992E1,1.136056699E0,1.058830395E1
1.121961004E1,1.682389685E0,1.058407195E1,1.090409679E0,1.077227958E1
1.122963404E1,1.746980222E0,1.068624970E1,9.280104268E-1,1.086779996E1
1.123965904E1,1.865052755E0,1.072721413E1,9.360656972E-1,1.092830104E1
1.124968404E1,2.053855694E0,1.068475983E1,1.082539619E0,1.093408926E1
1.125970804E1,2.222904692E0,1.062544100E1,1.568409326E0,1.096819081E1
1.126973304E1,2.412032298E0,1.055638538E1,2.478757507E0,1.110852875E1
1.127975704E1,2.659080960E0,1.013307387E1,3.222869493E0,1.096069274E1
1.128978204E1,2.667825178E0,9.660091424E0,3.555710549E0,1.063380153E1
1.129980604E1,2.551123232E0,9.202538613E0,3.667006452E0,1.022946152E1
1.130983104E1,2.580800191E0,8.762566625E0,3.425653270E0,9.755931725E0
1.131985604E1,2.793599079E0,8.494030323E0,2.739502394E0,9.351877903E0
1.132988004E1,2.972716836E0,8.519462203E0,1.598866010E0,9.163768555E0
1.133990504E1,3.037391135E0,8.727321948E0,1.214912541E-1,9.241572021E0
1.134992904E1,2.938851225E0,8.540736127E0,-1.110257614E0,9.100202860E0
1.135995404E1,2.320549247E0,7.518327667E0,-3.528023983E0,8.623059372E0
1.136997804E1,9.991340576E-1,5.397585234E0,-4.968501931E0,7.403931838E0
1.138000304E1,-2.672536572E0,-4.607283168E0,-1.353476934E-1,5.328022984E0
1.139002804E1,-1.006712663E1,-3.953553231E1,3.574138634E0,4.095338595E1
1.140005204E1,-9.354256318E0,-6.952913841E1,-3.781428744E1,7.969770093E1
1.141007704E1,-4.276735097E0,-6.693309161E1,-4.052304284E1,7.836099933E1
1.142010104E1,-5.590608255E0,-3.228791787E1,1.649852006E1,3.668740526E1
1.143012604E1,-5.139962760E-1,-5.015155696E0,1.730749053E1,1.802679137E1
1.144015004E1,-5.508174355E-1,-8.888527930E-1,6.370998706E0,6.456243772E0
1.145017504E1,-3.729407938E0,5.555310953E-1,3.657414387E-1,3.788253577E0
1.146020004E1,-6.633363857E0,-3.796211207E-1,-1.233735313E0,6.757790399E0
1.147022404E1,-1.067535049E1,-4.935054688E0,-1.900100235E0,1.191336451E1
1.148024904E1,-1.439027839E1,-1.280661499E1,-2.781229295E0,1.946342046E1
1.149027304E1,-1.524794564E1,-1.801690631E1,-5.816002046E0,2.430914723E1
1.150029804E1,-1.341982302E1,-2.228958607E1,-5.887493613E0,2.667545460E1
1.151032204E1,-7.744744720E0,-2.376647112E1,-4.047434489E0,2.532208416E1
1.152034704E1,4.863538563E-1,-2.015365198E1,-3.657787732E0,2.048867100E1
1.153037204E1,6.063207121E0,-1.389625883E1,-3.187617799E0,1.549288215E1
1.154039604E1,7.711656497E0,-8.040409180E0,-3.190512171E0,1.158866660E1
1.155042104E1,8.232199607E0,-3.085827715E0,-3.325636647E0,9.399537338E0
1.156044504E1,7.877377113E0,-1.511236274E-1,-2.708184707E0,8.331276789E0
1.157047004E1,6.368501945E0,3.904105200E0,-1.785138566E0,7.680271748E0
1.158049404E1,3.957860407E0,7.168208672E0,-1.146874048E0,8.268203835E0
1.159051904E1,2.472744522E0,8.660407582E0,-8.284007692E-1,9.044521701E0
1.160054404E1,2.685632581E0,9.749837998E0,6.150024679E-1,1.013164307E1
1.161056804E1,2.833268052E0,1.040858882E1,1.400870664E0,1.087789353E1
1.162059304E1,3.159893226E0,1.068381258E1,1.984702867E0,1.131670544E1
1.163061704E1,3.690967757E0,1.127183549E1,-1.037192561E0,1.190601893E1
1.164064204E1,3.895183810E0,1.070517363E1,-6.718567729E0,1.322544335E1
1.165066604E1,4.166064846E0,8.963394510E0,-6.007353348E0,1.156662577E1
1.166069104E1,4.329171465E0,8.867151679E0,-1.885891939E0,1.004612825E1
1.167071604E1,2.471567478E0,7.500109497E0,2.907039156E0,8.414937012E0
1.168074004E1,1.174403324E0,7.317509723E0,5.393983934E0,9.166255200E0
1.169076504E1,1.509673021E0,8.750053584E0,5.930661267E0,1.067779441E1
1.170078904E1,1.853097100E0,9.827354536E0,4.828208517E0,1.110506477E1
1.171081404E1,1.635670724E0,1.013965900E1,3.011596727E0,1.070316861E1
1.172083804E1,9.691928051E-1,9.894539044E0,1.821297602E0,1.010734201E1
1.173086304E1,5.569641016E-1,9.651467366E0,1.238016937E0,9.746472042E0
1.174088804E1,2.438458496E-1,9.463236723E0,1.391430480E0,9.568092226E0
1.175091204E1,-3.904085027E-1,9.127299566E0,1.794155119E0,9.310156215E0
1.176093704E1,-1.305479772E0,8.997191416E0,2.152640894E0,9.342782970E0
1.177096104E1,-1.982788197E0,9.189725025E0,2.346162390E0,9.689529040E0
1.178098604E1,-2.251068099E0,1.006600981E1,1.218971386E0,1.038642154E1
1.179101004E1,-1.195510895E0,1.082183611E1,2.403452678E-1,1.089032364E1
1.180103504E1,9.445270568E-2,1.076417438E1,-3.650989759E-1,1.077077846E1
1.181106004E1,1.148381752E0,1.050599408E1,-5.013132267E-1,1.058045402E1
1.182108404E1,2.073942780E0,1.045808199E1,-1.085406947E-1,1.066229331E1
1.183110904E1,2.821718339E0,1.041757833E1,3.401255178E-1,1.079832015E1
1.184113304E1,3.227520368E0,1.029812322E1,5.766700955E-1,1.080744087E1
1.185115804E1,3.455046054E0,1.011830263E1,1.076697081E0,1.074600707E1
1.186118204E1,3.636136077E0,9.796975912E0,1.689991504E0,1.058575901E1
1.187120704E1,3.729045995E0,9.533036106E0,2.001685667E0,1.043030714E1
1.188123204E1,3.800534638E0,9.334874552E0,2.187168410E0,1.031346945E1
1.189125604E1,3.765683479E0,9.102502109E0,2.033339861E0,1.005834915E1
1.190128104E1,3.729410861E0,8.791274700E0,1.846536670E0,9.726495458E0
1.191130504E1,3.720714297E0,8.270142775E0,1.774267569E0,9.240508741E0
1.192133004E1,3.683369885E0,7.618522046E0,1.467740006E0,8.588559402E0
1.193135404E1,3.374922243E0,6.773528048E0,9.266024172E-1,7.624262220E0
1.194137904E1,3.106710461E0,5.723530669E0,5.650291662E-1,6.536796705E0
1.195140404E1,2.832171407E0,4.550600259E0,1.279097135E0,5.510467047E0
1.196142804E1,1.940346766E0,2.322113523E0,1.423614871E0,3.344224288E0
1.197145304E1,1.464736292E-1,-3.400048313E0,1.106390558E0,3.578530861E0
1.198147704E1,-1.855375759E0,-1.266708990E1,1.094143857E0,1.284891966E1
1.199150204E1,-3.508017150E0,-3.129494137E1,3.185563087E0,3.165165638E1
1.200152604E1,-5.505122839E-1,-5.975530695E1,-1.666487100E1,6.203803429E1
1.201155104E1,4.867490112E0,-6.921182639E1,-4.611305117E1,8.330896026E1
1.202157604E1,3.271152876E0,-4.135227625E1,-3.639909578E0,4.164084694E1
1.203160004E1,-1.263254104E0,-1.191235586E1,2.047009628E1,2.371760685E1
1.204162504E1,-5.239220999E0,-7.394394761E0,1.090152664E1,1.417638155E1
1.205164904E1,-8.087421963E0,-4.153736869E0,-1.052435960E0,9.152461168E0
1.206167404E1,-1.210388024E1,-1.707675823E0,-2.398393375E0,1.245682000E1
1.207169804E1,-1.849420633E1,-3.152344471E0,-1.353438635E0,1.880969802E1
1.208172304E1,-2.204055549E1,-7.807448507E0,-4.788615850E0,2.386782731E1
1.209174804E1,-1.779884025E1,-1.152034098E1,-8.277174636E0,2.276024144E1
1.210177204E1,-1.212205222E1,-1.515120229E1,-4.338938069E0,1.988289376E1
1.211179704E1,-7.676893630E0,-1.844419744E1,1.260817862E0,2.001781148E1
1.212182104E1,-2.225073132E0,-1.717411554E1,2.900739366E0,1.755891466E1
1.213184604E1,2.642828624E0,-1.340258543E1,-2.714662691E-1,1.366336464E1
1.214187004E1,5.261374930E0,-9.401807045E0,-3.281597757E0,1.126254526E1
1.215189504E1,5.855039812E0,-6.144509146E0,-3.258172642E0,9.091324041E0
1.216192004E1,5.873659101E0,-3.378986058E0,-3.023749580E0,7.420274896E0
1.217194404E1,6.076023048E0,-8.591828513E-1,-2.424819281E0,6.598181553E0
1.218196904E1,6.242377503E0,3.152610519E0,-2.065124302E0,7.291842590E0
1.219199304E1,5.409522910E0,8.123679963E0,-1.391464832E0,9.858665662E0
1.220201804E1,3.566213903E0,1.130741580E1,-1.590292969E0,1.196263204E1
1.221204304E1,2.950043088E0,1.232056987E1,-6.576000917E-1,1.268588326E1
1.222206704E1,3.083338555E0,1.225044304E1,6.506337190E-1,1.264925514E1
1.223209204E1,2.919298136E0,1.170768110E1,2.459327209E-1,1.206866112E1
1.224211604E1,2.674315588E0,1.120699805E1,-1.436857352E0,1.161091419E1
1.225214104E1,2.176147432E0,1.105605569E1,-3.325646002E0,1.174869807E1
1.226216504E1,1.460594709E0,1.009645743E1,-3.361971245E0,1.074125878E1
1.227219004E1,9.008287677E-1,8.378817371E0,-3.119894178E0,8.986089955E0
1.228221504E1,8.055688539E-1,7.054475065E0,-2.956045840E0,7.691083580E0
1.229223904E1,1.099673276E0,6.737099894E0,-1.977877997E0,7.107024530E0
1.230226404E1,2.275588982E0,8.061563237E0,7.870678981E-1,8.413476268E0
1.231228804E1,3.737426517E0,9.910455165E0,3.110966649E0,1.103918439E1
1.232231304E1,3.408271545E0,9.068477161E0,3.938376900E0,1.045774381E1
1.233233704E1,2.543265159E0,9.334109736E0,4.853020884E0,1.082338274E1
1.234236204E1,1.214704088E0,8.287387383E0,3.921630474E0,9.248539411E0
1.235238704E1,8.959112594E-1,7.303008628E0,3.211858016E0,8.028239154E0
1.236241104E1,1.199826140E0,7.043501011E0,2.243385003E0,7.488876120E0
1.237243604E1,1.723029149E0,8.267136136E0,1.609042797E0,8.596707978E0
1.238246004E1,2.047959508E0,9.899650680E0,1.479998256E0,1.021702582E1
1.239248504E1,2.401632147E0,1.078106932E1,8.238164060E-1,1.107600859E1
1.240250904E1,2.863273039E0,1.108257632E1,4.744651513E-1,1.145630602E1
1.241253404E1,3.295436947E0,1.126162157E1,4.178816454E-1,1.174132233E1
1.242255904E1,3.614294095E0,1.117897586E1,3.888269770E-1,1.175516097E1
1.243258304E1,3.888850399E0,1.072618385E1,6.715690899E-1,1.142913743E1
1.244260804E1,4.007996188E0,1.035660707E1,8.064491522E-1,1.113434793E1
1.245262904E1,4.047663115E0,1.008238552E1,1.144161086E0,1.092461346E1
1.246265404E1,4.057218634E0,9.889924421E0,1.880120738E0,1.085386945E1
1.247267804E1,3.991929209E0,9.705306773E0,2.724935811E0,1.084222088E1
1.248270304E1,3.667261391E0,9.422610853E0,3.131773381E0,1.058500855E1
1.249272804E1,3.220856589E0,8.940681585E0,3.350372708E0,1.007644291E1
1.250275204E1,2.875714160E0,8.318079418E0,3.528870660E0,9.482252120E0
1.251277704E1,2.556885956E0,7.959666733E0,3.484294996E0,9.057277290E0
1.252280104E1,2.253890550E0,8.068813784E0,3.225874962E0,8.977307378E0
1.253282604E1,2.087799658E0,8.224088935E0,2.887127048E0,8.962703209E0
1.254285004E1,1.972883306E0,8.343206073E0,2.583151356E0,8.953995033E0
1.255287504E1,1.824658874E0,8.078210844E0,2.545130421E0,8.663980570E0
1.256290004E1,9.235703436E-1,6.356535033E0,2.454571084E0,6.876295442E0
1.257292404E1,-1.829413537E0,-1.752778906E0,-5.862199143E-2,2.534250248E0
1.258294904E1,-7.598186599E0,-2.433986078E1,-1.184429895E1,2.811491917E1
1.259297304E1,-1.231928816E1,-6.322758007E1,-4.751436213E1,8.004440237E1
1.260299804E1,-4.482545978E0,-6.944876960E1,-4.611407560E1,8.348492550E1
1.261302204E1,-5.054995115E0,-4.448059276E1,1.229672375E1,4.642505275E1
1.262304704E1,-1.897940858E0,-1.262889355E1,2.541315230E1,2.844150913E1
1.263307204E1,2.369210798E0,-3.402417020E0,7.394864877E0,8.477831559E0
1.264309604E1,1.436923718E0,3.796193665E0,-3.871763080E0,5.609490660E0
1.265312104E1,1.278552175E-1,6.362573453E0,-6.397193062E-1,6.395930635E0
1.266314504E1,3.281355098E-2,6.814972528E0,7.537506826E-1,6.856607570E0
1.267317004E1,-1.544173640E0,2.405439854E0,3.364811822E0,4.415039266E0
1.268319404E1,-5.662807335E0,-6.533281744E0,4.839220286E0,9.908037658E0
1.269321904E1,-1.491139862E1,-1.711501305E1,-4.351127175E0,2.311289225E1
1.270324404E1,-2.426946966E1,-3.037717643E1,-1.235687289E1,4.079794496E1
1.271326804E1,-1.907976171E1,-3.257092778E1,-8.021698090E0,3.859080569E1
1.272329304E1,-5.697372565E0,-2.360272101E1,-6.199731420E0,2.505963214E1
1.273331704E1,7.585110471E-2,-1.644865032E1,-4.971944772E0,1.718383210E1
1.274334204E1,2.463208591E0,-1.181503948E1,-3.513259764E0,1.257002580E1
1.275336604E1,3.710752104E0,-7.485906610E0,-2.862053018E0,8.831751039E0
1.276339104E1,3.417005239E0,-2.469446400E0,-2.134803232E0,4.725619024E0
1.277341604E1,2.510406146E0,2.800524521E0,-6.851907635E-1,3.822899815E0
1.278344004E1,1.111968801E0,6.064528592E0,4.738349676E-2,6.165811127E0
1.279346504E1,-1.272267880E-1,7.583590779E0,4.368215078E-1,7.597226388E0
1.280348904E1,-1.339777931E0,8.205388370E0,-3.572315472E-1,8.321719629E0
1.281351404E1,-1.589519674E0,8.935631345E0,-1.801117253E0,9.252897043E0
1.282353804E1,-1.273016031E0,9.085928761E0,-2.615112821E0,9.540098864E0
1.283356304E1,-2.776819324E-1,7.763420143E0,-1.886264407E0,7.994109893E0
1.284358804E1,1.589972541E0,8.045193372E0,-9.771188521E-1,8.258808045E0
1.285361204E1,2.662788971E0,9.168801348E0,-3.561661845E-1,9.554277451E0
1.286363704E1,2.978168488E0,9.692918862E0,-7.691493250E-2,1.014041811E1
1.287366104E1,3.057447669E0,9.393612757E0,2.001051317E-1,9.880687675E0
1.288368604E1,3.028152534E0,8.436886069E0,-4.058792486E-1,8.973042532E0
1.289371004E1,3.180098864E0,6.796133968E0,-2.163076274E0,7.808928522E0
1.290373504E1,3.740694818E0,5.061681406E0,-4.346048284E0,7.648630731E0
1.291376004E1,3.805267375E0,4.302614581E0,-3.609127203E0,6.783682716E0
1.292378404E1,3.928011541E0,4.360672755E0,-8.287539411E-1,5.927189438E0
1.293380904E1,4.270168381E0,5.523379308E0,2.367627665E0,7.372090460E0
1.294383304E1,3.988229676E0,7.502065975E0,4.512147800E0,9.620106424E0
1.295385804E1,3.077053383E0,9.208389337E0,5.153469243E0,1.099185776E1
1.296388204E1,1.940736191E0,9.874295983E0,4.707592152E0,1.110988758E1
1.297390704E1,9.272384481E-1,9.587723359E0,4.264844491E0,1.053437748E1
1.298393204E1,1.676561911E-1,9.119146208E0,3.744548718E0,9.859441225E0
1.299395604E1,-1.229274765E-1,9.226408702E0,2.872810725E0,9.664096965E0
1.300398104E1,-4.075018144E-1,9.550640903E0,1.941829913E0,9.754563178E0
1.301400504E1,-8.092489453E-1,9.864556861E0,1.658200046E0,1.003563617E1
1.302403004E1,-1.021081728E0,1.028238720E1,1.673598250E0,1.046761795E1
1.303405404E1,-8.932165700E-1,1.097896366E1,1.594660839E0,1.113006838E1
1.304407904E1,-3.789122920E-1,1.157853364E1,1.408113610E0,1.166999571E1
1.305410404E1,4.870602000E-1,1.165338853E1,1.141674703E0,1.171930514E1
1.306412804E1,1.603290014E0,1.124906760E1,1.042930580E0,1.141051116E1
1.307415304E1,2.407751990E0,1.078302814E1,1.152398497E0,1.110850970E1
1.308417704E1,2.743902716E0,1.048672633E1,1.315451614E0,1.091928772E1
1.309420204E1,3.018704603E0,1.028637500E1,1.371966122E0,1.080760747E1
1.310422704E1,3.218067175E0,1.007314458E1,1.025358381E0,1.062429094E1
1.311425104E1,3.298058254E0,9.896272159E0,6.574106419E-1,1.045206102E1
1.312427604E1,3.465278682E0,9.761130141E0,5.828481174E-1,1.037436889E1
1.313430004E1,3.537240365E0,9.532825606E0,7.641389921E-2,1.016821875E1
1.314432504E1,3.623575673E0,9.328620955E0,-1.343641040E0,1.009746705E1
1.315434904E1,3.925341702E0,8.994566016E0,-4.737816702E0,1.089758838E1
1.316437404E1,4.006195246E0,8.078857546E0,-8.166428372E0,1.216585763E1
1.317439904E1,3.171920949E0,6.134387616E0,-7.606506017E0,1.027378838E1
1.318442304E1,2.115622757E0,5.012804530E0,-2.267128353E0,5.894399026E0
1.319444804E1,6.051773183E-1,-1.638326676E0,7.229060061E0,7.437046675E0
1.320447204E1,-4.366118851E0,-3.957569099E1,1.815393464E1,4.375915509E1
1.321449704E1,-5.514683914E0,-6.756764081E1,-9.153595079E0,6.840750051E1
1.322452104E1,-2.378223404E0,-6.721237334E1,-4.086700881E1,7.869734103E1
1.323454604E1,1.135306282E0,-3.800001372E1,-4.187094065E0,3.824685242E1
1.324457104E1,2.665186037E0,-9.361548965E0,1.351281597E1,1.665346844E1
1.325459504E1,3.573611800E0,-3.088913291E0,9.313788908E0,1.044311977E1
1.326462004E1,6.422340475E-1,-1.897754771E0,2.289193991E0,3.042095802E0
1.327464404E1,-2.173158189E0,4.108557773E-1,-2.683776090E0,3.477653388E0
1.328466904E1,-4.543557873E0,-3.001188684E0,-7.014533320E-1,5.490272164E0
1.329469304E1,-9.092146105E0,-1.129080269E1,1.155873789E0,1.454253727E1
1.330471804E1,-1.374679581E1,-1.718929842E1,-4.752294116E0,2.251734164E1
1.331474304E1,-1.643902464E1,-2.169912721E1,-7.614365845E0,2.826786550E1
1.332476704E1,-1.460498932E1,-2.446945613E1,-2.832666081E0,2.863710868E1
1.333479204E1,-6.410569153E0,-2.116359944E1,-1.352257643E0,2.215450155E1
1.334481604E1,-5.937699853E-1,-1.635180406E1,-1.761835219E0,1.645716021E1
1.335484104E1,2.638130971E0,-1.123087223E1,-3.196047145E0,1.197108782E1
1.336486504E1,4.141900935E0,-5.413788453E0,-4.664161373E0,8.259470328E0
1.337489004E1,4.839541883E0,1.577444297E-1,-4.174472265E0,6.393142235E0
1.338491504E1,4.517244525E0,3.502006797E0,-1.628004001E0,5.943058702E0
1.339493904E1,2.774036050E0,5.538787891E0,4.312216294E-1,6.209621518E0
1.340496404E1,1.316190117E0,7.066260129E0,1.585523395E0,7.360589179E0
1.341498804E1,4.907299125E-1,7.769290747E0,9.065125537E-1,7.837375809E0
1.342501304E1,5.784556890E-1,8.609598202E0,2.495942839E-1,8.632617765E0
1.343503704E1,1.491982855E0,9.107017913E0,7.352669030E-1,9.257667392E0
1.344506508E1,1.951179610E0,9.626175819E0,6.525709015E-1,9.843587332E0
1.345509008E1,2.121866852E0,9.781046927E0,1.083415385E0,1.006702473E1
1.346511408E1,2.409100796E0,9.852385297E0,-4.921542943E-2,1.014276515E1
1.347513908E1,2.796908603E0,9.079171134E0,-4.112874187E0,1.035228382E1
1.348516308E1,2.980393061E0,6.754556757E0,-7.090392172E0,1.023623177E1
1.349518808E1,3.559882538E0,5.770520064E0,-6.486349652E0,9.383197605E0
1.350521208E1,3.635908036E0,6.153103384E0,-4.178672905E0,8.278998475E0
1.351523708E1,3.561968532E0,6.684678437E0,-1.182494116E0,7.666214056E0
1.352526208E1,3.310410790E0,8.159560232E0,2.414687226E0,9.130605521E0
1.353528608E1,2.534535559E0,1.019309437E1,4.048892784E0,1.125684574E1
1.354531108E1,2.339206688E0,1.090998055E1,4.335635562E0,1.197068499E1
1.355533508E1,2.251589085E0,1.081704724E1,3.589488745E0,1.161734022E1
1.356536008E1,2.026050576E0,1.058775920E1,2.491662312E0,1.106408184E1
1.357538408E1,1.856585402E0,1.031662264E1,1.601863585E0,1.060403598E1
1.358540908E1,1.772896251E0,1.002899226E1,1.445824935E0,1.028660569E1
1.359543408E1,1.782763720E0,9.800916350E0,1.795457879E0,1.012224663E1
1.360545808E1,1.889371179E0,9.485505259E0,2.363437550E0,9.956423581E0
1.361548308E1,1.763671976E0,9.384585825E0,2.836573191E0,9.961281916E0
1.362550708E1,1.859718194E0,9.450459387E0,3.171977667E0,1.014057083E1
1.363553208E1,2.131626294E0,9.354960322E0,3.391821573E0,1.017661864E1
1.364555708E1,2.376371445E0,9.424668489E0,3.300182548E0,1.026463454E1
1.365558108E1,2.489377804E0,9.559568431E0,2.727627869E0,1.024803904E1
1.366560608E1,2.559173386E0,9.544840465E0,2.249882283E0,1.013485660E1
1.367563008E1,2.665733337E0,9.599226002E0,1.426684366E0,1.006412949E1
1.368565508E1,2.731257235E0,9.707771375E0,2.259820942E-1,1.008720274E1
1.369567908E1,2.577220525E0,9.853428440E0,-3.811728255E-1,1.019202680E1
1.370570408E1,2.340751961E0,1.003805427E1,-2.841910529E-1,1.031127625E1
1.371572908E1,2.092605631E0,1.020535832E1,1.540753750E-1,1.041883275E1
1.372575308E1,1.911329959E0,1.020354334E1,7.104927620E-1,1.040530052E1
1.373577808E1,1.714666462E0,9.888469634E0,1.201530384E0,1.010769944E1
1.374580208E1,1.451179522E0,9.295829185E0,1.602987274E0,9.543999709E0
1.375582708E1,1.264241114E0,8.802061644E0,1.769070418E0,9.066653457E0
1.376585108E1,1.164555297E0,8.304598662E0,1.536343049E0,8.525426555E0
1.377587608E1,1.085104208E0,7.236926905E0,8.117585702E-1,7.362711059E0
1.378590108E1,1.112524433E0,4.925037239E0,-5.283004658E-1,5.076692210E0
1.379592508E1,4.318940592E-1,8.426083338E-1,-1.794975922E0,2.029398887E0
1.380595008E1,-1.063599610E0,-7.094575855E0,-2.497763296E0,7.596253825E0
1.381597408E1,-3.263678380E0,-3.145925982E1,-2.801413181E1,4.225077758E1
1.382599908E1,-7.080010441E0,-6.866767047E1,-7.334926473E1,1.007248239E2
1.383602308E1,-1.098772279E1,-5.780884370E1,-8.990723226E0,5.952667945E1
1.384604808E1,-8.205947363E0,-2.429167738E1,3.851038677E1,4.626524669E1
1.385607308E1,-9.567320231E-1,-9.841200743E0,3.179257450E1,3.329462962E1
1.386609708E1,1.661984218E0,-3.730041191E0,2.580793057E1,2.612900073E1
1.387612208E1,3.557199835E0,1.975513383E0,4.282417421E0,5.907234781E0
1.388614608E1,4.750287936E0,4.509529417E0,-1.659508332E1,1.784090472E1
1.389617108E1,4.844040438E0,5.517210495E-1,-2.271294085E1,2.323029931E1
1.390619508E1,-1.222662222E0,-1.092775141E1,-1.827241443E1,2.132584776E1
1.391622008E1,-7.725687475E0,-2.207759877E1,-7.829968473E-1,2.340341211E1
1.392624508E1,-9.360301169E0,-2.398757071E1,1.251837416E0,2.577956330E1
1.393626908E1,-9.866063104E0,-2.758300959E1,-2.115575102E0,2.937068738E1
1.394629408E1,-5.847889252E0,-2.837142943E1,-4.827974336E0,2.936741652E1
1.395631808E1,-5.653937401E-1,-2.229158815E1,-3.422154004E0,2.255982514E1
1.396634308E1,1.984065375E0,-1.501225841E1,-9.985417347E-1,1.517568791E1
1.397636708E1,2.863178899E0,-8.387491130E0,-1.482936920E0,8.985928042E0
1.398639208E1,1.807289281E0,-4.213529327E0,-2.446525315E0,5.196692222E0
1.399641708E1,3.078499107E-1,-1.011345529E0,-2.819796360E0,3.011451951E0
1.400644108E1,-9.579917327E-1,2.256063960E0,-3.029882140E0,3.897147487E0
1.401646608E1,-1.957284396E0,4.582013841E0,-2.221054341E0,5.455171439E0
1.402649008E1,-2.762343957E0,5.989395964E0,-1.484392877E0,6.760682684E0
1.403651508E1,-2.504936368E0,6.362120878E0,-2.060029038E0,7.141078904E0
1.404653908E1,5.966557324E-2,6.815933225E0,-2.379332036E0,7.219537842E0
1.405656408E1,2.450409620E0,7.040516008E0,-3.434607697E-1,7.462662947E0
1.406658908E1,3.390798603E0,6.842992385E0,1.974841538E0,7.888222807E0
1.407661308E1,3.971734388E0,7.225031329E0,1.943008711E0,8.470598244E0
1.408663808E1,4.661604971E0,8.282295628E0,-2.227161173E0,9.761517743E0
1.409666208E1,4.575943846E0,7.815446913E0,-7.309422439E0,1.163821846E1
1.410668708E1,4.239119959E0,5.665367830E0,-9.234076155E0,1.163334402E1
1.411671208E1,5.034494777E0,6.291416346E0,-5.155326319E0,9.565847937E0
1.412673608E1,5.214542241E0,6.842455026E0,5.313142669E-1,8.619335033E0
1.413676108E1,4.416002033E0,7.866388441E0,4.805840578E0,1.022141109E1
1.414678508E1,3.388151568E0,9.240007571E0,6.008445607E0,1.153077316E1
1.415681008E1,2.486594530E0,1.022231992E1,5.553407099E0,1.189618877E1
1.416683408E1,1.822930875E0,1.032629745E1,5.349429320E0,1.177165621E1
1.417685908E1,1.208985511E0,1.009053303E1,4.695131736E0,1.119485439E1
1.418688408E1,7.176621062E-1,9.997501495E0,3.387858038E0,1.058029570E1
1.419690808E1,5.174130964E-1,9.746318559E0,2.405209035E0,1.005203821E1
1.420693308E1,4.587571912E-1,9.508703502E0,1.780368554E0,9.684813506E0
1.421695708E1,3.740614419E-1,9.547999715E0,1.408410648E0,9.658563096E0
1.422698208E1,-5.713460594E-3,9.586266233E0,1.566789647E0,9.713462963E0
1.423700608E1,-4.788455929E-1,9.409634712E0,1.720434594E0,9.577599580E0
1.424703108E1,-6.094865701E-1,9.411833850E0,1.774338905E0,9.596997908E0
1.425705608E1,-8.711827996E-1,9.982726750E0,1.197507427E0,1.009196794E1
1.426708008E1,-4.195339224E-1,1.040837131E1,3.572264309E-1,1.042294645E1
1.427710508E1,3.083874160E-1,1.012873056E1,8.616939381E-2,1.013379054E1
1.428712908E1,9.904075268E-1,9.937464623E0,3.828653752E-1,9.994033025E0
1.429715408E1,1.672633752E0,9.882721821E0,1.090300043E0,1.008239299E1
1.430717808E1,2.234256476E0,9.908378234E0,1.522191617E0,1.027058560E1
1.431720308E1,2.703609553E0,9.924586716E0,1.662787918E0,1.041977878E1
1.432722808E1,3.050312019E0,9.814942067E0,1.681365691E0,1.041462826E1
1.433725208E1,3.217497071E0,9.754355557E0,1.577951835E0,1.039180791E1
1.434727708E1,3.286244540E0,9.841861478E0,1.298287843E0,1.045692076E1
1.435730108E1,3.343525911E0,9.770624850E0,1.112072589E0,1.038657696E1
1.436732608E1,3.356003869E0,9.351828554E0,9.367637817E-1,9.979828939E0
1.437735008E1,3.388489537E0,8.842068293E0,4.590814193E-1,9.480231474E0
1.438737508E1,3.535620978E0,8.404235217E0,9.088034928E-4,9.117663413E0
1.439740008E1,3.801960482E0,7.767464077E0,-5.967644906E-1,8.668594439E0
1.440742408E1,3.926885367E0,6.803913104E0,-1.187369817E0,7.945030478E0
1.441744908E1,3.887929170E0,6.162474716E0,-1.082061317E0,7.366338612E0
1.442747308E1,3.571021484E0,5.321121780E0,-1.180377424E0,6.516120187E0
1.443749808E1,3.071586236E0,3.941731448E0,-1.107866249E0,5.118520923E0
1.444751833E1,2.235020123E0,2.147685233E0,1.520465519E0,3.452489276E0
1.445754333E1,7.263915606E-1,-5.797949937E0,3.901919218E0,7.026296447E0
1.446756833E1,-1.655699046E0,-4.108484799E1,-2.466106705E1,4.794657758E1
1.447759233E1,5.393336062E0,-7.064730848E1,-5.935114740E1,9.242666805E1
1.448761733E1,2.729404837E0,-5.469311508E1,7.896406292E0,5.532756745E1
1.449764133E1,-2.977384669E0,-2.472449296E1,3.283335550E1,4.120915681E1
1.450766633E1,-1.415683707E0,-9.446509593E0,9.977175404E0,1.381248467E1
1.451769033E1,-1.512003721E0,-3.449249125E0,-5.360881677E0,6.551528610E0
1.452771533E1,-2.431343604E0,-2.219412442E0,-4.151304720E0,5.298165172E0
1.453774033E1,-6.179711723E0,-3.661591930E0,-9.866613911E0,1.220435015E1
1.454776433E1,-1.055642047E1,-1.079186913E1,-5.325863872E0,1.600835027E1
1.455778933E1,-1.224919408E1,-1.538201762E1,-2.684235974E0,1.984576389E1
1.456781333E1,-1.225594761E1,-1.804535067E1,-2.802996140E0,2.199317440E1
1.457783833E1,-1.172332123E1,-2.284271396E1,-3.304096674E0,2.588711835E1
1.458786333E1,-6.867488126E0,-2.542580333E1,-3.778310541E0,2.660656872E1
1.459788733E1,-1.226345310E0,-2.332136001E1,-3.356603501E0,2.359356995E1
1.460791233E1,2.080055459E0,-1.846825990E1,-5.861383456E0,1.948740800E1
1.461793633E1,2.344774700E0,-1.267589815E1,-6.959070725E0,1.464940366E1
1.462796133E1,2.503801131E-1,-6.455405602E0,-4.653027105E0,7.961508207E0
1.463798533E1,-1.889557267E0,-1.001005313E0,-2.781286597E0,3.508274994E0
1.464801033E1,-1.673380441E0,4.559728348E0,-2.473309071E0,5.450557996E0
1.465803533E1,-1.691967278E0,8.631013044E0,-1.899699554E0,8.998110793E0
1.466805933E1,-2.716205918E0,1.037449839E1,-1.397964597E0,1.081491083E1
1.467808433E1,-3.295524363E0,1.015426769E1,-3.257285035E-1,1.068062414E1
1.468810833E1,-1.004517735E0,9.372797254E0,1.442210478E0,9.536160407E0
1.469813333E1,2.324834817E0,8.339182019E0,2.795649698E0,9.097388137E0
1.470815733E1,4.388748161E0,7.840763018E0,3.319981220E0,9.579193621E0
1.471818233E1,5.107878503E0,8.515915282E0,4.388153718E-1,9.940009800E0
1.472820733E1,5.317055626E0,8.617817633E0,-3.845603222E0,1.083173695E1
1.473823133E1,4.688904743E0,6.138219296E0,-6.702596644E0,1.022684534E1
1.474825633E1,4.086293914E0,4.646292282E0,-5.448770590E0,8.244691072E0
1.475828033E1,4.547850021E0,5.354893543E0,-3.321490971E0,7.771108476E0
1.476830533E1,5.031899782E0,6.821950010E0,-6.133725565E-2,8.477191730E0
1.477832933E1,4.563246325E0,8.670959467E0,3.063113036E0,1.026603217E1
1.478835433E1,4.117248489E0,1.053778656E1,5.269258146E0,1.248045520E1
1.479837933E1,3.562405027E0,1.152467143E1,5.639002150E0,1.331567221E1
1.480840333E1,3.207331394E0,1.179857372E1,5.612445266E0,1.345335863E1
1.481842833E1,2.758866618E0,1.156075694E1,4.970140321E0,1.288273033E1
1.482845233E1,2.282436656E0,1.093805420E1,3.557162998E0,1.172620805E1
1.483847733E1,1.659248306E0,9.898099998E0,2.395413634E0,1.031811490E1
1.484850133E1,1.028898578E0,9.032527894E0,1.538534585E0,9.220210470E0
1.485852633E1,2.783365282E-1,8.612306632E0,5.431642342E-1,8.633905497E0
1.486855133E1,-5.831048101E-1,8.413594270E0,-4.230869830E-1,8.444381704E0
1.487857533E1,-1.291166373E0,8.335578965E0,-7.481993361E-1,8.468104247E0
1.488860033E1,-1.461893668E0,8.603729351E0,-6.706347048E-1,8.752773432E0
1.489862433E1,-6.138418686E-1,9.228707242E0,-5.018885927E-1,9.262706481E0
1.490864933E1,1.010140710E0,9.272377757E0,1.487780169E-2,9.327250124E0
1.491867333E1,1.947800797E0,8.884250692E0,4.458583796E-1,9.106186248E0
1.492869833E1,2.482152692E0,8.687249810E0,9.883140043E-1,9.088792869E0
1.493872333E1,2.945273807E0,8.530011165E0,1.824223695E0,9.206710615E0
1.494874733E1,3.388478135E0,8.654842202E0,2.701949236E0,9.679287540E0
1.495877233E1,3.802754826E0,9.236308038E0,3.617139058E0,1.062327753E1
1.496879633E1,4.157915289E0,9.873781428E0,4.137527218E0,1.148472685E1
1.497882133E1,4.126103513E0,1.024236418E1,3.985513644E0,1.173946647E1
1.498884633E1,3.801479548E0,1.041156856E1,3.176000551E0,1.152991701E1
1.499887033E1,3.371638739E0,1.028225505E1,2.276564298E0,1.105782355E1
1.500889533E1,3.036491540E0,1.009205097E1,1.349680337E0,1.062503697E1
1.501891933E1,2.815970234E0,1.002239894E1,1.792826486E-1,1.041202723E1
1.502894433E1,2.580634130E0,9.812647619E0,-1.290959966E0,1.022811339E1
1.503896833E1,2.030767378E0,9.164211869E0,-2.803026545E0,9.796109081E0
1.504899333E1,1.475114222E0,8.352610150E0,-3.947181930E0,9.355335562E0
1.505901733E1,1.258993969E0,6.582377890E0,-6.187860403E0,9.121533910E0
1.506904233E1,9.554965796E-1,3.503679686E0,-6.301303988E0,7.272907053E0
1.507906733E1,-8.855264582E-1,-2.879406384E0,-4.943900356E0,5.789411798E0
1.508909133E1,-7.252255965E0,-2.170912361E1,-4.086963128E0,2.325047381E1
1.509911633E1,-1.533651692E1,-6.241118714E1,-3.035088033E1,7.107419341E1
1.510914033E1,-7.473761943E0,-6.865675723E1,-1.223960698E1,7.013854439E1
1.511916533E1,-2.322890618E0,-4.344179981E1,2.683026711E1,5.111212209E1
1.512919033E1,4.091672768E0,-2.107000189E1,1.345398129E1,2.533172671E1
1.513921433E1,5.810195761E0,-9.287446032E0,-3.122971275E0,1.139157488E1
1.514923933E1,2.503725117E0,-3.938250600E0,-7.490515970E0,8.825320773E0
1.515926333E1,-1.506148173E0,-2.212571785E0,-4.195626614E0,4.976669460E0
1.516928833E1,-5.349221159E0,-2.535145131E0,-5.117787194E0,7.825143680E0
1.517931233E1,-1.168669076E1,-8.223458020E0,-3.753534134E0,1.477474268E1
1.518933733E1,-1.944508405E1,-1.299795109E1,-2.098474189E0,2.348321997E1
1.519936233E1,-2.024263023E1,-1.297232976E1,1.693681097E-1,2.404317167E1
1.520938633E1,-1.452269092E1,-1.522212083E1,-2.354533410E-1,2.103988955E1
1.521941133E1,-7.360930561E0,-1.909976972E1,-2.444767642E0,2.061459169E1
1.522943533E1,-1.713686761E0,-1.890514982E1,-5.189226136E0,1.967916360E1
1.523946033E1,2.507932774E0,-1.532444008E1,-6.840642389E0,1.696828156E1
1.524948433E1,5.009493252E0,-9.446334177E0,-7.304422485E0,1.294924090E1
1.525950933E1,5.242102507E0,-3.333484195E0,-6.655551116E0,9.104291089E0
1.526953433E1,3.333823333E0,4.707996780E-1,-4.616848043E0,5.714133023E0
1.527955833E1,1.360549726E0,2.988384451E0,-2.365957700E0,4.047133927E0
1.528958333E1,1.057104669E0,5.317766063E0,-1.774611239E0,5.704853305E0
1.529960733E1,9.555896965E-1,6.553428910E0,-2.732473456E0,7.164285962E0
1.530963233E1,9.544605991E-1,6.565254319E0,-1.992230573E0,6.926943191E0
1.531965733E1,2.723255613E0,7.609969908E0,1.708756973E0,8.261211384E0
1.532968133E1,4.727145534E0,8.788934060E0,1.813562467E0,1.014299145E1
1.533970633E1,6.343615025E0,7.671926420E0,-3.083811010E0,1.042160242E1
1.534973033E1,7.724417460E0,5.104394147E0,-6.423811927E0,1.126884308E1
1.535975533E1,1.002832334E1,4.251439750E0,-7.161872045E0,1.303588969E1
1.536977933E1,1.013611325E1,5.404406011E0,-1.884297988E0,1.164040270E1
1.537980433E1,7.922128193E0,7.260693498E0,3.601873147E0,1.133363469E1
1.538982933E1,4.317164208E0,8.599964329E0,5.724151644E0,1.119657114E1
1.539985333E1,1.290076306E0,9.478692668E0,6.538195159E0,1.158697146E1
1.540987833E1,-2.996455362E-1,1.003060375E1,6.338777039E0,1.186940999E1
1.541990233E1,-6.070599756E-1,9.993447036E0,5.799436884E0,1.157026247E1
1.542992733E1,-9.982717395E-1,1.005286410E1,4.561049234E0,1.108421369E1
1.543995133E1,-1.019485292E0,1.033314805E1,3.949043391E0,1.110892625E1
1.544997654E1,-8.871367814E-1,1.043682853E1,3.466834041E0,1.103328327E1
1.546000154E1,-1.141216428E0,1.034950037E1,3.061958796E0,1.085311589E1
1.547002554E1,-1.766884144E0,1.020304165E1,2.834027313E0,1.073571839E1
1.548005054E1,-2.534954804E0,1.008061733E1,2.574965254E0,1.070865480E1
1.549007454E1,-3.006597943E0,1.030136960E1,2.431011629E0,1.100307522E1
1.550009954E1,-3.417726785E0,1.109816149E1,1.668639957E0,1.173176901E1
1.551012354E1,-2.817271532E0,1.168191826E1,-2.395031226E-1,1.201921773E1
1.552014854E1,-8.679380335E-1,1.148680837E1,-1.436620979E0,1.160878817E1
1.553017354E1,9.388309917E-1,1.085053541E1,-1.678836040E0,1.101971020E1
1.554019754E1,1.682446988E0,1.039393453E1,-1.028985994E0,1.057938160E1
1.555022254E1,1.928760509E0,1.021420165E1,8.094081357E-2,1.039502688E1
1.556024654E1,2.203008810E0,9.830065305E0,1.647815537E0,1.020777781E1
1.557027154E1,2.460730541E0,9.559546797E0,2.895273389E0,1.028701792E1
1.558029554E1,2.746455318E0,9.384232069E0,3.261401474E0,1.030745206E1
1.559032054E1,2.951840230E0,9.431745374E0,3.002796668E0,1.032898685E1
1.560034554E1,2.962194187E0,9.479655704E0,2.994377847E0,1.037327168E1
1.561036954E1,2.976416954E0,9.194957698E0,3.358225518E0,1.023151912E1
1.562039454E1,3.022300056E0,8.954805534E0,3.510175942E0,1.008187358E1
1.563041854E1,3.135474669E0,8.769956337E0,3.162975293E0,9.836043323E0
1.564044354E1,3.137755083E0,8.675145489E0,2.527559538E0,9.565156216E0
1.565046854E1,3.017261510E0,8.677019522E0,2.440411466E0,9.505269219E0
1.566049254E1,2.809011755E0,8.494664161E0,2.325719355E0,9.244394884E0
1.567051754E1,2.425454289E0,7.998033823E0,1.897261266E0,8.570354360E0
1.568054154E1,1.833237032E0,6.479165763E0,1.681835808E0,6.940383180E0
1.569056654E1,7.500141656E-1,-1.558845474E0,2.544702405E0,3.077016540E0
1.570059054E1,-2.829429647E0,-2.099351563E1,4.199117110E0,2.159550776E1
1.571061554E1,-8.571907049E0,-4.969491982E1,-7.092260942E0,5.092507056E1
1.572064054E1,-1.318480588E1,-6.905766104E1,-2.975607817E1,7.634280479E1
1.573066454E1,-5.737517794E0,-6.167323111E1,-3.445401189E1,7.087725644E1
1.574068954E1,1.534004163E0,-2.584600998E1,4.885988363E0,2.634847781E1
1.575071354E1,3.665547572E0,-5.394244720E0,1.344970463E1,1.494753056E1
1.576073854E1,6.165976614E0,-4.311137483E0,-3.481407349E-1,7.531691441E0
1.577076254E1,2.703083304E0,1.326160789E0,-6.788604509E0,7.426339136E0
1.578078754E1,-1.105851883E0,4.513863958E0,-7.650916497E-1,4.709908858E0
1.579081254E1,-1.645944428E0,2.340004249E0,4.359061847E0,5.214036165E0
1.580083654E1,-2.827684838E0,-2.920794146E0,6.593401061E0,7.745952333E0
1.581086154E1,-7.290001497E0,-9.729948694E0,4.564880329E0,1.298669149E1
1.582088554E1,-1.392237016E1,-1.973612336E1,-2.972339983E-1,2.415440548E1
1.583091054E1,-1.895826944E1,-2.758571568E1,-2.048064612E0,3.353479176E1
1.584093454E1,-1.448229602E1,-2.714857550E1,-6.202908797E0,3.138882169E1
1.585095954E1,-4.244023726E0,-2.085813856E1,-1.378539796E1,2.535963088E1
1.586098454E1,2.281901344E0,-1.413596895E1,-1.280420945E1,1.920886439E1
1.587100854E1,4.980738984E0,-7.943238396E0,-5.615870565E0,1.092889744E1
1.588103354E1,5.510571567E0,-2.655251033E0,-1.702001685E0,6.349296558E0
1.589105754E1,4.962821946E0,1.545377582E0,-9.045245004E-1,5.275979351E0
1.590108254E1,3.520491015E0,4.684474016E0,-3.209168297E-1,5.868657547E0
1.591110754E1,2.440693887E0,5.621055876E0,-4.375448084E-1,6.143671644E0
1.592113154E1,2.048415006E0,6.214245379E0,-6.043214321E-2,6.543431952E0
1.593115654E1,2.215505918E0,6.942469311E0,2.416940743E-1,7.291417052E0
1.594118054E1,2.659405480E0,7.577427814E0,5.404704219E-1,8.048724002E0
1.595120554E1,3.281077648E0,7.893651084E0,1.648652859E0,8.705932128E0
1.596122954E1,3.466216867E0,8.065268617E0,1.457549479E0,8.898745289E0
1.597125454E1,3.483084915E0,8.660869512E0,-2.035252047E-1,9.337235337E0
1.598127954E1,3.010836005E0,8.417649314E0,-2.746177576E0,9.352189300E0
1.599130354E1,2.171280794E0,7.039064144E0,-4.299668169E0,8.529362853E0
1.600132854E1,1.845087145E0,5.470801730E0,-6.023727890E0,8.343819020E0
1.601135254E1,2.634453949E0,4.441442683E0,-6.957241132E0,8.664292521E0
1.602137754E1,3.317877684E0,4.685673864E0,-5.354657316E0,7.850873000E0
1.603140154E1,3.616392953E0,6.209662331E0,-1.897845987E0,7.432363262E0
1.604142654E1,3.257720652E0,8.547188530E0,1.945140606E0,9.351510444E0
1.605145154E1,1.627543826E0,9.965963953E0,4.737485458E0,1.115406226E1
1.606147554E1,6.613852867E-1,1.042474234E1,5.859753252E0,1.197703601E1
1.607150054E1,2.917439014E-2,1.060740936E1,5.771852059E0,1.207610287E1
1.608152454E1,-7.322548561E-1,1.074767587E1,4.954862716E0,1.185746172E1
1.609154954E1,-1.223406645E0,1.102037013E1,4.580368434E0,1.199687695E1
1.610157354E1,-9.489881900E-1,1.124389048E1,4.488629129E0,1.214386442E1
1.611159854E1,-1.025312334E0,1.095261727E1,3.760218086E0,1.162541744E1
1.612162354E1,-1.079578881E0,1.067763559E1,2.780546340E0,1.108642549E1
1.613164754E1,-9.551777601E-1,1.055717359E1,1.406556935E0,1.069320724E1
1.614167254E1,-8.918030056E-1,1.064967186E1,-2.098237523E-1,1.068900601E1
1.615169654E1,1.499821047E-1,1.091359764E1,-2.109950373E0,1.111669909E1
1.616172154E1,1.489436831E0,1.083511865E1,-3.192815974E0,1.139351974E1
1.617174554E1,2.204407902E0,1.068693968E1,-2.508287407E0,1.119649943E1
1.618177054E1,2.644910817E0,1.043493404E1,-1.084446761E0,1.081940046E1
1.619179554E1,2.812580895E0,1.034305908E1,3.081957735E-2,1.071869545E1
1.620181954E1,2.957793573E0,1.029332851E1,1.232665565E0,1.078056673E1
1.621184454E1,3.141535892E0,1.019088295E1,2.167278668E0,1.088211560E1
1.622186854E1,3.327645165E0,9.988082800E0,2.591815760E0,1.084216442E1
1.623189354E1,3.386277536E0,9.798293874E0,2.491005085E0,1.066201410E1
1.624191754E1,3.365279015E0,9.670100103E0,2.025450944E0,1.043735553E1
1.625194254E1,3.345413392E0,9.533479909E0,1.361804831E0,1.019478015E1
1.626196754E1,3.317440312E0,9.300714533E0,5.436040179E-1,9.889600921E0
1.627199154E1,3.027949635E0,8.639145352E0,-7.613483354E-1,9.186019959E0
1.628201654E1,2.476670928E0,7.540182804E0,-3.615884246E0,8.721403241E0
1.629204054E1,2.039347144E0,4.370173311E0,-1.032342763E1,1.139431918E1
1.630206554E1,8.148267505E-1,-4.148373803E0,-1.412586963E1,1.474493611E1
1.631209054E1,-4.671147627E0,-2.771905558E1,-8.126774894E0,2.926106855E1
1.632211454E1,-1.131749055E1,-5.826039376E1,-6.630827919E0,5.971873201E1
1.633213954E1,-7.121951349E0,-6.596490028E1,-1.176524576E1,6.738331595E1
1.634216354E1,2.935425049E-1,-4.075577605E1,6.275050575E0,4.123706717E1
1.635218854E1,5.915387170E0,-1.621315021E1,1.103378481E1,2.048420006E1
1.636221254E1,6.995387197E0,-6.891371078E0,4.405346067E0,1.076259780E1
1.637223754E1,6.165988308E0,-4.183170583E0,-4.224396962E0,8.565270436E0
1.638226254E1,2.671582891E0,-2.622433535E0,-6.106641408E0,7.162791501E0
1.639228654E1,-9.105640894E-1,-4.043129768E0,-2.749320746E0,4.973408273E0
1.640231154E1,-5.048525755E0,-8.594414152E0,1.219593530E0,1.004186115E1
1.641233554E1,-9.081676666E0,-1.427167230E1,1.081156021E0,1.695070440E1
1.642236054E1,-1.152590987E1,-1.883097906E1,-2.036612109E0,2.217205808E1
1.643238454E1,-1.058866084E1,-2.163666726E1,-2.717329752E0,2.424147251E1
1.644240954E1,-5.892614604E0,-2.001812054E1,-2.496057079E0,2.101614517E1
1.645243429E1,-1.862358651E0,-1.659161592E1,-3.363235413E0,1.703119053E1
1.646245829E1,1.235871301E0,-1.283415421E1,-4.566511703E0,1.367830111E1
1.647248329E1,3.257955126E0,-9.404456418E0,-5.339961509E0,1.129483338E1
1.648250729E1,4.491164482E0,-5.737717184E0,-5.270963194E0,8.993053424E0
1.649253229E1,4.518529451E0,-1.994422109E0,-4.873987538E0,6.939062074E0
1.650255729E1,3.580026780E0,8.610264784E-1,-4.032733419E0,5.460851323E0
1.651258129E1,3.264089732E0,2.545421612E0,-2.914704271E0,5.062504711E0
1.652260629E1,4.307900464E0,4.119937039E0,-1.806701344E0,6.228648116E0
1.653263029E1,5.042553409E0,5.410773629E0,-7.612583613E-1,7.435276084E0
1.654265529E1,5.767958398E0,6.601781875E0,1.180858650E0,8.845750119E0
1.655267929E1,6.533363020E0,7.893997239E0,3.634510551E0,1.087242805E1
1.656270429E1,6.770782780E0,9.143221534E0,4.407128298E0,1.220101550E1
1.657272929E1,6.707866155E0,9.739073859E0,3.107564739E0,1.222710050E1
1.658275329E1,6.507504294E0,9.523996310E0,9.077497514E-1,1.157057161E1
1.659277829E1,6.074139660E0,8.526235617E0,-1.199121258E0,1.053706592E1
1.660280229E1,5.319779844E0,6.845860444E0,-2.105481784E0,8.921822479E0
1.661282729E1,4.357249210E0,5.891839263E0,-2.248609929E0,7.665222580E0
1.662285129E1,2.563524007E0,5.844568033E0,-2.027371754E0,6.696332359E0
1.663287629E1,5.352921277E-1,6.839274725E0,-5.778832465E-1,6.884487307E0
1.664290129E1,-1.248444130E0,8.074439975E0,2.284183220E0,8.483671766E0
1.665292529E1,-2.639134353E0,9.060343684E0,4.248322599E0,1.034906289E1
1.666295029E1,-2.919231185E0,9.339731834E0,4.715077758E0,1.086206517E1
1.667297429E1,-2.673583224E0,9.323398806E0,4.527660463E0,1.070390218E1
1.668299929E1,-2.196776263E0,9.596276082E0,4.442211592E0,1.080035112E1
1.669302329E1,-1.604561052E0,9.920794212E0,4.174409115E0,1.088220866E1
1.670304829E1,-1.326502997E0,1.018812540E1,3.404492197E0,1.082349650E1
